"rt","responses","question_order","trial_type","trial_index","time_elapsed","internal_node_id","ID","view_history","stimulus","key_press","value","agent","condition","image","correct_answer"
"8749.449999999999","{""Experimenter"":[""Confirmed subject's identity"",""Confirmed normal or corrected-to-normal vision"",""Obtained consent (signature and date)"",""Checked the test room lighting"",""Checked computer screen lighting"",""Checked distance from screen to chin rest (50cm)"",""Cleaned and adjusted chin rest"",""Counterbalanced the order of the tasks"",""Opened the experiment in Firefox"",""Made the experiment full screen"",""Encouraged subject to silence phone, put away distractors, etc.""]}","[0]","survey-multi-select","0","8759","0.0-0.0","opvszfeg","","","","","","","",""
"530252.88","","","instructions","1","539015","0.0-1.0","opvszfeg","[{""page_index"":0,""viewing_time"":530252.33}]","","","","","","",""
"10952.905000000028","","","instructions","2","549969","0.0-2.0","opvszfeg","[{""page_index"":0,""viewing_time"":4686.984999999986},{""page_index"":1,""viewing_time"":1303.795000000042},{""page_index"":2,""viewing_time"":4962}]","","","","","","",""
"3086.7200000000885","","","instructions","3","553057","0.0-3.0","opvszfeg","[{""page_index"":0,""viewing_time"":3086.6199999999953}]","","","","","","",""
"null","","","video-keyboard-response","4","556134","0.0-4.0","opvszfeg","","","null","","","","",""
"8109.784999999916","","","instructions","5","564245","0.0-5.0","opvszfeg","[{""page_index"":0,""viewing_time"":2617.7449999999953},{""page_index"":1,""viewing_time"":2415.0200000000186},{""page_index"":2,""viewing_time"":3076.914999999921}]","","","","","","",""
"2431.555000000051","","","instructions","6","566677","0.0-6.0","opvszfeg","[{""page_index"":0,""viewing_time"":2431.45000000007}]","","","","","","",""
"4639.5","","","instructions","7","571317","0.0-7.0","opvszfeg","[{""page_index"":0,""viewing_time"":4639.290000000037}]","","","","","","",""
"null","","","video-keyboard-response","8","574394","0.0-8.0","opvszfeg","","","null","","","","",""
"11092.795000000042","","","instructions","9","585488","0.0-9.0","opvszfeg","[{""page_index"":0,""viewing_time"":1601.875},{""page_index"":1,""viewing_time"":5045.834999999963},{""page_index"":2,""viewing_time"":4444.925000000047}]","","","","","","",""
"5882.5650000000605","","","instructions","10","591371","0.0-10.0","opvszfeg","[{""page_index"":0,""viewing_time"":5882.445000000065}]","","","","","","",""
"","","","call-function","11","591372","0.0-11.0","opvszfeg","","","","","","","",""
"null","","","html-keyboard-response","12","592874","0.0-12.0","opvszfeg","","<span style=""color:Black; font-size:50px;"">Agent A","null","","","","",""
"null","","","video-keyboard-response","13","595949","0.0-13.0","opvszfeg","","","null","","Agent A","veridical","STIM_SET_2_144/1592921.bmp_pp69_L3_V1.0_veridical_freeview_isoTrue_fps144.mp4",""
"null","","","html-keyboard-response","14","597452","0.0-14.0","opvszfeg","","<span style=""color:Black; font-size:50px;"">Agent B","null","","","","",""
"null","","","video-keyboard-response","15","600524","0.0-15.0","opvszfeg","","","null","","Agent B","scrambled","STIM_SET_5/1592921.bmp_pp69_L3_V1.0_veridical_freeview_isoTrue_Hflip_fps144.mp4",""
"","","","call-function","16","600525","0.0-16.0","opvszfeg","","","","","","","",""
"3166.234999999986","{""judgement"":0}","[0]","survey-likert","17","603693","0.0-17.0","opvszfeg","","","","","","","","0"
"4331.530000000028","{""confidence"":1}","[0]","survey-likert","18","608026","0.0-18.0","opvszfeg","","","","","","","",""
"","","","call-function","19","608026","0.0-19.0","opvszfeg","","","","","","","",""
"null","","","html-keyboard-response","20","609528","0.0-20.0","opvszfeg","","<span style=""color:Black; font-size:50px;"">Agent A","null","","","","",""
"null","","","video-keyboard-response","21","612620","0.0-21.0","opvszfeg","","","null","","Agent A","scrambled","STIM_SET_5/713770.bmp_pp89_L1_V1.0_veridical_freeview_isoTrue_Hflip_fps144.mp4",""
"null","","","html-keyboard-response","22","614124","0.0-22.0","opvszfeg","","<span style=""color:Black; font-size:50px;"">Agent B","null","","","","",""
"null","","","video-keyboard-response","23","617212","0.0-23.0","opvszfeg","","","null","","Agent B","veridical","STIM_SET_2_144/713770.bmp_pp89_L1_V1.0_veridical_freeview_isoTrue_fps144.mp4",""
"","","","call-function","24","617213","0.0-24.0","opvszfeg","","","","","","","",""
"3906.6049999999814","{""judgement"":0}","[0]","survey-likert","25","621120","0.0-25.0","opvszfeg","","","","","","","","1"
"2757.8549999999814","{""confidence"":2}","[0]","survey-likert","26","623880","0.0-26.0","opvszfeg","","","","","","","",""
"","","","call-function","27","623880","0.0-27.0","opvszfeg","","","","","","","",""
"null","","","html-keyboard-response","28","625382","0.0-28.0","opvszfeg","","<span style=""color:Black; font-size:50px;"">Agent A","null","","","","",""
"null","","","video-keyboard-response","29","628448","0.0-29.0","opvszfeg","","","null","","Agent A","veridical","STIM_SET_2_144/1592530.bmp_pp75_L1_V1.0_veridical_freeview_isoTrue_fps144.mp4",""
"null","","","html-keyboard-response","30","629953","0.0-30.0","opvszfeg","","<span style=""color:Black; font-size:50px;"">Agent B","null","","","","",""
"null","","","video-keyboard-response","31","633037","0.0-31.0","opvszfeg","","","null","","Agent B","scrambled","STIM_SET_5/1592530.bmp_pp75_L1_V1.0_veridical_freeview_isoTrue_Hflip_fps144.mp4",""
"","","","call-function","32","633038","0.0-32.0","opvszfeg","","","","","","","",""
"3004.2550000000047","{""judgement"":1}","[0]","survey-likert","33","636043","0.0-33.0","opvszfeg","","","","","","","","0"
"2476.444999999949","{""confidence"":2}","[0]","survey-likert","34","638521","0.0-34.0","opvszfeg","","","","","","","",""
"","","","call-function","35","638521","0.0-35.0","opvszfeg","","","","","","","",""
"null","","","html-keyboard-response","36","640025","0.0-36.0","opvszfeg","","<span style=""color:Black; font-size:50px;"">Agent A","null","","","","",""
"null","","","video-keyboard-response","37","643094","0.0-37.0","opvszfeg","","","null","","Agent A","veridical","STIM_SET_2_144/498261.bmp_pp84_L3_V1.0_veridical_freeview_isoTrue_fps144.mp4",""
"null","","","html-keyboard-response","38","644601","0.0-38.0","opvszfeg","","<span style=""color:Black; font-size:50px;"">Agent B","null","","","","",""
"null","","","video-keyboard-response","39","647686","0.0-39.0","opvszfeg","","","null","","Agent B","scrambled","STIM_SET_5/498261.bmp_pp84_L3_V1.0_veridical_freeview_isoTrue_Hflip_fps144.mp4",""
"","","","call-function","40","647687","0.0-40.0","opvszfeg","","","","","","","",""
"5943.590000000084","{""judgement"":1}","[0]","survey-likert","41","653631","0.0-41.0","opvszfeg","","","","","","","","0"
"2847.0650000000605","{""confidence"":1}","[0]","survey-likert","42","656480","0.0-42.0","opvszfeg","","","","","","","",""
"","","","call-function","43","656480","0.0-43.0","opvszfeg","","","","","","","",""
"null","","","html-keyboard-response","44","657983","0.0-44.0","opvszfeg","","<span style=""color:Black; font-size:50px;"">Agent A","null","","","","",""
"null","","","video-keyboard-response","45","661048","0.0-45.0","opvszfeg","","","null","","Agent A","scrambled","STIM_SET_5/713829.bmp_pp60_L3_V1.0_veridical_freeview_isoTrue_Hflip_fps144.mp4",""
"null","","","html-keyboard-response","46","662551","0.0-46.0","opvszfeg","","<span style=""color:Black; font-size:50px;"">Agent B","null","","","","",""
"null","","","video-keyboard-response","47","665613","0.0-47.0","opvszfeg","","","null","","Agent B","veridical","STIM_SET_2_144/713829.bmp_pp60_L3_V1.0_veridical_freeview_isoTrue_fps144.mp4",""
"","","","call-function","48","665614","0.0-48.0","opvszfeg","","","","","","","",""
"2851.355000000098","{""judgement"":1}","[0]","survey-likert","49","668466","0.0-49.0","opvszfeg","","","","","","","","1"
"3021.454999999958","{""confidence"":0}","[0]","survey-likert","50","671489","0.0-50.0","opvszfeg","","","","","","","",""
"","","","call-function","51","671489","0.0-51.0","opvszfeg","","","","","","","",""
"null","","","html-keyboard-response","52","672993","0.0-52.0","opvszfeg","","<span style=""color:Black; font-size:50px;"">Agent A","null","","","","",""
"null","","","video-keyboard-response","53","676083","0.0-53.0","opvszfeg","","","null","","Agent A","scrambled","STIM_SET_5/1591781.bmp_pp63_L1_V1.0_veridical_freeview_isoTrue_Hflip_fps144.mp4",""
"null","","","html-keyboard-response","54","677587","0.0-54.0","opvszfeg","","<span style=""color:Black; font-size:50px;"">Agent B","null","","","","",""
"null","","","video-keyboard-response","55","680685","0.0-55.0","opvszfeg","","","null","","Agent B","veridical","STIM_SET_2_144/1591781.bmp_pp63_L1_V1.0_veridical_freeview_isoTrue_fps144.mp4",""
"","","","call-function","56","680686","0.0-56.0","opvszfeg","","","","","","","",""
"2731.274999999907","{""judgement"":0}","[0]","survey-likert","57","683419","0.0-57.0","opvszfeg","","","","","","","","1"
"3655.95000000007","{""confidence"":2}","[0]","survey-likert","58","687077","0.0-58.0","opvszfeg","","","","","","","",""
"","","","call-function","59","687078","0.0-59.0","opvszfeg","","","","","","","",""
"null","","","html-keyboard-response","60","688580","0.0-60.0","opvszfeg","","<span style=""color:Black; font-size:50px;"">Agent A","null","","","","",""
"null","","","video-keyboard-response","61","691656","0.0-61.0","opvszfeg","","","null","","Agent A","scrambled","STIM_SET_5/713742.bmp_pp91_L3_V1.0_veridical_freeview_isoTrue_Hflip_fps144.mp4",""
"null","","","html-keyboard-response","62","693160","0.0-62.0","opvszfeg","","<span style=""color:Black; font-size:50px;"">Agent B","null","","","","",""
"null","","","video-keyboard-response","63","696236","0.0-63.0","opvszfeg","","","null","","Agent B","veridical","STIM_SET_2_144/713742.bmp_pp91_L3_V1.0_veridical_freeview_isoTrue_fps144.mp4",""
"","","","call-function","64","696237","0.0-64.0","opvszfeg","","","","","","","",""
"3777.7399999999907","{""judgement"":0}","[0]","survey-likert","65","700016","0.0-65.0","opvszfeg","","","","","","","","1"
"2631.0849999999627","{""confidence"":1}","[0]","survey-likert","66","702648","0.0-66.0","opvszfeg","","","","","","","",""
"","","","call-function","67","702649","0.0-67.0","opvszfeg","","","","","","","",""
"null","","","html-keyboard-response","68","704151","0.0-68.0","opvszfeg","","<span style=""color:Black; font-size:50px;"">Agent A","null","","","","",""
"null","","","video-keyboard-response","69","707236","0.0-69.0","opvszfeg","","","null","","Agent A","veridical","STIM_SET_2_144/285946.bmp_pp79_L2_V1.0_veridical_freeview_isoTrue_fps144.mp4",""
"null","","","html-keyboard-response","70","708743","0.0-70.0","opvszfeg","","<span style=""color:Black; font-size:50px;"">Agent B","null","","","","",""
"null","","","video-keyboard-response","71","711841","0.0-71.0","opvszfeg","","","null","","Agent B","scrambled","STIM_SET_5/285946.bmp_pp79_L2_V1.0_veridical_freeview_isoTrue_Hflip_fps144.mp4",""
"","","","call-function","72","711842","0.0-72.0","opvszfeg","","","","","","","",""
"2037.8549999999814","{""judgement"":0}","[0]","survey-likert","73","713881","0.0-73.0","opvszfeg","","","","","","","","0"
"3123.155000000028","{""confidence"":2}","[0]","survey-likert","74","717005","0.0-74.0","opvszfeg","","","","","","","",""
"","","","call-function","75","717005","0.0-75.0","opvszfeg","","","","","","","",""
"null","","","html-keyboard-response","76","718508","0.0-76.0","opvszfeg","","<span style=""color:Black; font-size:50px;"">Agent A","null","","","","",""
"null","","","video-keyboard-response","77","721586","0.0-77.0","opvszfeg","","","null","","Agent A","veridical","STIM_SET_2_144/713328.bmp_pp86_L2_V1.0_veridical_freeview_isoTrue_fps144.mp4",""
"null","","","html-keyboard-response","78","723089","0.0-78.0","opvszfeg","","<span style=""color:Black; font-size:50px;"">Agent B","null","","","","",""
"null","","","video-keyboard-response","79","726165","0.0-79.0","opvszfeg","","","null","","Agent B","scrambled","STIM_SET_5/713328.bmp_pp86_L2_V1.0_veridical_freeview_isoTrue_Hflip_fps144.mp4",""
"","","","call-function","80","726165","0.0-80.0","opvszfeg","","","","","","","",""
"2864.5100000000093","{""judgement"":1}","[0]","survey-likert","81","729031","0.0-81.0","opvszfeg","","","","","","","","0"
"2494.5050000000047","{""confidence"":3}","[0]","survey-likert","82","731527","0.0-82.0","opvszfeg","","","","","","","",""
"","","","call-function","83","731527","0.0-83.0","opvszfeg","","","","","","","",""
"null","","","html-keyboard-response","84","733034","0.0-84.0","opvszfeg","","<span style=""color:Black; font-size:50px;"">Agent A","null","","","","",""
"null","","","video-keyboard-response","85","736109","0.0-85.0","opvszfeg","","","null","","Agent A","veridical","STIM_SET_2_144/498326.bmp_pp57_L1_V1.0_veridical_freeview_isoTrue_fps144.mp4",""
"null","","","html-keyboard-response","86","737611","0.0-86.0","opvszfeg","","<span style=""color:Black; font-size:50px;"">Agent B","null","","","","",""
"null","","","video-keyboard-response","87","740685","0.0-87.0","opvszfeg","","","null","","Agent B","scrambled","STIM_SET_5/498326.bmp_pp57_L1_V1.0_veridical_freeview_isoTrue_Hflip_fps144.mp4",""
"","","","call-function","88","740686","0.0-88.0","opvszfeg","","","","","","","",""
"1969.5800000000745","{""judgement"":1}","[0]","survey-likert","89","742656","0.0-89.0","opvszfeg","","","","","","","","0"
"2077.7700000000186","{""confidence"":3}","[0]","survey-likert","90","744735","0.0-90.0","opvszfeg","","","","","","","",""
"4077.5","","","instructions","91","748813","0.0-91.0","opvszfeg","[{""page_index"":0,""viewing_time"":1649.1850000000559},{""page_index"":1,""viewing_time"":1350.1849999999395},{""page_index"":2,""viewing_time"":1077.9250000000466}]","","","","","","",""
"3192.2299999999814","","","instructions","92","752006","0.0-92.0","opvszfeg","[{""page_index"":0,""viewing_time"":887.1799999999348},{""page_index"":1,""viewing_time"":1449.9500000000698},{""page_index"":2,""viewing_time"":854.9899999999907}]","","","","","","",""
"","","","call-function","93","752007","0.0-93.0","opvszfeg","","","","","","","",""
"null","","","html-keyboard-response","94","753509","0.0-94.0","opvszfeg","","<span style=""color:Black; font-size:50px;"">Agent A","null","","","","",""
"null","","","video-keyboard-response","95","756579","0.0-95.0","opvszfeg","","","null","","Agent A","scrambled","STIM_SET_5/1592201.bmp_pp97_L3_V1.0_veridical_freeview_isoTrue_Hflip_fps144.mp4",""
"null","","","html-keyboard-response","96","758083","0.0-96.0","opvszfeg","","<span style=""color:Black; font-size:50px;"">Agent B","null","","","","",""
"null","","","video-keyboard-response","97","761153","0.0-97.0","opvszfeg","","","null","","Agent B","veridical","STIM_SET_2_144/1592201.bmp_pp97_L3_V1.0_veridical_freeview_isoTrue_fps144.mp4",""
"","","","call-function","98","761154","0.0-98.0","opvszfeg","","","","","","","",""
"1814.8100000000559","{""judgement"":0}","[0]","survey-likert","99","762970","0.0-99.0","opvszfeg","","","","","","","","1"
"1437.9649999999674","{""confidence"":2}","[0]","survey-likert","100","764409","0.0-100.0","opvszfeg","","","","","","","",""
"","","","call-function","101","764409","0.0-101.0","opvszfeg","","","","","","","",""
"null","","","html-keyboard-response","102","765912","0.0-102.0","opvszfeg","","<span style=""color:Black; font-size:50px;"">Agent A","null","","","","",""
"null","","","video-keyboard-response","103","768990","0.0-103.0","opvszfeg","","","null","","Agent A","veridical","STIM_SET_2_144/713633.bmp_pp58_L1_V1.0_veridical_freeview_isoTrue_fps144.mp4",""
"null","","","html-keyboard-response","104","770497","0.0-104.0","opvszfeg","","<span style=""color:Black; font-size:50px;"">Agent B","null","","","","",""
"null","","","video-keyboard-response","105","773576","0.0-105.0","opvszfeg","","","null","","Agent B","scrambled","STIM_SET_5/713633.bmp_pp58_L1_V1.0_veridical_freeview_isoTrue_Hflip_fps144.mp4",""
"","","","call-function","106","773577","0.0-106.0","opvszfeg","","","","","","","",""
"2070.1049999999814","{""judgement"":1}","[0]","survey-likert","107","775648","0.0-107.0","opvszfeg","","","","","","","","0"
"2595.0749999999534","{""confidence"":2}","[0]","survey-likert","108","778244","0.0-108.0","opvszfeg","","","","","","","",""
"","","","call-function","109","778244","0.0-109.0","opvszfeg","","","","","","","",""
"null","","","html-keyboard-response","110","779748","0.0-110.0","opvszfeg","","<span style=""color:Black; font-size:50px;"">Agent A","null","","","","",""
"null","","","video-keyboard-response","111","782843","0.0-111.0","opvszfeg","","","null","","Agent A","scrambled","STIM_SET_5/1159874.bmp_pp96_L2_V1.0_veridical_freeview_isoTrue_Hflip_fps144.mp4",""
"null","","","html-keyboard-response","112","784349","0.0-112.0","opvszfeg","","<span style=""color:Black; font-size:50px;"">Agent B","null","","","","",""
"null","","","video-keyboard-response","113","787446","0.0-113.0","opvszfeg","","","null","","Agent B","veridical","STIM_SET_2_144/1159874.bmp_pp96_L2_V1.0_veridical_freeview_isoTrue_fps144.mp4",""
"","","","call-function","114","787447","0.0-114.0","opvszfeg","","","","","","","",""
"2053.265000000014","{""judgement"":1}","[0]","survey-likert","115","789502","0.0-115.0","opvszfeg","","","","","","","","1"
"1765.6949999999488","{""confidence"":1}","[0]","survey-likert","116","791269","0.0-116.0","opvszfeg","","","","","","","",""
"","","","call-function","117","791269","0.0-117.0","opvszfeg","","","","","","","",""
"null","","","html-keyboard-response","118","792772","0.0-118.0","opvszfeg","","<span style=""color:Black; font-size:50px;"">Agent A","null","","","","",""
"null","","","video-keyboard-response","119","795848","0.0-119.0","opvszfeg","","","null","","Agent A","scrambled","STIM_SET_5/285715.bmp_pp67_L2_V1.0_veridical_freeview_isoTrue_Hflip_fps144.mp4",""
"null","","","html-keyboard-response","120","797353","0.0-120.0","opvszfeg","","<span style=""color:Black; font-size:50px;"">Agent B","null","","","","",""
"null","","","video-keyboard-response","121","800432","0.0-121.0","opvszfeg","","","null","","Agent B","veridical","STIM_SET_2_144/285715.bmp_pp67_L2_V1.0_veridical_freeview_isoTrue_fps144.mp4",""
"","","","call-function","122","800434","0.0-122.0","opvszfeg","","","","","","","",""
"1959.390000000014","{""judgement"":0}","[0]","survey-likert","123","802395","0.0-123.0","opvszfeg","","","","","","","","1"
"1970.5899999999674","{""confidence"":0}","[0]","survey-likert","124","804367","0.0-124.0","opvszfeg","","","","","","","",""
"","","","call-function","125","804369","0.0-125.0","opvszfeg","","","","","","","",""
"null","","","html-keyboard-response","126","805870","0.0-126.0","opvszfeg","","<span style=""color:Black; font-size:50px;"">Agent A","null","","","","",""
"null","","","video-keyboard-response","127","808947","0.0-127.0","opvszfeg","","","null","","Agent A","scrambled","STIM_SET_5/498372.bmp_pp95_L2_V1_veridical_freeview_isoTrue_Hflip_fps144.mp4",""
"null","","","html-keyboard-response","128","810450","0.0-128.0","opvszfeg","","<span style=""color:Black; font-size:50px;"">Agent B","null","","","","",""
"null","","","video-keyboard-response","129","813527","0.0-129.0","opvszfeg","","","null","","Agent B","veridical","STIM_SET_2_144/498372.bmp_pp95_L2_V1_veridical_freeview_isoTrue_fps144.mp4",""
"","","","call-function","130","813528","0.0-130.0","opvszfeg","","","","","","","",""
"2242.32500000007","{""judgement"":1}","[0]","survey-likert","131","815772","0.0-131.0","opvszfeg","","","","","","","","1"
"2454.1750000000466","{""confidence"":2}","[0]","survey-likert","132","818227","0.0-132.0","opvszfeg","","","","","","","",""
"","","","call-function","133","818228","0.0-133.0","opvszfeg","","","","","","","",""
"null","","","html-keyboard-response","134","819730","0.0-134.0","opvszfeg","","<span style=""color:Black; font-size:50px;"">Agent A","null","","","","",""
"null","","","video-keyboard-response","135","822799","0.0-135.0","opvszfeg","","","null","","Agent A","scrambled","STIM_SET_5/1159329.bmp_pp61_L2_V1.0_veridical_freeview_isoTrue_Hflip_fps144.mp4",""
"null","","","html-keyboard-response","136","824301","0.0-136.0","opvszfeg","","<span style=""color:Black; font-size:50px;"">Agent B","null","","","","",""
"null","","","video-keyboard-response","137","827374","0.0-137.0","opvszfeg","","","null","","Agent B","veridical","STIM_SET_2_144/1159329.bmp_pp61_L2_V1.0_veridical_freeview_isoTrue_fps144.mp4",""
"","","","call-function","138","827375","0.0-138.0","opvszfeg","","","","","","","",""
"1946.6300000000047","{""judgement"":0}","[0]","survey-likert","139","829323","0.0-139.0","opvszfeg","","","","","","","","1"
"1539.2750000000233","{""confidence"":2}","[0]","survey-likert","140","830863","0.0-140.0","opvszfeg","","","","","","","",""
"","","","call-function","141","830864","0.0-141.0","opvszfeg","","","","","","","",""
"null","","","html-keyboard-response","142","832365","0.0-142.0","opvszfeg","","<span style=""color:Black; font-size:50px;"">Agent A","null","","","","",""
"null","","","video-keyboard-response","143","835442","0.0-143.0","opvszfeg","","","null","","Agent A","scrambled","STIM_SET_5/713689.bmp_pp153_L3_V1.0_veridical_freeview_isoTrue_Hflip_fps144.mp4",""
"null","","","html-keyboard-response","144","836947","0.0-144.0","opvszfeg","","<span style=""color:Black; font-size:50px;"">Agent B","null","","","","",""
"null","","","video-keyboard-response","145","840024","0.0-145.0","opvszfeg","","","null","","Agent B","veridical","STIM_SET_2_144/713689.bmp_pp153_L3_V1.0_veridical_freeview_isoTrue_fps144.mp4",""
"","","","call-function","146","840024","0.0-146.0","opvszfeg","","","","","","","",""
"2453.219999999972","{""judgement"":1}","[0]","survey-likert","147","842478","0.0-147.0","opvszfeg","","","","","","","","1"
"2062.2249999999767","{""confidence"":3}","[0]","survey-likert","148","844542","0.0-148.0","opvszfeg","","","","","","","",""
"","","","call-function","149","844542","0.0-149.0","opvszfeg","","","","","","","",""
"null","","","html-keyboard-response","150","846044","0.0-150.0","opvszfeg","","<span style=""color:Black; font-size:50px;"">Agent A","null","","","","",""
"null","","","video-keyboard-response","151","849118","0.0-151.0","opvszfeg","","","null","","Agent A","scrambled","STIM_SET_5/713652.bmp_pp89_L1_V1_veridical_freeview_isoTrue_Hflip_fps144.mp4",""
"null","","","html-keyboard-response","152","850619","0.0-152.0","opvszfeg","","<span style=""color:Black; font-size:50px;"">Agent B","null","","","","",""
"null","","","video-keyboard-response","153","853695","0.0-153.0","opvszfeg","","","null","","Agent B","veridical","STIM_SET_2_144/713652.bmp_pp89_L1_V1_veridical_freeview_isoTrue_fps144.mp4",""
"","","","call-function","154","853696","0.0-154.0","opvszfeg","","","","","","","",""
"1732.7249999999767","{""judgement"":0}","[0]","survey-likert","155","855429","0.0-155.0","opvszfeg","","","","","","","","1"
"2101.2750000000233","{""confidence"":2}","[0]","survey-likert","156","857532","0.0-156.0","opvszfeg","","","","","","","",""
"","","","call-function","157","857532","0.0-157.0","opvszfeg","","","","","","","",""
"null","","","html-keyboard-response","158","859036","0.0-158.0","opvszfeg","","<span style=""color:Black; font-size:50px;"">Agent A","null","","","","",""
"null","","","video-keyboard-response","159","862125","0.0-159.0","opvszfeg","","","null","","Agent A","scrambled","STIM_SET_5/107909.bmp_pp95_L2_V1.0_veridical_freeview_isoTrue_Hflip_fps144.mp4",""
"null","","","html-keyboard-response","160","863632","0.0-160.0","opvszfeg","","<span style=""color:Black; font-size:50px;"">Agent B","null","","","","",""
"null","","","video-keyboard-response","161","866722","0.0-161.0","opvszfeg","","","null","","Agent B","veridical","STIM_SET_2_144/107909.bmp_pp95_L2_V1.0_veridical_freeview_isoTrue_fps144.mp4",""
"","","","call-function","162","866723","0.0-162.0","opvszfeg","","","","","","","",""
"1870.1750000000466","{""judgement"":1}","[0]","survey-likert","163","868594","0.0-163.0","opvszfeg","","","","","","","","1"
"2233.310000000056","{""confidence"":2}","[0]","survey-likert","164","870828","0.0-164.0","opvszfeg","","","","","","","",""
"","","","call-function","165","870829","0.0-165.0","opvszfeg","","","","","","","",""
"null","","","html-keyboard-response","166","872332","0.0-166.0","opvszfeg","","<span style=""color:Black; font-size:50px;"">Agent A","null","","","","",""
"null","","","video-keyboard-response","167","875402","0.0-167.0","opvszfeg","","","null","","Agent A","scrambled","STIM_SET_5/1160189.bmp_pp64_L1_V1.0_veridical_freeview_isoTrue_Hflip_fps144.mp4",""
"null","","","html-keyboard-response","168","876905","0.0-168.0","opvszfeg","","<span style=""color:Black; font-size:50px;"">Agent B","null","","","","",""
"null","","","video-keyboard-response","169","879976","0.0-169.0","opvszfeg","","","null","","Agent B","veridical","STIM_SET_2_144/1160189.bmp_pp64_L1_V1.0_veridical_freeview_isoTrue_fps144.mp4",""
"","","","call-function","170","879977","0.0-170.0","opvszfeg","","","","","","","",""
"1993.4599999999627","{""judgement"":1}","[0]","survey-likert","171","881971","0.0-171.0","opvszfeg","","","","","","","","1"
"2868.5100000000093","{""confidence"":3}","[0]","survey-likert","172","884841","0.0-172.0","opvszfeg","","","","","","","",""
"3118.7099999999627","","","instructions","173","887961","0.0-173.0","opvszfeg","[{""page_index"":0,""viewing_time"":1293.375},{""page_index"":1,""viewing_time"":1088.1049999999814},{""page_index"":2,""viewing_time"":737.0250000000233}]","","","","","","",""
"3184.3349999999627","","","instructions","174","891145","0.0-174.0","opvszfeg","[{""page_index"":0,""viewing_time"":572.1899999999441},{""page_index"":1,""viewing_time"":1940.0100000000093},{""page_index"":2,""viewing_time"":672.015000000014}]","","","","","","",""
"","","","call-function","175","891146","0.0-175.0","opvszfeg","","","","","","","",""
"null","","","html-keyboard-response","176","892652","0.0-176.0","opvszfeg","","<span style=""color:Black; font-size:50px;"">Agent A","null","","","","",""
"null","","","video-keyboard-response","177","895723","0.0-177.0","opvszfeg","","","null","","Agent A","veridical","STIM_SET_2_144/713920.bmp_pp76_L1_V1.0_veridical_freeview_isoTrue_fps144.mp4",""
"null","","","html-keyboard-response","178","897227","0.0-178.0","opvszfeg","","<span style=""color:Black; font-size:50px;"">Agent B","null","","","","",""
"null","","","video-keyboard-response","179","900297","0.0-179.0","opvszfeg","","","null","","Agent B","scrambled","STIM_SET_5/713920.bmp_pp76_L1_V1.0_veridical_freeview_isoTrue_Hflip_fps144.mp4",""
"","","","call-function","180","900298","0.0-180.0","opvszfeg","","","","","","","",""
"2005.765000000014","{""judgement"":1}","[0]","survey-likert","181","902304","0.0-181.0","opvszfeg","","","","","","","","0"
"2678.944999999949","{""confidence"":2}","[0]","survey-likert","182","904984","0.0-182.0","opvszfeg","","","","","","","",""
"","","","call-function","183","904985","0.0-183.0","opvszfeg","","","","","","","",""
"null","","","html-keyboard-response","184","906491","0.0-184.0","opvszfeg","","<span style=""color:Black; font-size:50px;"">Agent A","null","","","","",""
"null","","","video-keyboard-response","185","909586","0.0-185.0","opvszfeg","","","null","","Agent A","veridical","STIM_SET_2_144/713790.bmp_pp100_L3_V1_veridical_freeview_isoTrue_fps144.mp4",""
"null","","","html-keyboard-response","186","911092","0.0-186.0","opvszfeg","","<span style=""color:Black; font-size:50px;"">Agent B","null","","","","",""
"null","","","video-keyboard-response","187","914186","0.0-187.0","opvszfeg","","","null","","Agent B","scrambled","STIM_SET_5/713790.bmp_pp100_L3_V1_veridical_freeview_isoTrue_Hflip_fps144.mp4",""
"","","","call-function","188","914187","0.0-188.0","opvszfeg","","","","","","","",""
"1686.170000000042","{""judgement"":1}","[0]","survey-likert","189","915874","0.0-189.0","opvszfeg","","","","","","","","0"
"1531.1149999999907","{""confidence"":0}","[0]","survey-likert","190","917406","0.0-190.0","opvszfeg","","","","","","","",""
"","","","call-function","191","917407","0.0-191.0","opvszfeg","","","","","","","",""
"null","","","html-keyboard-response","192","918913","0.0-192.0","opvszfeg","","<span style=""color:Black; font-size:50px;"">Agent A","null","","","","",""
"null","","","video-keyboard-response","193","921993","0.0-193.0","opvszfeg","","","null","","Agent A","veridical","STIM_SET_2_144/285932.bmp_pp64_L1_V1.0_veridical_freeview_isoTrue_fps144.mp4",""
"null","","","html-keyboard-response","194","923498","0.0-194.0","opvszfeg","","<span style=""color:Black; font-size:50px;"">Agent B","null","","","","",""
"null","","","video-keyboard-response","195","926574","0.0-195.0","opvszfeg","","","null","","Agent B","scrambled","STIM_SET_5/285932.bmp_pp64_L1_V1.0_veridical_freeview_isoTrue_Hflip_fps144.mp4",""
"","","","call-function","196","926575","0.0-196.0","opvszfeg","","","","","","","",""
"1588.8250000000698","{""judgement"":0}","[0]","survey-likert","197","928165","0.0-197.0","opvszfeg","","","","","","","","0"
"1938.5149999998976","{""confidence"":2}","[0]","survey-likert","198","930105","0.0-198.0","opvszfeg","","","","","","","",""
"","","","call-function","199","930106","0.0-199.0","opvszfeg","","","","","","","",""
"null","","","html-keyboard-response","200","931609","0.0-200.0","opvszfeg","","<span style=""color:Black; font-size:50px;"">Agent A","null","","","","",""
"null","","","video-keyboard-response","201","934669","0.0-201.0","opvszfeg","","","null","","Agent A","scrambled","STIM_SET_5/1592047.bmp_pp51_L1_V1.0_veridical_freeview_isoTrue_Hflip_fps144.mp4",""
"null","","","html-keyboard-response","202","936174","0.0-202.0","opvszfeg","","<span style=""color:Black; font-size:50px;"">Agent B","null","","","","",""
"null","","","video-keyboard-response","203","939237","0.0-203.0","opvszfeg","","","null","","Agent B","veridical","STIM_SET_2_144/1592047.bmp_pp51_L1_V1.0_veridical_freeview_isoTrue_fps144.mp4",""
"","","","call-function","204","939238","0.0-204.0","opvszfeg","","","","","","","",""
"4277.084999999963","{""judgement"":1}","[0]","survey-likert","205","943516","0.0-205.0","opvszfeg","","","","","","","","1"
"3898.6149999999907","{""confidence"":2}","[0]","survey-likert","206","947416","0.0-206.0","opvszfeg","","","","","","","",""
"","","","call-function","207","947417","0.0-207.0","opvszfeg","","","","","","","",""
"null","","","html-keyboard-response","208","948920","0.0-208.0","opvszfeg","","<span style=""color:Black; font-size:50px;"">Agent A","null","","","","",""
"null","","","video-keyboard-response","209","951988","0.0-209.0","opvszfeg","","","null","","Agent A","veridical","STIM_SET_2_144/1159973.bmp_pp98_L1_V1.0_veridical_freeview_isoTrue_fps144.mp4",""
"null","","","html-keyboard-response","210","953494","0.0-210.0","opvszfeg","","<span style=""color:Black; font-size:50px;"">Agent B","null","","","","",""
"null","","","video-keyboard-response","211","956562","0.0-211.0","opvszfeg","","","null","","Agent B","scrambled","STIM_SET_5/1159973.bmp_pp98_L1_V1.0_veridical_freeview_isoTrue_Hflip_fps144.mp4",""
"","","","call-function","212","956563","0.0-212.0","opvszfeg","","","","","","","",""
"3940.564999999944","{""judgement"":0}","[0]","survey-likert","213","960505","0.0-213.0","opvszfeg","","","","","","","","0"
"1473.295000000042","{""confidence"":2}","[0]","survey-likert","214","961979","0.0-214.0","opvszfeg","","","","","","","",""
"","","","call-function","215","961980","0.0-215.0","opvszfeg","","","","","","","",""
"null","","","html-keyboard-response","216","963482","0.0-216.0","opvszfeg","","<span style=""color:Black; font-size:50px;"">Agent A","null","","","","",""
"null","","","video-keyboard-response","217","966564","0.0-217.0","opvszfeg","","","null","","Agent A","veridical","STIM_SET_2_144/498258.bmp_pp51_L1_V1.0_veridical_freeview_isoTrue_fps144.mp4",""
"null","","","html-keyboard-response","218","968066","0.0-218.0","opvszfeg","","<span style=""color:Black; font-size:50px;"">Agent B","null","","","","",""
"null","","","video-keyboard-response","219","971149","0.0-219.0","opvszfeg","","","null","","Agent B","scrambled","STIM_SET_5/498258.bmp_pp51_L1_V1.0_veridical_freeview_isoTrue_Hflip_fps144.mp4",""
"","","","call-function","220","971149","0.0-220.0","opvszfeg","","","","","","","",""
"4420.650000000023","{""judgement"":1}","[0]","survey-likert","221","975571","0.0-221.0","opvszfeg","","","","","","","","0"
"2053.9649999999674","{""confidence"":0}","[0]","survey-likert","222","977626","0.0-222.0","opvszfeg","","","","","","","",""
"","","","call-function","223","977627","0.0-223.0","opvszfeg","","","","","","","",""
"null","","","html-keyboard-response","224","979133","0.0-224.0","opvszfeg","","<span style=""color:Black; font-size:50px;"">Agent A","null","","","","",""
"null","","","video-keyboard-response","225","982214","0.0-225.0","opvszfeg","","","null","","Agent A","scrambled","STIM_SET_5/61513.bmp_pp75_L1_V1.0_veridical_freeview_isoTrue_Hflip_fps144.mp4",""
"null","","","html-keyboard-response","226","983717","0.0-226.0","opvszfeg","","<span style=""color:Black; font-size:50px;"">Agent B","null","","","","",""
"null","","","video-keyboard-response","227","986801","0.0-227.0","opvszfeg","","","null","","Agent B","veridical","STIM_SET_2_144/61513.bmp_pp75_L1_V1.0_veridical_freeview_isoTrue_fps144.mp4",""
"","","","call-function","228","986801","0.0-228.0","opvszfeg","","","","","","","",""
"3387.9150000000373","{""judgement"":0}","[0]","survey-likert","229","990190","0.0-229.0","opvszfeg","","","","","","","","1"
"1521.3800000000047","{""confidence"":2}","[0]","survey-likert","230","991713","0.0-230.0","opvszfeg","","","","","","","",""
"","","","call-function","231","991713","0.0-231.0","opvszfeg","","","","","","","",""
"null","","","html-keyboard-response","232","993215","0.0-232.0","opvszfeg","","<span style=""color:Black; font-size:50px;"">Agent A","null","","","","",""
"null","","","video-keyboard-response","233","996292","0.0-233.0","opvszfeg","","","null","","Agent A","veridical","STIM_SET_2_144/1160049.bmp_pp53_L2_V1.0_veridical_freeview_isoTrue_fps144.mp4",""
"null","","","html-keyboard-response","234","997796","0.0-234.0","opvszfeg","","<span style=""color:Black; font-size:50px;"">Agent B","null","","","","",""
"null","","","video-keyboard-response","235","1000857","0.0-235.0","opvszfeg","","","null","","Agent B","scrambled","STIM_SET_5/1160049.bmp_pp53_L2_V1.0_veridical_freeview_isoTrue_Hflip_fps144.mp4",""
"","","","call-function","236","1000858","0.0-236.0","opvszfeg","","","","","","","",""
"2202.7550000000047","{""judgement"":1}","[0]","survey-likert","237","1003061","0.0-237.0","opvszfeg","","","","","","","","0"
"1796.6800000000512","{""confidence"":0}","[0]","survey-likert","238","1004859","0.0-238.0","opvszfeg","","","","","","","",""
"","","","call-function","239","1004860","0.0-239.0","opvszfeg","","","","","","","",""
"null","","","html-keyboard-response","240","1006361","0.0-240.0","opvszfeg","","<span style=""color:Black; font-size:50px;"">Agent A","null","","","","",""
"null","","","video-keyboard-response","241","1009432","0.0-241.0","opvszfeg","","","null","","Agent A","veridical","STIM_SET_2_144/713788.bmp_pp52_L1_V1.0_veridical_freeview_isoTrue_fps144.mp4",""
"null","","","html-keyboard-response","242","1010934","0.0-242.0","opvszfeg","","<span style=""color:Black; font-size:50px;"">Agent B","null","","","","",""
"null","","","video-keyboard-response","243","1014018","0.0-243.0","opvszfeg","","","null","","Agent B","scrambled","STIM_SET_5/713788.bmp_pp52_L1_V1.0_veridical_freeview_isoTrue_Hflip_fps144.mp4",""
"","","","call-function","244","1014019","0.0-244.0","opvszfeg","","","","","","","",""
"2217.185000000056","{""judgement"":1}","[0]","survey-likert","245","1016237","0.0-245.0","opvszfeg","","","","","","","","0"
"1761.6199999999953","{""confidence"":0}","[0]","survey-likert","246","1018000","0.0-246.0","opvszfeg","","","","","","","",""
"","","","call-function","247","1018000","0.0-247.0","opvszfeg","","","","","","","",""
"null","","","html-keyboard-response","248","1019503","0.0-248.0","opvszfeg","","<span style=""color:Black; font-size:50px;"">Agent A","null","","","","",""
"null","","","video-keyboard-response","249","1022572","0.0-249.0","opvszfeg","","","null","","Agent A","veridical","STIM_SET_2_144/150277.bmp_pp65_L3_V1.0_veridical_freeview_isoTrue_fps144.mp4",""
"null","","","html-keyboard-response","250","1024076","0.0-250.0","opvszfeg","","<span style=""color:Black; font-size:50px;"">Agent B","null","","","","",""
"null","","","video-keyboard-response","251","1027145","0.0-251.0","opvszfeg","","","null","","Agent B","scrambled","STIM_SET_5/150277.bmp_pp65_L3_V1.0_veridical_freeview_isoTrue_Hflip_fps144.mp4",""
"","","","call-function","252","1027146","0.0-252.0","opvszfeg","","","","","","","",""
"2096.04999999993","{""judgement"":1}","[0]","survey-likert","253","1029244","0.0-253.0","opvszfeg","","","","","","","","0"
"2040.9650000000838","{""confidence"":2}","[0]","survey-likert","254","1031286","0.0-254.0","opvszfeg","","","","","","","",""
"3180.820000000065","","","instructions","255","1034468","0.0-255.0","opvszfeg","[{""page_index"":0,""viewing_time"":1641.890000000014},{""page_index"":1,""viewing_time"":748.8449999999721},{""page_index"":2,""viewing_time"":789.9250000000466}]","","","","","","",""
"2111.3249999999534","","","instructions","256","1036581","0.0-256.0","opvszfeg","[{""page_index"":0,""viewing_time"":594.1999999999534},{""page_index"":1,""viewing_time"":930.0050000000047},{""page_index"":2,""viewing_time"":586.9899999999907}]","","","","","","",""
"","","","call-function","257","1036582","0.0-257.0","opvszfeg","","","","","","","",""
"null","","","html-keyboard-response","258","1038089","0.0-258.0","opvszfeg","","<span style=""color:Black; font-size:50px;"">Agent A","null","","","","",""
"null","","","video-keyboard-response","259","1041158","0.0-259.0","opvszfeg","","","null","","Agent A","veridical","STIM_SET_2_144/1592025.bmp_pp68_L1_V1.0_veridical_freeview_isoTrue_fps144.mp4",""
"null","","","html-keyboard-response","260","1042661","0.0-260.0","opvszfeg","","<span style=""color:Black; font-size:50px;"">Agent B","null","","","","",""
"null","","","video-keyboard-response","261","1045734","0.0-261.0","opvszfeg","","","null","","Agent B","scrambled","STIM_SET_5/1592025.bmp_pp68_L1_V1.0_veridical_freeview_isoTrue_Hflip_fps144.mp4",""
"","","","call-function","262","1045735","0.0-262.0","opvszfeg","","","","","","","",""
"2035.2949999999255","{""judgement"":1}","[0]","survey-likert","263","1047771","0.0-263.0","opvszfeg","","","","","","","","0"
"1392.719999999972","{""confidence"":2}","[0]","survey-likert","264","1049165","0.0-264.0","opvszfeg","","","","","","","",""
"","","","call-function","265","1049166","0.0-265.0","opvszfeg","","","","","","","",""
"null","","","html-keyboard-response","266","1050669","0.0-266.0","opvszfeg","","<span style=""color:Black; font-size:50px;"">Agent A","null","","","","",""
"null","","","video-keyboard-response","267","1053736","0.0-267.0","opvszfeg","","","null","","Agent A","veridical","STIM_SET_2_144/1592298.bmp_pp56_L3_V1.0_veridical_freeview_isoTrue_fps144.mp4",""
"null","","","html-keyboard-response","268","1055241","0.0-268.0","opvszfeg","","<span style=""color:Black; font-size:50px;"">Agent B","null","","","","",""
"null","","","video-keyboard-response","269","1058311","0.0-269.0","opvszfeg","","","null","","Agent B","scrambled","STIM_SET_5/1592298.bmp_pp56_L3_V1.0_veridical_freeview_isoTrue_Hflip_fps144.mp4",""
"","","","call-function","270","1058311","0.0-270.0","opvszfeg","","","","","","","",""
"2037.6999999999534","{""judgement"":0}","[0]","survey-likert","271","1060351","0.0-271.0","opvszfeg","","","","","","","","0"
"1671.6200000001118","{""confidence"":2}","[0]","survey-likert","272","1062024","0.0-272.0","opvszfeg","","","","","","","",""
"","","","call-function","273","1062024","0.0-273.0","opvszfeg","","","","","","","",""
"null","","","html-keyboard-response","274","1063530","0.0-274.0","opvszfeg","","<span style=""color:Black; font-size:50px;"">Agent A","null","","","","",""
"null","","","video-keyboard-response","275","1066609","0.0-275.0","opvszfeg","","","null","","Agent A","veridical","STIM_SET_2_144/1159860.bmp_pp152_L2_V1.0_veridical_freeview_isoTrue_fps144.mp4",""
"null","","","html-keyboard-response","276","1068114","0.0-276.0","opvszfeg","","<span style=""color:Black; font-size:50px;"">Agent B","null","","","","",""
"null","","","video-keyboard-response","277","1071190","0.0-277.0","opvszfeg","","","null","","Agent B","scrambled","STIM_SET_5/1159860.bmp_pp152_L2_V1.0_veridical_freeview_isoTrue_Hflip_fps144.mp4",""
"","","","call-function","278","1071191","0.0-278.0","opvszfeg","","","","","","","",""
"1763.089999999851","{""judgement"":0}","[0]","survey-likert","279","1072954","0.0-279.0","opvszfeg","","","","","","","","0"
"1380.255000000121","{""confidence"":1}","[0]","survey-likert","280","1074336","0.0-280.0","opvszfeg","","","","","","","",""
"","","","call-function","281","1074337","0.0-281.0","opvszfeg","","","","","","","",""
"null","","","html-keyboard-response","282","1075839","0.0-282.0","opvszfeg","","<span style=""color:Black; font-size:50px;"">Agent A","null","","","","",""
"null","","","video-keyboard-response","283","1078917","0.0-283.0","opvszfeg","","","null","","Agent A","veridical","STIM_SET_2_144/286034.bmp_pp69_L3_V1.0_veridical_freeview_isoTrue_fps144.mp4",""
"null","","","html-keyboard-response","284","1080420","0.0-284.0","opvszfeg","","<span style=""color:Black; font-size:50px;"">Agent B","null","","","","",""
"null","","","video-keyboard-response","285","1083496","0.0-285.0","opvszfeg","","","null","","Agent B","scrambled","STIM_SET_5/286034.bmp_pp69_L3_V1.0_veridical_freeview_isoTrue_Hflip_fps144.mp4",""
"","","","call-function","286","1083496","0.0-286.0","opvszfeg","","","","","","","",""
"2014.594999999972","{""judgement"":1}","[0]","survey-likert","287","1085512","0.0-287.0","opvszfeg","","","","","","","","0"
"2304.6200000001118","{""confidence"":3}","[0]","survey-likert","288","1087818","0.0-288.0","opvszfeg","","","","","","","",""
"","","","call-function","289","1087818","0.0-289.0","opvszfeg","","","","","","","",""
"null","","","html-keyboard-response","290","1089321","0.0-290.0","opvszfeg","","<span style=""color:Black; font-size:50px;"">Agent A","null","","","","",""
"null","","","video-keyboard-response","291","1092403","0.0-291.0","opvszfeg","","","null","","Agent A","scrambled","STIM_SET_5/1159819.bmp_pp151_L1_V1.0_veridical_freeview_isoTrue_Hflip_fps144.mp4",""
"null","","","html-keyboard-response","292","1093905","0.0-292.0","opvszfeg","","<span style=""color:Black; font-size:50px;"">Agent B","null","","","","",""
"null","","","video-keyboard-response","293","1096990","0.0-293.0","opvszfeg","","","null","","Agent B","veridical","STIM_SET_2_144/1159819.bmp_pp151_L1_V1.0_veridical_freeview_isoTrue_fps144.mp4",""
"","","","call-function","294","1096991","0.0-294.0","opvszfeg","","","","","","","",""
"1844.1049999999814","{""judgement"":0}","[0]","survey-likert","295","1098835","0.0-295.0","opvszfeg","","","","","","","","1"
"2005.9899999999907","{""confidence"":2}","[0]","survey-likert","296","1100843","0.0-296.0","opvszfeg","","","","","","","",""
"","","","call-function","297","1100843","0.0-297.0","opvszfeg","","","","","","","",""
"null","","","html-keyboard-response","298","1102348","0.0-298.0","opvszfeg","","<span style=""color:Black; font-size:50px;"">Agent A","null","","","","",""
"null","","","video-keyboard-response","299","1105424","0.0-299.0","opvszfeg","","","null","","Agent A","scrambled","STIM_SET_5/1592038.bmp_pp79_L2_V1.0_veridical_freeview_isoTrue_Hflip_fps144.mp4",""
"null","","","html-keyboard-response","300","1106928","0.0-300.0","opvszfeg","","<span style=""color:Black; font-size:50px;"">Agent B","null","","","","",""
"null","","","video-keyboard-response","301","1110005","0.0-301.0","opvszfeg","","","null","","Agent B","veridical","STIM_SET_2_144/1592038.bmp_pp79_L2_V1.0_veridical_freeview_isoTrue_fps144.mp4",""
"","","","call-function","302","1110005","0.0-302.0","opvszfeg","","","","","","","",""
"2133.405000000028","{""judgement"":1}","[0]","survey-likert","303","1112140","0.0-303.0","opvszfeg","","","","","","","","1"
"2062.2949999999255","{""confidence"":3}","[0]","survey-likert","304","1114203","0.0-304.0","opvszfeg","","","","","","","",""
"","","","call-function","305","1114204","0.0-305.0","opvszfeg","","","","","","","",""
"null","","","html-keyboard-response","306","1115705","0.0-306.0","opvszfeg","","<span style=""color:Black; font-size:50px;"">Agent A","null","","","","",""
"null","","","video-keyboard-response","307","1118778","0.0-307.0","opvszfeg","","","null","","Agent A","veridical","STIM_SET_2_144/1592350.bmp_pp55_L3_V1.0_veridical_freeview_isoTrue_fps144.mp4",""
"null","","","html-keyboard-response","308","1120283","0.0-308.0","opvszfeg","","<span style=""color:Black; font-size:50px;"">Agent B","null","","","","",""
"null","","","video-keyboard-response","309","1123356","0.0-309.0","opvszfeg","","","null","","Agent B","scrambled","STIM_SET_5/1592350.bmp_pp55_L3_V1.0_veridical_freeview_isoTrue_Hflip_fps144.mp4",""
"","","","call-function","310","1123357","0.0-310.0","opvszfeg","","","","","","","",""
"2398.659999999916","{""judgement"":0}","[0]","survey-likert","311","1125756","0.0-311.0","opvszfeg","","","","","","","","0"
"1465.9199999999255","{""confidence"":0}","[0]","survey-likert","312","1127223","0.0-312.0","opvszfeg","","","","","","","",""
"","","","call-function","313","1127224","0.0-313.0","opvszfeg","","","","","","","",""
"null","","","html-keyboard-response","314","1128729","0.0-314.0","opvszfeg","","<span style=""color:Black; font-size:50px;"">Agent A","null","","","","",""
"null","","","video-keyboard-response","315","1131807","0.0-315.0","opvszfeg","","","null","","Agent A","veridical","STIM_SET_2_144/1159427.bmp_pp98_L1_V1.0_veridical_freeview_isoTrue_fps144.mp4",""
"null","","","html-keyboard-response","316","1133310","0.0-316.0","opvszfeg","","<span style=""color:Black; font-size:50px;"">Agent B","null","","","","",""
"null","","","video-keyboard-response","317","1136389","0.0-317.0","opvszfeg","","","null","","Agent B","scrambled","STIM_SET_5/1159427.bmp_pp98_L1_V1.0_veridical_freeview_isoTrue_Hflip_fps144.mp4",""
"","","","call-function","318","1136390","0.0-318.0","opvszfeg","","","","","","","",""
"2614.350000000093","{""judgement"":1}","[0]","survey-likert","319","1139006","0.0-319.0","opvszfeg","","","","","","","","0"
"2308.7900000000373","{""confidence"":0}","[0]","survey-likert","320","1141316","0.0-320.0","opvszfeg","","","","","","","",""
"","","","call-function","321","1141316","0.0-321.0","opvszfeg","","","","","","","",""
"null","","","html-keyboard-response","322","1142820","0.0-322.0","opvszfeg","","<span style=""color:Black; font-size:50px;"">Agent A","null","","","","",""
"null","","","video-keyboard-response","323","1145907","0.0-323.0","opvszfeg","","","null","","Agent A","scrambled","STIM_SET_5/1592289.bmp_pp92_L3_V1.0_veridical_freeview_isoTrue_Hflip_fps144.mp4",""
"null","","","html-keyboard-response","324","1147410","0.0-324.0","opvszfeg","","<span style=""color:Black; font-size:50px;"">Agent B","null","","","","",""
"null","","","video-keyboard-response","325","1150479","0.0-325.0","opvszfeg","","","null","","Agent B","veridical","STIM_SET_2_144/1592289.bmp_pp92_L3_V1.0_veridical_freeview_isoTrue_fps144.mp4",""
"","","","call-function","326","1150480","0.0-326.0","opvszfeg","","","","","","","",""
"2028.3950000000186","{""judgement"":1}","[0]","survey-likert","327","1152510","0.0-327.0","opvszfeg","","","","","","","","1"
"1540.5","{""confidence"":2}","[0]","survey-likert","328","1154052","0.0-328.0","opvszfeg","","","","","","","",""
"","","","call-function","329","1154053","0.0-329.0","opvszfeg","","","","","","","",""
"null","","","html-keyboard-response","330","1155556","0.0-330.0","opvszfeg","","<span style=""color:Black; font-size:50px;"">Agent A","null","","","","",""
"null","","","video-keyboard-response","331","1158624","0.0-331.0","opvszfeg","","","null","","Agent A","veridical","STIM_SET_2_144/1159956.bmp_pp59_L3_V1.0_veridical_freeview_isoTrue_fps144.mp4",""
"null","","","html-keyboard-response","332","1160128","0.0-332.0","opvszfeg","","<span style=""color:Black; font-size:50px;"">Agent B","null","","","","",""
"null","","","video-keyboard-response","333","1163197","0.0-333.0","opvszfeg","","","null","","Agent B","scrambled","STIM_SET_5/1159956.bmp_pp59_L3_V1.0_veridical_freeview_isoTrue_Hflip_fps144.mp4",""
"","","","call-function","334","1163197","0.0-334.0","opvszfeg","","","","","","","",""
"1802.5700000000652","{""judgement"":0}","[0]","survey-likert","335","1165001","0.0-335.0","opvszfeg","","","","","","","","0"
"1608.8850000000093","{""confidence"":2}","[0]","survey-likert","336","1166611","0.0-336.0","opvszfeg","","","","","","","",""
"2773.024999999907","","","instructions","337","1169385","0.0-337.0","opvszfeg","[{""page_index"":0,""viewing_time"":1347.0349999999162},{""page_index"":1,""viewing_time"":657.8249999999534},{""page_index"":2,""viewing_time"":768.0150000001304}]","","","","","","",""
"3604.409999999916","","","instructions","338","1172990","0.0-338.0","opvszfeg","[{""page_index"":0,""viewing_time"":1346.3049999999348},{""page_index"":1,""viewing_time"":1123.9350000000559},{""page_index"":2,""viewing_time"":1134.0649999999441}]","","","","","","",""
"","","","call-function","339","1172991","0.0-339.0","opvszfeg","","","","","","","",""
"null","","","html-keyboard-response","340","1174497","0.0-340.0","opvszfeg","","<span style=""color:Black; font-size:50px;"">Agent A","null","","","","",""
"null","","","video-keyboard-response","341","1177574","0.0-341.0","opvszfeg","","","null","","Agent A","scrambled","STIM_SET_5/1159592.bmp_pp91_L3_V1.0_veridical_freeview_isoTrue_Hflip_fps144.mp4",""
"null","","","html-keyboard-response","342","1179079","0.0-342.0","opvszfeg","","<span style=""color:Black; font-size:50px;"">Agent B","null","","","","",""
"null","","","video-keyboard-response","343","1182170","0.0-343.0","opvszfeg","","","null","","Agent B","veridical","STIM_SET_2_144/1159592.bmp_pp91_L3_V1.0_veridical_freeview_isoTrue_fps144.mp4",""
"","","","call-function","344","1182170","0.0-344.0","opvszfeg","","","","","","","",""
"1821.0049999998882","{""judgement"":0}","[0]","survey-likert","345","1183992","0.0-345.0","opvszfeg","","","","","","","","1"
"1667.7849999999162","{""confidence"":2}","[0]","survey-likert","346","1185661","0.0-346.0","opvszfeg","","","","","","","",""
"","","","call-function","347","1185662","0.0-347.0","opvszfeg","","","","","","","",""
"null","","","html-keyboard-response","348","1187163","0.0-348.0","opvszfeg","","<span style=""color:Black; font-size:50px;"">Agent A","null","","","","",""
"null","","","video-keyboard-response","349","1190263","0.0-349.0","opvszfeg","","","null","","Agent A","scrambled","STIM_SET_5/498025.bmp_pp81_L1_V1.0_veridical_freeview_isoTrue_Hflip_fps144.mp4",""
"null","","","html-keyboard-response","350","1191768","0.0-350.0","opvszfeg","","<span style=""color:Black; font-size:50px;"">Agent B","null","","","","",""
"null","","","video-keyboard-response","351","1194865","0.0-351.0","opvszfeg","","","null","","Agent B","veridical","STIM_SET_2_144/498025.bmp_pp81_L1_V1.0_veridical_freeview_isoTrue_fps144.mp4",""
"","","","call-function","352","1194866","0.0-352.0","opvszfeg","","","","","","","",""
"2960.094999999972","{""judgement"":0}","[0]","survey-likert","353","1197827","0.0-353.0","opvszfeg","","","","","","","","1"
"1315.7900000000373","{""confidence"":1}","[0]","survey-likert","354","1199144","0.0-354.0","opvszfeg","","","","","","","",""
"","","","call-function","355","1199145","0.0-355.0","opvszfeg","","","","","","","",""
"null","","","html-keyboard-response","356","1200647","0.0-356.0","opvszfeg","","<span style=""color:Black; font-size:50px;"">Agent A","null","","","","",""
"null","","","video-keyboard-response","357","1203731","0.0-357.0","opvszfeg","","","null","","Agent A","veridical","STIM_SET_2_144/1160204.bmp_pp54_L2_V1.0_veridical_freeview_isoTrue_fps144.mp4",""
"null","","","html-keyboard-response","358","1205233","0.0-358.0","opvszfeg","","<span style=""color:Black; font-size:50px;"">Agent B","null","","","","",""
"null","","","video-keyboard-response","359","1208316","0.0-359.0","opvszfeg","","","null","","Agent B","scrambled","STIM_SET_5/1160204.bmp_pp54_L2_V1.0_veridical_freeview_isoTrue_Hflip_fps144.mp4",""
"","","","call-function","360","1208316","0.0-360.0","opvszfeg","","","","","","","",""
"1882.7650000001304","{""judgement"":1}","[0]","survey-likert","361","1210200","0.0-361.0","opvszfeg","","","","","","","","0"
"1846.1500000001397","{""confidence"":0}","[0]","survey-likert","362","1212047","0.0-362.0","opvszfeg","","","","","","","",""
"","","","call-function","363","1212048","0.0-363.0","opvszfeg","","","","","","","",""
"null","","","html-keyboard-response","364","1213550","0.0-364.0","opvszfeg","","<span style=""color:Black; font-size:50px;"">Agent A","null","","","","",""
"null","","","video-keyboard-response","365","1216609","0.0-365.0","opvszfeg","","","null","","Agent A","scrambled","STIM_SET_5/1592129.bmp_pp153_L3_V1.0_veridical_freeview_isoTrue_Hflip_fps144.mp4",""
"null","","","html-keyboard-response","366","1218114","0.0-366.0","opvszfeg","","<span style=""color:Black; font-size:50px;"">Agent B","null","","","","",""
"null","","","video-keyboard-response","367","1221191","0.0-367.0","opvszfeg","","","null","","Agent B","veridical","STIM_SET_2_144/1592129.bmp_pp153_L3_V1.0_veridical_freeview_isoTrue_fps144.mp4",""
"","","","call-function","368","1221192","0.0-368.0","opvszfeg","","","","","","","",""
"2095.219999999972","{""judgement"":0}","[0]","survey-likert","369","1223288","0.0-369.0","opvszfeg","","","","","","","","1"
"1343.2250000000931","{""confidence"":2}","[0]","survey-likert","370","1224632","0.0-370.0","opvszfeg","","","","","","","",""
"","","","call-function","371","1224633","0.0-371.0","opvszfeg","","","","","","","",""
"null","","","html-keyboard-response","372","1226134","0.0-372.0","opvszfeg","","<span style=""color:Black; font-size:50px;"">Agent A","null","","","","",""
"null","","","video-keyboard-response","373","1229195","0.0-373.0","opvszfeg","","","null","","Agent A","scrambled","STIM_SET_5/285684.bmp_pp80_L3_V1.0_veridical_freeview_isoTrue_Hflip_fps144.mp4",""
"null","","","html-keyboard-response","374","1230697","0.0-374.0","opvszfeg","","<span style=""color:Black; font-size:50px;"">Agent B","null","","","","",""
"null","","","video-keyboard-response","375","1233758","0.0-375.0","opvszfeg","","","null","","Agent B","veridical","STIM_SET_2_144/285684.bmp_pp80_L3_V1.0_veridical_freeview_isoTrue_fps144.mp4",""
"","","","call-function","376","1233759","0.0-376.0","opvszfeg","","","","","","","",""
"1542.5900000000838","{""judgement"":1}","[0]","survey-likert","377","1235302","0.0-377.0","opvszfeg","","","","","","","","1"
"2087.0849999999627","{""confidence"":3}","[0]","survey-likert","378","1237391","0.0-378.0","opvszfeg","","","","","","","",""
"","","","call-function","379","1237391","0.0-379.0","opvszfeg","","","","","","","",""
"null","","","html-keyboard-response","380","1238893","0.0-380.0","opvszfeg","","<span style=""color:Black; font-size:50px;"">Agent A","null","","","","",""
"null","","","video-keyboard-response","381","1241957","0.0-381.0","opvszfeg","","","null","","Agent A","scrambled","STIM_SET_5/1592951.bmp_pp80_L3_V1.0_veridical_freeview_isoTrue_Hflip_fps144.mp4",""
"null","","","html-keyboard-response","382","1243459","0.0-382.0","opvszfeg","","<span style=""color:Black; font-size:50px;"">Agent B","null","","","","",""
"null","","","video-keyboard-response","383","1246536","0.0-383.0","opvszfeg","","","null","","Agent B","veridical","STIM_SET_2_144/1592951.bmp_pp80_L3_V1.0_veridical_freeview_isoTrue_fps144.mp4",""
"","","","call-function","384","1246537","0.0-384.0","opvszfeg","","","","","","","",""
"2491.1399999998976","{""judgement"":1}","[0]","survey-likert","385","1249029","0.0-385.0","opvszfeg","","","","","","","","1"
"1779.655000000028","{""confidence"":2}","[0]","survey-likert","386","1250811","0.0-386.0","opvszfeg","","","","","","","",""
"","","","call-function","387","1250812","0.0-387.0","opvszfeg","","","","","","","",""
"null","","","html-keyboard-response","388","1252314","0.0-388.0","opvszfeg","","<span style=""color:Black; font-size:50px;"">Agent A","null","","","","",""
"null","","","video-keyboard-response","389","1255390","0.0-389.0","opvszfeg","","","null","","Agent A","veridical","STIM_SET_2_144/713858.bmp_pp57_L1_V1.0_veridical_freeview_isoTrue_fps144.mp4",""
"null","","","html-keyboard-response","390","1256894","0.0-390.0","opvszfeg","","<span style=""color:Black; font-size:50px;"">Agent B","null","","","","",""
"null","","","video-keyboard-response","391","1259969","0.0-391.0","opvszfeg","","","null","","Agent B","scrambled","STIM_SET_5/713858.bmp_pp57_L1_V1.0_veridical_freeview_isoTrue_Hflip_fps144.mp4",""
"","","","call-function","392","1259970","0.0-392.0","opvszfeg","","","","","","","",""
"1638.2650000001304","{""judgement"":1}","[0]","survey-likert","393","1261609","0.0-393.0","opvszfeg","","","","","","","","0"
"1924.9450000000652","{""confidence"":2}","[0]","survey-likert","394","1263536","0.0-394.0","opvszfeg","","","","","","","",""
"","","","call-function","395","1263537","0.0-395.0","opvszfeg","","","","","","","",""
"null","","","html-keyboard-response","396","1265040","0.0-396.0","opvszfeg","","<span style=""color:Black; font-size:50px;"">Agent A","null","","","","",""
"null","","","video-keyboard-response","397","1268111","0.0-397.0","opvszfeg","","","null","","Agent A","veridical","STIM_SET_2_144/1159508.bmp_pp151_L1_V1.0_veridical_freeview_isoTrue_fps144.mp4",""
"null","","","html-keyboard-response","398","1269618","0.0-398.0","opvszfeg","","<span style=""color:Black; font-size:50px;"">Agent B","null","","","","",""
"null","","","video-keyboard-response","399","1272688","0.0-399.0","opvszfeg","","","null","","Agent B","scrambled","STIM_SET_5/1159508.bmp_pp151_L1_V1.0_veridical_freeview_isoTrue_Hflip_fps144.mp4",""
"","","","call-function","400","1272689","0.0-400.0","opvszfeg","","","","","","","",""
"1942.155000000028","{""judgement"":1}","[0]","survey-likert","401","1274632","0.0-401.0","opvszfeg","","","","","","","","0"
"1901.155000000028","{""confidence"":2}","[0]","survey-likert","402","1276534","0.0-402.0","opvszfeg","","","","","","","",""
"","","","call-function","403","1276535","0.0-403.0","opvszfeg","","","","","","","",""
"null","","","html-keyboard-response","404","1278036","0.0-404.0","opvszfeg","","<span style=""color:Black; font-size:50px;"">Agent A","null","","","","",""
"null","","","video-keyboard-response","405","1281112","0.0-405.0","opvszfeg","","","null","","Agent A","veridical","STIM_SET_2_144/1591975.bmp_pp88_L2_V1.0_veridical_freeview_isoTrue_fps144.mp4",""
"null","","","html-keyboard-response","406","1282618","0.0-406.0","opvszfeg","","<span style=""color:Black; font-size:50px;"">Agent B","null","","","","",""
"null","","","video-keyboard-response","407","1285697","0.0-407.0","opvszfeg","","","null","","Agent B","scrambled","STIM_SET_5/1591975.bmp_pp88_L2_V1.0_veridical_freeview_isoTrue_Hflip_fps144.mp4",""
"","","","call-function","408","1285697","0.0-408.0","opvszfeg","","","","","","","",""
"1666.6599999999162","{""judgement"":0}","[0]","survey-likert","409","1287365","0.0-409.0","opvszfeg","","","","","","","","0"
"1820.1750000000466","{""confidence"":0}","[0]","survey-likert","410","1289187","0.0-410.0","opvszfeg","","","","","","","",""
"","","","call-function","411","1289188","0.0-411.0","opvszfeg","","","","","","","",""
"null","","","html-keyboard-response","412","1290692","0.0-412.0","opvszfeg","","<span style=""color:Black; font-size:50px;"">Agent A","null","","","","",""
"null","","","video-keyboard-response","413","1293771","0.0-413.0","opvszfeg","","","null","","Agent A","veridical","STIM_SET_2_144/1592150.bmp_pp77_L3_V1.0_veridical_freeview_isoTrue_fps144.mp4",""
"null","","","html-keyboard-response","414","1295273","0.0-414.0","opvszfeg","","<span style=""color:Black; font-size:50px;"">Agent B","null","","","","",""
"null","","","video-keyboard-response","415","1298351","0.0-415.0","opvszfeg","","","null","","Agent B","scrambled","STIM_SET_5/1592150.bmp_pp77_L3_V1.0_veridical_freeview_isoTrue_Hflip_fps144.mp4",""
"","","","call-function","416","1298352","0.0-416.0","opvszfeg","","","","","","","",""
"2049.695000000065","{""judgement"":1}","[0]","survey-likert","417","1300402","0.0-417.0","opvszfeg","","","","","","","","0"
"1351.755000000121","{""confidence"":2}","[0]","survey-likert","418","1301755","0.0-418.0","opvszfeg","","","","","","","",""
"5801.255000000121","","","instructions","419","1307557","0.0-419.0","opvszfeg","[{""page_index"":0,""viewing_time"":1643.6999999999534},{""page_index"":1,""viewing_time"":2540.8850000000093},{""page_index"":2,""viewing_time"":1616.5150000001304}]","","","","","","",""
"4075.8599999998696","","","instructions","420","1311634","0.0-420.0","opvszfeg","[{""page_index"":0,""viewing_time"":1403.7399999999907},{""page_index"":1,""viewing_time"":1403.029999999795},{""page_index"":2,""viewing_time"":1268.9800000002142}]","","","","","","",""
"","","","call-function","421","1311634","0.0-421.0","opvszfeg","","","","","","","",""
"null","","","html-keyboard-response","422","1313136","0.0-422.0","opvszfeg","","<span style=""color:Black; font-size:50px;"">Agent A","null","","","","",""
"null","","","video-keyboard-response","423","1316225","0.0-423.0","opvszfeg","","","null","","Agent A","scrambled","STIM_SET_5/285959.bmp_pp93_L1_V1.0_veridical_freeview_isoTrue_Hflip_fps144.mp4",""
"null","","","html-keyboard-response","424","1317731","0.0-424.0","opvszfeg","","<span style=""color:Black; font-size:50px;"">Agent B","null","","","","",""
"null","","","video-keyboard-response","425","1320806","0.0-425.0","opvszfeg","","","null","","Agent B","veridical","STIM_SET_2_144/285959.bmp_pp93_L1_V1.0_veridical_freeview_isoTrue_fps144.mp4",""
"","","","call-function","426","1320807","0.0-426.0","opvszfeg","","","","","","","",""
"2005.6899999999441","{""judgement"":0}","[0]","survey-likert","427","1322813","0.0-427.0","opvszfeg","","","","","","","","1"
"1534.3649999999907","{""confidence"":0}","[0]","survey-likert","428","1324349","0.0-428.0","opvszfeg","","","","","","","",""
"","","","call-function","429","1324350","0.0-429.0","opvszfeg","","","","","","","",""
"null","","","html-keyboard-response","430","1325852","0.0-430.0","opvszfeg","","<span style=""color:Black; font-size:50px;"">Agent A","null","","","","",""
"null","","","video-keyboard-response","431","1328919","0.0-431.0","opvszfeg","","","null","","Agent A","scrambled","STIM_SET_5/713274.bmp_pp73_L3_V1.0_veridical_freeview_isoTrue_Hflip_fps144.mp4",""
"null","","","html-keyboard-response","432","1330427","0.0-432.0","opvszfeg","","<span style=""color:Black; font-size:50px;"">Agent B","null","","","","",""
"null","","","video-keyboard-response","433","1333496","0.0-433.0","opvszfeg","","","null","","Agent B","veridical","STIM_SET_2_144/713274.bmp_pp73_L3_V1.0_veridical_freeview_isoTrue_fps144.mp4",""
"","","","call-function","434","1333497","0.0-434.0","opvszfeg","","","","","","","",""
"1877.530000000028","{""judgement"":1}","[0]","survey-likert","435","1335375","0.0-435.0","opvszfeg","","","","","","","","1"
"1135.0699999998324","{""confidence"":1}","[0]","survey-likert","436","1336512","0.0-436.0","opvszfeg","","","","","","","",""
"","","","call-function","437","1336512","0.0-437.0","opvszfeg","","","","","","","",""
"null","","","html-keyboard-response","438","1338017","0.0-438.0","opvszfeg","","<span style=""color:Black; font-size:50px;"">Agent A","null","","","","",""
"null","","","video-keyboard-response","439","1341083","0.0-439.0","opvszfeg","","","null","","Agent A","veridical","STIM_SET_2_144/1159325.bmp_pp67_L2_V1.0_veridical_freeview_isoTrue_fps144.mp4",""
"null","","","html-keyboard-response","440","1342588","0.0-440.0","opvszfeg","","<span style=""color:Black; font-size:50px;"">Agent B","null","","","","",""
"null","","","video-keyboard-response","441","1345666","0.0-441.0","opvszfeg","","","null","","Agent B","scrambled","STIM_SET_5/1159325.bmp_pp67_L2_V1.0_veridical_freeview_isoTrue_Hflip_fps144.mp4",""
"","","","call-function","442","1345667","0.0-442.0","opvszfeg","","","","","","","",""
"2020.1999999999534","{""judgement"":0}","[0]","survey-likert","443","1347688","0.0-443.0","opvszfeg","","","","","","","","0"
"1619.3950000000186","{""confidence"":2}","[0]","survey-likert","444","1349308","0.0-444.0","opvszfeg","","","","","","","",""
"","","","call-function","445","1349309","0.0-445.0","opvszfeg","","","","","","","",""
"null","","","html-keyboard-response","446","1350816","0.0-446.0","opvszfeg","","<span style=""color:Black; font-size:50px;"">Agent A","null","","","","",""
"null","","","video-keyboard-response","447","1353905","0.0-447.0","opvszfeg","","","null","","Agent A","scrambled","STIM_SET_5/1592568.bmp_pp71_L1_V1.0_veridical_freeview_isoTrue_Hflip_fps144.mp4",""
"null","","","html-keyboard-response","448","1355410","0.0-448.0","opvszfeg","","<span style=""color:Black; font-size:50px;"">Agent B","null","","","","",""
"null","","","video-keyboard-response","449","1358503","0.0-449.0","opvszfeg","","","null","","Agent B","veridical","STIM_SET_2_144/1592568.bmp_pp71_L1_V1.0_veridical_freeview_isoTrue_fps144.mp4",""
"","","","call-function","450","1358503","0.0-450.0","opvszfeg","","","","","","","",""
"2694.054999999935","{""judgement"":1}","[0]","survey-likert","451","1361198","0.0-451.0","opvszfeg","","","","","","","","1"
"1732.8600000001024","{""confidence"":0}","[0]","survey-likert","452","1362932","0.0-452.0","opvszfeg","","","","","","","",""
"","","","call-function","453","1362933","0.0-453.0","opvszfeg","","","","","","","",""
"null","","","html-keyboard-response","454","1364436","0.0-454.0","opvszfeg","","<span style=""color:Black; font-size:50px;"">Agent A","null","","","","",""
"null","","","video-keyboard-response","455","1367521","0.0-455.0","opvszfeg","","","null","","Agent A","veridical","STIM_SET_2_144/498396.bmp_pp99_L2_V1.0_veridical_freeview_isoTrue_fps144.mp4",""
"null","","","html-keyboard-response","456","1369023","0.0-456.0","opvszfeg","","<span style=""color:Black; font-size:50px;"">Agent B","null","","","","",""
"null","","","video-keyboard-response","457","1372106","0.0-457.0","opvszfeg","","","null","","Agent B","scrambled","STIM_SET_5/498396.bmp_pp99_L2_V1.0_veridical_freeview_isoTrue_Hflip_fps144.mp4",""
"","","","call-function","458","1372106","0.0-458.0","opvszfeg","","","","","","","",""
"2099.185000000056","{""judgement"":0}","[0]","survey-likert","459","1374206","0.0-459.0","opvszfeg","","","","","","","","0"
"3511.309999999823","{""confidence"":0}","[0]","survey-likert","460","1377719","0.0-460.0","opvszfeg","","","","","","","",""
"","","","call-function","461","1377720","0.0-461.0","opvszfeg","","","","","","","",""
"null","","","html-keyboard-response","462","1379247","0.0-462.0","opvszfeg","","<span style=""color:Black; font-size:50px;"">Agent A","null","","","","",""
"null","","","video-keyboard-response","463","1382321","0.0-463.0","opvszfeg","","","null","","Agent A","veridical","STIM_SET_2_144/1592017.bmp_pp154_L1_V1.0_veridical_freeview_isoTrue_fps144.mp4",""
"null","","","html-keyboard-response","464","1383827","0.0-464.0","opvszfeg","","<span style=""color:Black; font-size:50px;"">Agent B","null","","","","",""
"null","","","video-keyboard-response","465","1386893","0.0-465.0","opvszfeg","","","null","","Agent B","scrambled","STIM_SET_5/1592017.bmp_pp154_L1_V1.0_veridical_freeview_isoTrue_Hflip_fps144.mp4",""
"","","","call-function","466","1386895","0.0-466.0","opvszfeg","","","","","","","",""
"2062.0149999998976","{""judgement"":0}","[0]","survey-likert","467","1388958","0.0-467.0","opvszfeg","","","","","","","","0"
"1749.125","{""confidence"":2}","[0]","survey-likert","468","1390709","0.0-468.0","opvszfeg","","","","","","","",""
"","","","call-function","469","1390710","0.0-469.0","opvszfeg","","","","","","","",""
"null","","","html-keyboard-response","470","1392216","0.0-470.0","opvszfeg","","<span style=""color:Black; font-size:50px;"">Agent A","null","","","","",""
"null","","","video-keyboard-response","471","1395278","0.0-471.0","opvszfeg","","","null","","Agent A","scrambled","STIM_SET_5/498398.bmp_pp81_L1_V1.0_veridical_freeview_isoTrue_Hflip_fps144.mp4",""
"null","","","html-keyboard-response","472","1396781","0.0-472.0","opvszfeg","","<span style=""color:Black; font-size:50px;"">Agent B","null","","","","",""
"null","","","video-keyboard-response","473","1399842","0.0-473.0","opvszfeg","","","null","","Agent B","veridical","STIM_SET_2_144/498398.bmp_pp81_L1_V1.0_veridical_freeview_isoTrue_fps144.mp4",""
"","","","call-function","474","1399843","0.0-474.0","opvszfeg","","","","","","","",""
"1819.9799999999814","{""judgement"":1}","[0]","survey-likert","475","1401664","0.0-475.0","opvszfeg","","","","","","","","1"
"1974.5600000000559","{""confidence"":0}","[0]","survey-likert","476","1403640","0.0-476.0","opvszfeg","","","","","","","",""
"","","","call-function","477","1403641","0.0-477.0","opvszfeg","","","","","","","",""
"null","","","html-keyboard-response","478","1405146","0.0-478.0","opvszfeg","","<span style=""color:Black; font-size:50px;"">Agent A","null","","","","",""
"null","","","video-keyboard-response","479","1408206","0.0-479.0","opvszfeg","","","null","","Agent A","scrambled","STIM_SET_5/1592044.bmp_pp94_L2_V1.0_veridical_freeview_isoTrue_Hflip_fps144.mp4",""
"null","","","html-keyboard-response","480","1409709","0.0-480.0","opvszfeg","","<span style=""color:Black; font-size:50px;"">Agent B","null","","","","",""
"null","","","video-keyboard-response","481","1412784","0.0-481.0","opvszfeg","","","null","","Agent B","veridical","STIM_SET_2_144/1592044.bmp_pp94_L2_V1.0_veridical_freeview_isoTrue_fps144.mp4",""
"","","","call-function","482","1412784","0.0-482.0","opvszfeg","","","","","","","",""
"1626.4150000000373","{""judgement"":1}","[0]","survey-likert","483","1414412","0.0-483.0","opvszfeg","","","","","","","","1"
"1643.7450000001118","{""confidence"":1}","[0]","survey-likert","484","1416057","0.0-484.0","opvszfeg","","","","","","","",""
"","","","call-function","485","1416057","0.0-485.0","opvszfeg","","","","","","","",""
"null","","","html-keyboard-response","486","1417563","0.0-486.0","opvszfeg","","<span style=""color:Black; font-size:50px;"">Agent A","null","","","","",""
"null","","","video-keyboard-response","487","1420668","0.0-487.0","opvszfeg","","","null","","Agent A","scrambled","STIM_SET_5/1592857.bmp_pp52_L1_V1_veridical_freeview_isoTrue_Hflip_fps144.mp4",""
"null","","","html-keyboard-response","488","1422172","0.0-488.0","opvszfeg","","<span style=""color:Black; font-size:50px;"">Agent B","null","","","","",""
"null","","","video-keyboard-response","489","1425246","0.0-489.0","opvszfeg","","","null","","Agent B","veridical","STIM_SET_2_144/1592857.bmp_pp52_L1_V1_veridical_freeview_isoTrue_fps144.mp4",""
"","","","call-function","490","1425247","0.0-490.0","opvszfeg","","","","","","","",""
"3558.2700000000186","{""judgement"":0}","[0]","survey-likert","491","1428806","0.0-491.0","opvszfeg","","","","","","","","1"
"1682.8500000000931","{""confidence"":2}","[0]","survey-likert","492","1430490","0.0-492.0","opvszfeg","","","","","","","",""
"","","","call-function","493","1430491","0.0-493.0","opvszfeg","","","","","","","",""
"null","","","html-keyboard-response","494","1431995","0.0-494.0","opvszfeg","","<span style=""color:Black; font-size:50px;"">Agent A","null","","","","",""
"null","","","video-keyboard-response","495","1435085","0.0-495.0","opvszfeg","","","null","","Agent A","scrambled","STIM_SET_5/1160247.bmp_pp54_L2_V1.0_veridical_freeview_isoTrue_Hflip_fps144.mp4",""
"null","","","html-keyboard-response","496","1436589","0.0-496.0","opvszfeg","","<span style=""color:Black; font-size:50px;"">Agent B","null","","","","",""
"null","","","video-keyboard-response","497","1439679","0.0-497.0","opvszfeg","","","null","","Agent B","veridical","STIM_SET_2_144/1160247.bmp_pp54_L2_V1.0_veridical_freeview_isoTrue_fps144.mp4",""
"","","","call-function","498","1439679","0.0-498.0","opvszfeg","","","","","","","",""
"1309.1999999999534","{""judgement"":1}","[0]","survey-likert","499","1440989","0.0-499.0","opvszfeg","","","","","","","","1"
"1592.1850000000559","{""confidence"":3}","[0]","survey-likert","500","1442583","0.0-500.0","opvszfeg","","","","","","","",""
"5074.485000000102","","","instructions","501","1447658","0.0-501.0","opvszfeg","[{""page_index"":0,""viewing_time"":3063.310000000056},{""page_index"":1,""viewing_time"":896.8799999998882},{""page_index"":2,""viewing_time"":1114.1350000000093}]","","","","","","",""
"3548.195000000065","","","instructions","502","1451207","0.0-502.0","opvszfeg","[{""page_index"":0,""viewing_time"":1101.1750000000466},{""page_index"":1,""viewing_time"":1449.9350000000559},{""page_index"":2,""viewing_time"":996.9749999998603}]","","","","","","",""
"","","","call-function","503","1451207","0.0-503.0","opvszfeg","","","","","","","",""
"null","","","html-keyboard-response","504","1452712","0.0-504.0","opvszfeg","","<span style=""color:Black; font-size:50px;"">Agent A","null","","","","",""
"null","","","video-keyboard-response","505","1455781","0.0-505.0","opvszfeg","","","null","","Agent A","veridical","STIM_SET_2_144/150463.bmp_pp55_L3_V1.0_veridical_freeview_isoTrue_fps144.mp4",""
"null","","","html-keyboard-response","506","1457284","0.0-506.0","opvszfeg","","<span style=""color:Black; font-size:50px;"">Agent B","null","","","","",""
"null","","","video-keyboard-response","507","1460355","0.0-507.0","opvszfeg","","","null","","Agent B","scrambled","STIM_SET_5/150463.bmp_pp55_L3_V1.0_veridical_freeview_isoTrue_Hflip_fps144.mp4",""
"","","","call-function","508","1460356","0.0-508.0","opvszfeg","","","","","","","",""
"1683.1200000001118","{""judgement"":1}","[0]","survey-likert","509","1462040","0.0-509.0","opvszfeg","","","","","","","","0"
"1679.8300000000745","{""confidence"":2}","[0]","survey-likert","510","1463721","0.0-510.0","opvszfeg","","","","","","","",""
"","","","call-function","511","1463722","0.0-511.0","opvszfeg","","","","","","","",""
"null","","","html-keyboard-response","512","1465227","0.0-512.0","opvszfeg","","<span style=""color:Black; font-size:50px;"">Agent A","null","","","","",""
"null","","","video-keyboard-response","513","1468293","0.0-513.0","opvszfeg","","","null","","Agent A","veridical","STIM_SET_2_144/1592314.bmp_pp100_L3_V1.0_veridical_freeview_isoTrue_fps144.mp4",""
"null","","","html-keyboard-response","514","1469795","0.0-514.0","opvszfeg","","<span style=""color:Black; font-size:50px;"">Agent B","null","","","","",""
"null","","","video-keyboard-response","515","1472857","0.0-515.0","opvszfeg","","","null","","Agent B","scrambled","STIM_SET_5/1592314.bmp_pp100_L3_V1.0_veridical_freeview_isoTrue_Hflip_fps144.mp4",""
"","","","call-function","516","1472858","0.0-516.0","opvszfeg","","","","","","","",""
"2944.159999999916","{""judgement"":0}","[0]","survey-likert","517","1475803","0.0-517.0","opvszfeg","","","","","","","","0"
"1289.594999999972","{""confidence"":1}","[0]","survey-likert","518","1477094","0.0-518.0","opvszfeg","","","","","","","",""
"","","","call-function","519","1477095","0.0-519.0","opvszfeg","","","","","","","",""
"null","","","html-keyboard-response","520","1478599","0.0-520.0","opvszfeg","","<span style=""color:Black; font-size:50px;"">Agent A","null","","","","",""
"null","","","video-keyboard-response","521","1481673","0.0-521.0","opvszfeg","","","null","","Agent A","scrambled","STIM_SET_5/1591920.bmp_pp97_L3_V1_veridical_freeview_isoTrue_Hflip_fps144.mp4",""
"null","","","html-keyboard-response","522","1483175","0.0-522.0","opvszfeg","","<span style=""color:Black; font-size:50px;"">Agent B","null","","","","",""
"null","","","video-keyboard-response","523","1486250","0.0-523.0","opvszfeg","","","null","","Agent B","veridical","STIM_SET_2_144/1591920.bmp_pp97_L3_V1_veridical_freeview_isoTrue_fps144.mp4",""
"","","","call-function","524","1486251","0.0-524.0","opvszfeg","","","","","","","",""
"3339.0450000001583","{""judgement"":0}","[0]","survey-likert","525","1489591","0.0-525.0","opvszfeg","","","","","","","","1"
"1461.4200000001583","{""confidence"":2}","[0]","survey-likert","526","1491054","0.0-526.0","opvszfeg","","","","","","","",""
"","","","call-function","527","1491054","0.0-527.0","opvszfeg","","","","","","","",""
"null","","","html-keyboard-response","528","1492558","0.0-528.0","opvszfeg","","<span style=""color:Black; font-size:50px;"">Agent A","null","","","","",""
"null","","","video-keyboard-response","529","1495634","0.0-529.0","opvszfeg","","","null","","Agent A","scrambled","STIM_SET_5/1592567.bmp_pp70_L2_V1.0_veridical_freeview_isoTrue_Hflip_fps144.mp4",""
"null","","","html-keyboard-response","530","1497142","0.0-530.0","opvszfeg","","<span style=""color:Black; font-size:50px;"">Agent B","null","","","","",""
"null","","","video-keyboard-response","531","1500225","0.0-531.0","opvszfeg","","","null","","Agent B","veridical","STIM_SET_2_144/1592567.bmp_pp70_L2_V1.0_veridical_freeview_isoTrue_fps144.mp4",""
"","","","call-function","532","1500226","0.0-532.0","opvszfeg","","","","","","","",""
"1901.2750000001397","{""judgement"":1}","[0]","survey-likert","533","1502129","0.0-533.0","opvszfeg","","","","","","","","1"
"2774.3649999999907","{""confidence"":3}","[0]","survey-likert","534","1504905","0.0-534.0","opvszfeg","","","","","","","",""
"","","","call-function","535","1504906","0.0-535.0","opvszfeg","","","","","","","",""
"null","","","html-keyboard-response","536","1506410","0.0-536.0","opvszfeg","","<span style=""color:Black; font-size:50px;"">Agent A","null","","","","",""
"null","","","video-keyboard-response","537","1509485","0.0-537.0","opvszfeg","","","null","","Agent A","scrambled","STIM_SET_5/1592168.bmp_pp71_L1_V1.0_veridical_freeview_isoTrue_Hflip_fps144.mp4",""
"null","","","html-keyboard-response","538","1510988","0.0-538.0","opvszfeg","","<span style=""color:Black; font-size:50px;"">Agent B","null","","","","",""
"null","","","video-keyboard-response","539","1514064","0.0-539.0","opvszfeg","","","null","","Agent B","veridical","STIM_SET_2_144/1592168.bmp_pp71_L1_V1.0_veridical_freeview_isoTrue_fps144.mp4",""
"","","","call-function","540","1514065","0.0-540.0","opvszfeg","","","","","","","",""
"2217.8799999998882","{""judgement"":0}","[0]","survey-likert","541","1516284","0.0-541.0","opvszfeg","","","","","","","","1"
"2785.685000000056","{""confidence"":0}","[0]","survey-likert","542","1519071","0.0-542.0","opvszfeg","","","","","","","",""
"","","","call-function","543","1519072","0.0-543.0","opvszfeg","","","","","","","",""
"null","","","html-keyboard-response","544","1520578","0.0-544.0","opvszfeg","","<span style=""color:Black; font-size:50px;"">Agent A","null","","","","",""
"null","","","video-keyboard-response","545","1523642","0.0-545.0","opvszfeg","","","null","","Agent A","scrambled","STIM_SET_5/1159392.bmp_pp96_L2_V1.0_veridical_freeview_isoTrue_Hflip_fps144.mp4",""
"null","","","html-keyboard-response","546","1525145","0.0-546.0","opvszfeg","","<span style=""color:Black; font-size:50px;"">Agent B","null","","","","",""
"null","","","video-keyboard-response","547","1528210","0.0-547.0","opvszfeg","","","null","","Agent B","veridical","STIM_SET_2_144/1159392.bmp_pp96_L2_V1.0_veridical_freeview_isoTrue_fps144.mp4",""
"","","","call-function","548","1528211","0.0-548.0","opvszfeg","","","","","","","",""
"1363.844999999972","{""judgement"":1}","[0]","survey-likert","549","1529576","0.0-549.0","opvszfeg","","","","","","","","1"
"2109.6650000000373","{""confidence"":1}","[0]","survey-likert","550","1531687","0.0-550.0","opvszfeg","","","","","","","",""
"","","","call-function","551","1531688","0.0-551.0","opvszfeg","","","","","","","",""
"null","","","html-keyboard-response","552","1533195","0.0-552.0","opvszfeg","","<span style=""color:Black; font-size:50px;"">Agent A","null","","","","",""
"null","","","video-keyboard-response","553","1536285","0.0-553.0","opvszfeg","","","null","","Agent A","veridical","STIM_SET_2_144/1592747.bmp_pp53_L2_V1.0_veridical_freeview_isoTrue_fps144.mp4",""
"null","","","html-keyboard-response","554","1537787","0.0-554.0","opvszfeg","","<span style=""color:Black; font-size:50px;"">Agent B","null","","","","",""
"null","","","video-keyboard-response","555","1540869","0.0-555.0","opvszfeg","","","null","","Agent B","scrambled","STIM_SET_5/1592747.bmp_pp53_L2_V1.0_veridical_freeview_isoTrue_Hflip_fps144.mp4",""
"","","","call-function","556","1540870","0.0-556.0","opvszfeg","","","","","","","",""
"1543.1200000001118","{""judgement"":1}","[0]","survey-likert","557","1542414","0.0-557.0","opvszfeg","","","","","","","","0"
"1960.3000000000466","{""confidence"":3}","[0]","survey-likert","558","1544375","0.0-558.0","opvszfeg","","","","","","","",""
"","","","call-function","559","1544376","0.0-559.0","opvszfeg","","","","","","","",""
"null","","","html-keyboard-response","560","1545879","0.0-560.0","opvszfeg","","<span style=""color:Black; font-size:50px;"">Agent A","null","","","","",""
"null","","","video-keyboard-response","561","1548953","0.0-561.0","opvszfeg","","","null","","Agent A","scrambled","STIM_SET_5/107955.bmp_pp90_L2_V1.0_veridical_freeview_isoTrue_Hflip_fps144.mp4",""
"null","","","html-keyboard-response","562","1550455","0.0-562.0","opvszfeg","","<span style=""color:Black; font-size:50px;"">Agent B","null","","","","",""
"null","","","video-keyboard-response","563","1553531","0.0-563.0","opvszfeg","","","null","","Agent B","veridical","STIM_SET_2_144/107955.bmp_pp90_L2_V1.0_veridical_freeview_isoTrue_fps144.mp4",""
"","","","call-function","564","1553532","0.0-564.0","opvszfeg","","","","","","","",""
"3163.1650000000373","{""judgement"":1}","[0]","survey-likert","565","1556696","0.0-565.0","opvszfeg","","","","","","","","1"
"2591.715000000084","{""confidence"":1}","[0]","survey-likert","566","1559289","0.0-566.0","opvszfeg","","","","","","","",""
"","","","call-function","567","1559290","0.0-567.0","opvszfeg","","","","","","","",""
"null","","","html-keyboard-response","568","1560791","0.0-568.0","opvszfeg","","<span style=""color:Black; font-size:50px;"">Agent A","null","","","","",""
"null","","","video-keyboard-response","569","1563874","0.0-569.0","opvszfeg","","","null","","Agent A","scrambled","STIM_SET_5/1592305.bmp_pp65_L3_V1.0_veridical_freeview_isoTrue_Hflip_fps144.mp4",""
"null","","","html-keyboard-response","570","1565378","0.0-570.0","opvszfeg","","<span style=""color:Black; font-size:50px;"">Agent B","null","","","","",""
"null","","","video-keyboard-response","571","1568458","0.0-571.0","opvszfeg","","","null","","Agent B","veridical","STIM_SET_2_144/1592305.bmp_pp65_L3_V1.0_veridical_freeview_isoTrue_fps144.mp4",""
"","","","call-function","572","1568459","0.0-572.0","opvszfeg","","","","","","","",""
"1470.1750000000466","{""judgement"":1}","[0]","survey-likert","573","1569930","0.0-573.0","opvszfeg","","","","","","","","1"
"1471.4250000000466","{""confidence"":3}","[0]","survey-likert","574","1571403","0.0-574.0","opvszfeg","","","","","","","",""
"","","","call-function","575","1571403","0.0-575.0","opvszfeg","","","","","","","",""
"null","","","html-keyboard-response","576","1572909","0.0-576.0","opvszfeg","","<span style=""color:Black; font-size:50px;"">Agent A","null","","","","",""
"null","","","video-keyboard-response","577","1575985","0.0-577.0","opvszfeg","","","null","","Agent A","veridical","STIM_SET_2_144/713381.bmp_pp82_L2_V1.0_veridical_freeview_isoTrue_fps144.mp4",""
"null","","","html-keyboard-response","578","1577488","0.0-578.0","opvszfeg","","<span style=""color:Black; font-size:50px;"">Agent B","null","","","","",""
"null","","","video-keyboard-response","579","1580563","0.0-579.0","opvszfeg","","","null","","Agent B","scrambled","STIM_SET_5/713381.bmp_pp82_L2_V1.0_veridical_freeview_isoTrue_Hflip_fps144.mp4",""
"","","","call-function","580","1580564","0.0-580.0","opvszfeg","","","","","","","",""
"1852.5499999998137","{""judgement"":1}","[0]","survey-likert","581","1582417","0.0-581.0","opvszfeg","","","","","","","","0"
"1212.6750000000466","{""confidence"":2}","[0]","survey-likert","582","1583631","0.0-582.0","opvszfeg","","","","","","","",""
"2559.5200000000186","","","instructions","583","1586191","0.0-583.0","opvszfeg","[{""page_index"":0,""viewing_time"":2559.3850000000093}]","","","","","","",""
"2764.2700000000186","","","instructions","584","1588956","0.0-584.0","opvszfeg","[{""page_index"":0,""viewing_time"":2764.1650000000373}]","","","","","","",""
"5646.069999999832","{""post-1"":0}","[0]","survey-likert","585","1594604","0.0-585.0","opvszfeg","","","","","","","",""
"4519.370000000112","{""post-1"":0}","[0]","survey-likert","586","1599124","0.0-586.0","opvszfeg","","","","","","","",""
"5279.979999999981","{""post-2"":0}","[0]","survey-likert","587","1604406","0.0-587.0","opvszfeg","","","","","","","",""
"3452.5800000000745","{""post-2"":0}","[0]","survey-likert","588","1607860","0.0-588.0","opvszfeg","","","","","","","",""
"4227.125","{""post-3"":1}","[0]","survey-likert","589","1612089","0.0-589.0","opvszfeg","","","","","","","",""
"3919.440000000177","{""post-3"":0}","[0]","survey-likert","590","1616011","0.0-590.0","opvszfeg","","","","","","","",""
"5787.0800000000745","{""post-4"":1}","[0]","survey-likert","591","1621800","0.0-591.0","opvszfeg","","","","","","","",""
"4277.540000000037","{""post-4"":0}","[0]","survey-likert","592","1626080","0.0-592.0","opvszfeg","","","","","","","",""
"10077.284999999916","{""post-5"":1}","[0]","survey-likert","593","1636159","0.0-593.0","opvszfeg","","","","","","","",""
"4778.155000000028","{""post-5"":1}","[0]","survey-likert","594","1640939","0.0-594.0","opvszfeg","","","","","","","",""
"3310.1149999999907","{""Q0"":""""}","","survey-text","595","1644254","0.0-595.0","opvszfeg","","","","","","","",""
"3108.779999999795","{""Q0"":""""}","","survey-text","596","1647366","0.0-596.0","opvszfeg","","","","","","","",""
"1523.964999999851","{""Q0"":""""}","","survey-text","597","1648892","0.0-597.0","opvszfeg","","","","","","","",""
"2896.2949999999255","","","instructions","598","1651789","0.0-598.0","opvszfeg","[{""page_index"":0,""viewing_time"":2896.159999999916}]","","","","","","",""
"43984.39500000002","{""Experimenter_end"":[""Printed ID# opvszfeg on consent form"",""Given subject SONA credit or payment"",""Given the subject debrief form""]}","[0]","survey-multi-select","599","1695776","0.0-599.0","opvszfeg","","","","","","","",""
