"rt","responses","question_order","trial_type","trial_index","time_elapsed","internal_node_id","ID","view_history","stimulus","key_press","value","agent","condition","image","correct_answer"
"42943.835","{""Experimenter"":[""Confirmed subject's identity (ID card)"",""Confirmed normal or corrected-to-normal vision"",""Obtained consent (signature and date)"",""Checked the test room lighting"",""Checked computer screen lighting"",""Checked distance from screen to chin rest (50cm)"",""Cleaned and adjusted chin rest"",""Counterbalanced the order of the tasks"",""Opened the experiment in Firefox"",""Made the experiment full screen"",""Encouraged subject to silence phone, put away distractors, etc.""]}","[0]","survey-multi-select","0","42951","0.0-0.0","ow3vo1cr","","","","","","","",""
"26262.615000000005","","","instructions","1","69215","0.0-1.0","ow3vo1cr","[{""page_index"":0,""viewing_time"":26262.460000000006}]","","","","","","",""
"16857.75","","","instructions","2","86074","0.0-2.0","ow3vo1cr","[{""page_index"":0,""viewing_time"":9488.634999999995},{""page_index"":1,""viewing_time"":2132.0550000000076},{""page_index"":2,""viewing_time"":5236.940000000002}]","","","","","","",""
"1850.4850000000006","","","instructions","3","87925","0.0-3.0","ow3vo1cr","[{""page_index"":0,""viewing_time"":1850.3800000000047}]","","","","","","",""
"null","","","video-keyboard-response","4","91008","0.0-4.0","ow3vo1cr","","","null","","","","",""
"14247.12000000001","","","instructions","5","105255","0.0-5.0","ow3vo1cr","[{""page_index"":0,""viewing_time"":2501.8250000000116},{""page_index"":1,""viewing_time"":2865.9449999999924},{""page_index"":2,""viewing_time"":819.0449999999983},{""page_index"":3,""viewing_time"":4056.8600000000006},{""page_index"":4,""viewing_time"":4003.3150000000023}]","","","","","","",""
"7840.395000000004","","","instructions","6","113096","0.0-6.0","ow3vo1cr","[{""page_index"":0,""viewing_time"":7840.270000000004}]","","","","","","",""
"","","","call-function","7","113097","0.0-7.0","ow3vo1cr","","","","","","","",""
"null","","","html-keyboard-response","8","114603","0.0-8.0","ow3vo1cr","","<span style=""color:Black; font-size:50px;"">Agent A","null","","","","",""
"null","","","video-keyboard-response","9","117683","0.0-9.0","ow3vo1cr","","","null","","Agent A","scrambled","STIM_SET_1/1592807.bmp_pp68_L1_V1.0_scrambled_freeview_isoFalse.mp4",""
"null","","","html-keyboard-response","10","119188","0.0-10.0","ow3vo1cr","","<span style=""color:Black; font-size:50px;"">Agent B","null","","","","",""
"null","","","video-keyboard-response","11","122269","0.0-11.0","ow3vo1cr","","","null","","Agent B","veridical","STIM_SET_1/1592807.bmp_pp68_L1_V1.0_veridical_freeview_isoFalse.mp4",""
"","","","call-function","12","122270","0.0-12.0","ow3vo1cr","","","","","","","",""
"8301.37000000001","{""judgement"":0}","[0]","survey-likert","13","130573","0.0-13.0","ow3vo1cr","","","","","","","","1"
"4647.9499999999825","{""confidence"":1}","[0]","survey-likert","14","135222","0.0-14.0","ow3vo1cr","","","","","","","",""
"","","","call-function","15","135223","0.0-15.0","ow3vo1cr","","","","","","","",""
"null","","","html-keyboard-response","16","136725","0.0-16.0","ow3vo1cr","","<span style=""color:Black; font-size:50px;"">Agent A","null","","","","",""
"null","","","video-keyboard-response","17","139808","0.0-17.0","ow3vo1cr","","","null","","Agent A","scrambled","STIM_SET_1/1159675.bmp_pp77_L3_V1.0_scrambled_freeview_isoFalse.mp4",""
"null","","","html-keyboard-response","18","141310","0.0-18.0","ow3vo1cr","","<span style=""color:Black; font-size:50px;"">Agent B","null","","","","",""
"null","","","video-keyboard-response","19","144393","0.0-19.0","ow3vo1cr","","","null","","Agent B","veridical","STIM_SET_1/1159675.bmp_pp77_L3_V1.0_veridical_freeview_isoFalse.mp4",""
"","","","call-function","20","144394","0.0-20.0","ow3vo1cr","","","","","","","",""
"6980.8949999999895","{""judgement"":0}","[0]","survey-likert","21","151376","0.0-21.0","ow3vo1cr","","","","","","","","1"
"1892.3450000000012","{""confidence"":2}","[0]","survey-likert","22","153270","0.0-22.0","ow3vo1cr","","","","","","","",""
"","","","call-function","23","153270","0.0-23.0","ow3vo1cr","","","","","","","",""
"null","","","html-keyboard-response","24","154771","0.0-24.0","ow3vo1cr","","<span style=""color:Black; font-size:50px;"">Agent A","null","","","","",""
"null","","","video-keyboard-response","25","157849","0.0-25.0","ow3vo1cr","","","null","","Agent A","scrambled","STIM_SET_1/713017.bmp_pp152_L2_V1.0_scrambled_freeview_isoFalse.mp4",""
"null","","","html-keyboard-response","26","159352","0.0-26.0","ow3vo1cr","","<span style=""color:Black; font-size:50px;"">Agent B","null","","","","",""
"null","","","video-keyboard-response","27","162429","0.0-27.0","ow3vo1cr","","","null","","Agent B","veridical","STIM_SET_1/713017.bmp_pp152_L2_V1.0_veridical_freeview_isoFalse.mp4",""
"","","","call-function","28","162430","0.0-28.0","ow3vo1cr","","","","","","","",""
"2626.8399999999965","{""judgement"":0}","[0]","survey-likert","29","165058","0.0-29.0","ow3vo1cr","","","","","","","","1"
"2524.4100000000035","{""confidence"":1}","[0]","survey-likert","30","167583","0.0-30.0","ow3vo1cr","","","","","","","",""
"","","","call-function","31","167584","0.0-31.0","ow3vo1cr","","","","","","","",""
"null","","","html-keyboard-response","32","169089","0.0-32.0","ow3vo1cr","","<span style=""color:Black; font-size:50px;"">Agent A","null","","","","",""
"null","","","video-keyboard-response","33","172203","0.0-33.0","ow3vo1cr","","","null","","Agent A","veridical","STIM_SET_1/61537.bmp_pp73_L3_V1.0_veridical_freeview_isoFalse.mp4",""
"null","","","html-keyboard-response","34","173706","0.0-34.0","ow3vo1cr","","<span style=""color:Black; font-size:50px;"">Agent B","null","","","","",""
"null","","","video-keyboard-response","35","176823","0.0-35.0","ow3vo1cr","","","null","","Agent B","scrambled","STIM_SET_1/61537.bmp_pp73_L3_V1.0_scrambled_freeview_isoFalse.mp4",""
"","","","call-function","36","176823","0.0-36.0","ow3vo1cr","","","","","","","",""
"7084.524999999994","{""judgement"":0}","[0]","survey-likert","37","183909","0.0-37.0","ow3vo1cr","","","","","","","","0"
"2442.8550000000105","{""confidence"":3}","[0]","survey-likert","38","186352","0.0-38.0","ow3vo1cr","","","","","","","",""
"","","","call-function","39","186353","0.0-39.0","ow3vo1cr","","","","","","","",""
"null","","","html-keyboard-response","40","187855","0.0-40.0","ow3vo1cr","","<span style=""color:Black; font-size:50px;"">Agent A","null","","","","",""
"null","","","video-keyboard-response","41","190963","0.0-41.0","ow3vo1cr","","","null","","Agent A","veridical","STIM_SET_1/713403.bmp_pp80_L3_V1.0_veridical_freeview_isoFalse.mp4",""
"null","","","html-keyboard-response","42","192465","0.0-42.0","ow3vo1cr","","<span style=""color:Black; font-size:50px;"">Agent B","null","","","","",""
"null","","","video-keyboard-response","43","195572","0.0-43.0","ow3vo1cr","","","null","","Agent B","scrambled","STIM_SET_1/713403.bmp_pp80_L3_V1.0_scrambled_freeview_isoFalse.mp4",""
"","","","call-function","44","195572","0.0-44.0","ow3vo1cr","","","","","","","",""
"3496.320000000007","{""judgement"":1}","[0]","survey-likert","45","199070","0.0-45.0","ow3vo1cr","","","","","","","","0"
"5306.579999999987","{""confidence"":1}","[0]","survey-likert","46","204378","0.0-46.0","ow3vo1cr","","","","","","","",""
"","","","call-function","47","204378","0.0-47.0","ow3vo1cr","","","","","","","",""
"null","","","html-keyboard-response","48","205879","0.0-48.0","ow3vo1cr","","<span style=""color:Black; font-size:50px;"">Agent A","null","","","","",""
"null","","","video-keyboard-response","49","208953","0.0-49.0","ow3vo1cr","","","null","","Agent A","scrambled","STIM_SET_1/1159768.bmp_pp89_L1_V1.0_scrambled_freeview_isoFalse.mp4",""
"null","","","html-keyboard-response","50","210457","0.0-50.0","ow3vo1cr","","<span style=""color:Black; font-size:50px;"">Agent B","null","","","","",""
"null","","","video-keyboard-response","51","213528","0.0-51.0","ow3vo1cr","","","null","","Agent B","veridical","STIM_SET_1/1159768.bmp_pp89_L1_V1.0_veridical_freeview_isoFalse.mp4",""
"","","","call-function","52","213529","0.0-52.0","ow3vo1cr","","","","","","","",""
"4386.790000000008","{""judgement"":1}","[0]","survey-likert","53","217916","0.0-53.0","ow3vo1cr","","","","","","","","1"
"2203.9949999999953","{""confidence"":3}","[0]","survey-likert","54","220122","0.0-54.0","ow3vo1cr","","","","","","","",""
"","","","call-function","55","220122","0.0-55.0","ow3vo1cr","","","","","","","",""
"null","","","html-keyboard-response","56","221627","0.0-56.0","ow3vo1cr","","<span style=""color:Black; font-size:50px;"">Agent A","null","","","","",""
"null","","","video-keyboard-response","57","224700","0.0-57.0","ow3vo1cr","","","null","","Agent A","scrambled","STIM_SET_1/285933.bmp_pp81_L1_V1.0_scrambled_freeview_isoFalse.mp4",""
"null","","","html-keyboard-response","58","226203","0.0-58.0","ow3vo1cr","","<span style=""color:Black; font-size:50px;"">Agent B","null","","","","",""
"null","","","video-keyboard-response","59","229277","0.0-59.0","ow3vo1cr","","","null","","Agent B","veridical","STIM_SET_1/285933.bmp_pp81_L1_V1.0_veridical_freeview_isoFalse.mp4",""
"","","","call-function","60","229278","0.0-60.0","ow3vo1cr","","","","","","","",""
"7344.545000000013","{""judgement"":0}","[0]","survey-likert","61","236624","0.0-61.0","ow3vo1cr","","","","","","","","1"
"1699.2149999999965","{""confidence"":0}","[0]","survey-likert","62","238324","0.0-62.0","ow3vo1cr","","","","","","","",""
"","","","call-function","63","238325","0.0-63.0","ow3vo1cr","","","","","","","",""
"null","","","html-keyboard-response","64","239830","0.0-64.0","ow3vo1cr","","<span style=""color:Black; font-size:50px;"">Agent A","null","","","","",""
"null","","","video-keyboard-response","65","242910","0.0-65.0","ow3vo1cr","","","null","","Agent A","scrambled","STIM_SET_1/713620.bmp_pp65_L3_V1.0_scrambled_freeview_isoFalse.mp4",""
"null","","","html-keyboard-response","66","244412","0.0-66.0","ow3vo1cr","","<span style=""color:Black; font-size:50px;"">Agent B","null","","","","",""
"null","","","video-keyboard-response","67","247489","0.0-67.0","ow3vo1cr","","","null","","Agent B","veridical","STIM_SET_1/713620.bmp_pp65_L3_V1.0_veridical_freeview_isoFalse.mp4",""
"","","","call-function","68","247490","0.0-68.0","ow3vo1cr","","","","","","","",""
"3363.3699999999953","{""judgement"":1}","[0]","survey-likert","69","250854","0.0-69.0","ow3vo1cr","","","","","","","","1"
"2012.8949999999895","{""confidence"":3}","[0]","survey-likert","70","252868","0.0-70.0","ow3vo1cr","","","","","","","",""
"","","","call-function","71","252869","0.0-71.0","ow3vo1cr","","","","","","","",""
"null","","","html-keyboard-response","72","254375","0.0-72.0","ow3vo1cr","","<span style=""color:Black; font-size:50px;"">Agent A","null","","","","",""
"null","","","video-keyboard-response","73","257492","0.0-73.0","ow3vo1cr","","","null","","Agent A","scrambled","STIM_SET_1/1592657.bmp_pp98_L1_V1.0_scrambled_freeview_isoFalse.mp4",""
"null","","","html-keyboard-response","74","258997","0.0-74.0","ow3vo1cr","","<span style=""color:Black; font-size:50px;"">Agent B","null","","","","",""
"null","","","video-keyboard-response","75","262113","0.0-75.0","ow3vo1cr","","","null","","Agent B","veridical","STIM_SET_1/1592657.bmp_pp98_L1_V1.0_veridical_freeview_isoFalse.mp4",""
"","","","call-function","76","262114","0.0-76.0","ow3vo1cr","","","","","","","",""
"3180.210000000021","{""judgement"":0}","[0]","survey-likert","77","265295","0.0-77.0","ow3vo1cr","","","","","","","","1"
"2830.804999999993","{""confidence"":2}","[0]","survey-likert","78","268127","0.0-78.0","ow3vo1cr","","","","","","","",""
"","","","call-function","79","268127","0.0-79.0","ow3vo1cr","","","","","","","",""
"null","","","html-keyboard-response","80","269630","0.0-80.0","ow3vo1cr","","<span style=""color:Black; font-size:50px;"">Agent A","null","","","","",""
"null","","","video-keyboard-response","81","272740","0.0-81.0","ow3vo1cr","","","null","","Agent A","veridical","STIM_SET_1/713681.bmp_pp86_L2_V1.0_veridical_freeview_isoFalse.mp4",""
"null","","","html-keyboard-response","82","274247","0.0-82.0","ow3vo1cr","","<span style=""color:Black; font-size:50px;"">Agent B","null","","","","",""
"null","","","video-keyboard-response","83","277361","0.0-83.0","ow3vo1cr","","","null","","Agent B","scrambled","STIM_SET_1/713681.bmp_pp86_L2_V1.0_scrambled_freeview_isoFalse.mp4",""
"","","","call-function","84","277361","0.0-84.0","ow3vo1cr","","","","","","","",""
"4280.614999999991","{""judgement"":0}","[0]","survey-likert","85","281643","0.0-85.0","ow3vo1cr","","","","","","","","0"
"1637.4650000000256","{""confidence"":3}","[0]","survey-likert","86","283282","0.0-86.0","ow3vo1cr","","","","","","","",""
"15825.300000000047","","","instructions","87","299107","0.0-87.0","ow3vo1cr","[{""page_index"":0,""viewing_time"":1323.2000000000116},{""page_index"":1,""viewing_time"":13645.054999999993},{""page_index"":2,""viewing_time"":856.8400000000256}]","","","","","","",""
"5691.764999999956","","","instructions","88","304800","0.0-88.0","ow3vo1cr","[{""page_index"":0,""viewing_time"":825.4499999999534},{""page_index"":1,""viewing_time"":3338.9949999999953},{""page_index"":2,""viewing_time"":1527.2050000000163}]","","","","","","",""
"","","","call-function","89","304800","0.0-89.0","ow3vo1cr","","","","","","","",""
"null","","","html-keyboard-response","90","306303","0.0-90.0","ow3vo1cr","","<span style=""color:Black; font-size:50px;"">Agent A","null","","","","",""
"null","","","video-keyboard-response","91","309375","0.0-91.0","ow3vo1cr","","","null","","Agent A","scrambled","STIM_SET_1/1592397.bmp_pp85_L3_V1.0_scrambled_freeview_isoFalse.mp4",""
"null","","","html-keyboard-response","92","310878","0.0-92.0","ow3vo1cr","","<span style=""color:Black; font-size:50px;"">Agent B","null","","","","",""
"null","","","video-keyboard-response","93","313952","0.0-93.0","ow3vo1cr","","","null","","Agent B","veridical","STIM_SET_1/1592397.bmp_pp85_L3_V1.0_veridical_freeview_isoFalse.mp4",""
"","","","call-function","94","313952","0.0-94.0","ow3vo1cr","","","","","","","",""
"6146.52999999997","{""judgement"":0}","[0]","survey-likert","95","320100","0.0-95.0","ow3vo1cr","","","","","","","","1"
"2969.0599999999977","{""confidence"":0}","[0]","survey-likert","96","323070","0.0-96.0","ow3vo1cr","","","","","","","",""
"","","","call-function","97","323070","0.0-97.0","ow3vo1cr","","","","","","","",""
"null","","","html-keyboard-response","98","324571","0.0-98.0","ow3vo1cr","","<span style=""color:Black; font-size:50px;"">Agent A","null","","","","",""
"null","","","video-keyboard-response","99","327647","0.0-99.0","ow3vo1cr","","","null","","Agent A","scrambled","STIM_SET_1/1159440.bmp_pp98_L1_V1.0_scrambled_freeview_isoFalse.mp4",""
"null","","","html-keyboard-response","100","329149","0.0-100.0","ow3vo1cr","","<span style=""color:Black; font-size:50px;"">Agent B","null","","","","",""
"null","","","video-keyboard-response","101","332224","0.0-101.0","ow3vo1cr","","","null","","Agent B","veridical","STIM_SET_1/1159440.bmp_pp98_L1_V1.0_veridical_freeview_isoFalse.mp4",""
"","","","call-function","102","332225","0.0-102.0","ow3vo1cr","","","","","","","",""
"4596.050000000047","{""judgement"":0}","[0]","survey-likert","103","336822","0.0-103.0","ow3vo1cr","","","","","","","","1"
"2273.804999999993","{""confidence"":3}","[0]","survey-likert","104","339097","0.0-104.0","ow3vo1cr","","","","","","","",""
"","","","call-function","105","339097","0.0-105.0","ow3vo1cr","","","","","","","",""
"null","","","html-keyboard-response","106","340600","0.0-106.0","ow3vo1cr","","<span style=""color:Black; font-size:50px;"">Agent A","null","","","","",""
"null","","","video-keyboard-response","107","343683","0.0-107.0","ow3vo1cr","","","null","","Agent A","scrambled","STIM_SET_1/1591961.bmp_pp67_L2_V1.0_scrambled_freeview_isoFalse.mp4",""
"null","","","html-keyboard-response","108","345186","0.0-108.0","ow3vo1cr","","<span style=""color:Black; font-size:50px;"">Agent B","null","","","","",""
"null","","","video-keyboard-response","109","348266","0.0-109.0","ow3vo1cr","","","null","","Agent B","veridical","STIM_SET_1/1591961.bmp_pp67_L2_V1.0_veridical_freeview_isoFalse.mp4",""
"","","","call-function","110","348266","0.0-110.0","ow3vo1cr","","","","","","","",""
"7448.385000000009","{""judgement"":1}","[0]","survey-likert","111","355716","0.0-111.0","ow3vo1cr","","","","","","","","1"
"3717.8699999999953","{""confidence"":1}","[0]","survey-likert","112","359435","0.0-112.0","ow3vo1cr","","","","","","","",""
"","","","call-function","113","359435","0.0-113.0","ow3vo1cr","","","","","","","",""
"null","","","html-keyboard-response","114","360938","0.0-114.0","ow3vo1cr","","<span style=""color:Black; font-size:50px;"">Agent A","null","","","","",""
"null","","","video-keyboard-response","115","364024","0.0-115.0","ow3vo1cr","","","null","","Agent A","veridical","STIM_SET_1/1591994.bmp_pp69_L3_V1.0_veridical_freeview_isoFalse.mp4",""
"null","","","html-keyboard-response","116","365529","0.0-116.0","ow3vo1cr","","<span style=""color:Black; font-size:50px;"">Agent B","null","","","","",""
"null","","","video-keyboard-response","117","368609","0.0-117.0","ow3vo1cr","","","null","","Agent B","scrambled","STIM_SET_1/1591994.bmp_pp69_L3_V1.0_scrambled_freeview_isoFalse.mp4",""
"","","","call-function","118","368610","0.0-118.0","ow3vo1cr","","","","","","","",""
"7323.024999999965","{""judgement"":0}","[0]","survey-likert","119","375935","0.0-119.0","ow3vo1cr","","","","","","","","0"
"2826.1549999999697","{""confidence"":0}","[0]","survey-likert","120","378762","0.0-120.0","ow3vo1cr","","","","","","","",""
"","","","call-function","121","378763","0.0-121.0","ow3vo1cr","","","","","","","",""
"null","","","html-keyboard-response","122","380270","0.0-122.0","ow3vo1cr","","<span style=""color:Black; font-size:50px;"">Agent A","null","","","","",""
"null","","","video-keyboard-response","123","383352","0.0-123.0","ow3vo1cr","","","null","","Agent A","veridical","STIM_SET_1/1159855.bmp_pp99_L2_V1.0_veridical_freeview_isoFalse.mp4",""
"null","","","html-keyboard-response","124","384854","0.0-124.0","ow3vo1cr","","<span style=""color:Black; font-size:50px;"">Agent B","null","","","","",""
"null","","","video-keyboard-response","125","387935","0.0-125.0","ow3vo1cr","","","null","","Agent B","scrambled","STIM_SET_1/1159855.bmp_pp99_L2_V1.0_scrambled_freeview_isoFalse.mp4",""
"","","","call-function","126","387935","0.0-126.0","ow3vo1cr","","","","","","","",""
"1765.8450000000303","{""judgement"":0}","[0]","survey-likert","127","389702","0.0-127.0","ow3vo1cr","","","","","","","","0"
"1652.5200000000186","{""confidence"":3}","[0]","survey-likert","128","391357","0.0-128.0","ow3vo1cr","","","","","","","",""
"","","","call-function","129","391357","0.0-129.0","ow3vo1cr","","","","","","","",""
"null","","","html-keyboard-response","130","392860","0.0-130.0","ow3vo1cr","","<span style=""color:Black; font-size:50px;"">Agent A","null","","","","",""
"null","","","video-keyboard-response","131","395940","0.0-131.0","ow3vo1cr","","","null","","Agent A","veridical","STIM_SET_1/713211.bmp_pp100_L3_V1.0_veridical_freeview_isoFalse.mp4",""
"null","","","html-keyboard-response","132","397441","0.0-132.0","ow3vo1cr","","<span style=""color:Black; font-size:50px;"">Agent B","null","","","","",""
"null","","","video-keyboard-response","133","400561","0.0-133.0","ow3vo1cr","","","null","","Agent B","scrambled","STIM_SET_1/713211.bmp_pp100_L3_V1.0_scrambled_freeview_isoFalse.mp4",""
"","","","call-function","134","400562","0.0-134.0","ow3vo1cr","","","","","","","",""
"2262.0050000000047","{""judgement"":0}","[0]","survey-likert","135","402824","0.0-135.0","ow3vo1cr","","","","","","","","0"
"2301.5","{""confidence"":3}","[0]","survey-likert","136","405127","0.0-136.0","ow3vo1cr","","","","","","","",""
"","","","call-function","137","405128","0.0-137.0","ow3vo1cr","","","","","","","",""
"null","","","html-keyboard-response","138","406631","0.0-138.0","ow3vo1cr","","<span style=""color:Black; font-size:50px;"">Agent A","null","","","","",""
"null","","","video-keyboard-response","139","409751","0.0-139.0","ow3vo1cr","","","null","","Agent A","scrambled","STIM_SET_1/285751.bmp_pp55_L3_V1.0_scrambled_freeview_isoFalse.mp4",""
"null","","","html-keyboard-response","140","411256","0.0-140.0","ow3vo1cr","","<span style=""color:Black; font-size:50px;"">Agent B","null","","","","",""
"null","","","video-keyboard-response","141","414379","0.0-141.0","ow3vo1cr","","","null","","Agent B","veridical","STIM_SET_1/285751.bmp_pp55_L3_V1.0_veridical_freeview_isoFalse.mp4",""
"","","","call-function","142","414379","0.0-142.0","ow3vo1cr","","","","","","","",""
"4441.119999999995","{""judgement"":1}","[0]","survey-likert","143","418821","0.0-143.0","ow3vo1cr","","","","","","","","1"
"1597.429999999993","{""confidence"":1}","[0]","survey-likert","144","420420","0.0-144.0","ow3vo1cr","","","","","","","",""
"","","","call-function","145","420420","0.0-145.0","ow3vo1cr","","","","","","","",""
"null","","","html-keyboard-response","146","421922","0.0-146.0","ow3vo1cr","","<span style=""color:Black; font-size:50px;"">Agent A","null","","","","",""
"null","","","video-keyboard-response","147","424998","0.0-147.0","ow3vo1cr","","","null","","Agent A","veridical","STIM_SET_1/1592581.bmp_pp100_L3_V1.0_veridical_freeview_isoFalse.mp4",""
"null","","","html-keyboard-response","148","426505","0.0-148.0","ow3vo1cr","","<span style=""color:Black; font-size:50px;"">Agent B","null","","","","",""
"null","","","video-keyboard-response","149","429582","0.0-149.0","ow3vo1cr","","","null","","Agent B","scrambled","STIM_SET_1/1592581.bmp_pp100_L3_V1.0_scrambled_freeview_isoFalse.mp4",""
"","","","call-function","150","429582","0.0-150.0","ow3vo1cr","","","","","","","",""
"2217.164999999979","{""judgement"":0}","[0]","survey-likert","151","431800","0.0-151.0","ow3vo1cr","","","","","","","","0"
"2028.5750000000116","{""confidence"":3}","[0]","survey-likert","152","433830","0.0-152.0","ow3vo1cr","","","","","","","",""
"","","","call-function","153","433831","0.0-153.0","ow3vo1cr","","","","","","","",""
"null","","","html-keyboard-response","154","435334","0.0-154.0","ow3vo1cr","","<span style=""color:Black; font-size:50px;"">Agent A","null","","","","",""
"null","","","video-keyboard-response","155","438398","0.0-155.0","ow3vo1cr","","","null","","Agent A","veridical","STIM_SET_1/1592133.bmp_pp75_L1_V1.0_veridical_freeview_isoFalse.mp4",""
"null","","","html-keyboard-response","156","439905","0.0-156.0","ow3vo1cr","","<span style=""color:Black; font-size:50px;"">Agent B","null","","","","",""
"null","","","video-keyboard-response","157","443012","0.0-157.0","ow3vo1cr","","","null","","Agent B","scrambled","STIM_SET_1/1592133.bmp_pp75_L1_V1.0_scrambled_freeview_isoFalse.mp4",""
"","","","call-function","158","443013","0.0-158.0","ow3vo1cr","","","","","","","",""
"3197.7600000000093","{""judgement"":1}","[0]","survey-likert","159","446211","0.0-159.0","ow3vo1cr","","","","","","","","0"
"1905.8349999999627","{""confidence"":3}","[0]","survey-likert","160","448118","0.0-160.0","ow3vo1cr","","","","","","","",""
"","","","call-function","161","448119","0.0-161.0","ow3vo1cr","","","","","","","",""
"null","","","html-keyboard-response","162","449621","0.0-162.0","ow3vo1cr","","<span style=""color:Black; font-size:50px;"">Agent A","null","","","","",""
"null","","","video-keyboard-response","163","452688","0.0-163.0","ow3vo1cr","","","null","","Agent A","scrambled","STIM_SET_1/286001.bmp_pp54_L2_V1.0_scrambled_freeview_isoFalse.mp4",""
"null","","","html-keyboard-response","164","454190","0.0-164.0","ow3vo1cr","","<span style=""color:Black; font-size:50px;"">Agent B","null","","","","",""
"null","","","video-keyboard-response","165","457257","0.0-165.0","ow3vo1cr","","","null","","Agent B","veridical","STIM_SET_1/286001.bmp_pp54_L2_V1.0_veridical_freeview_isoFalse.mp4",""
"","","","call-function","166","457257","0.0-166.0","ow3vo1cr","","","","","","","",""
"2170.9199999999837","{""judgement"":1}","[0]","survey-likert","167","459429","0.0-167.0","ow3vo1cr","","","","","","","","1"
"2247.8499999999767","{""confidence"":2}","[0]","survey-likert","168","461678","0.0-168.0","ow3vo1cr","","","","","","","",""
"3082.484999999986","","","instructions","169","464761","0.0-169.0","ow3vo1cr","[{""page_index"":0,""viewing_time"":954.1699999999837},{""page_index"":1,""viewing_time"":1514.969999999972},{""page_index"":2,""viewing_time"":613.1450000000186}]","","","","","","",""
"1992.4449999999488","","","instructions","170","466754","0.0-170.0","ow3vo1cr","[{""page_index"":0,""viewing_time"":634.2199999999721},{""page_index"":1,""viewing_time"":786.0250000000233},{""page_index"":2,""viewing_time"":572.0999999999767}]","","","","","","",""
"","","","call-function","171","466754","0.0-171.0","ow3vo1cr","","","","","","","",""
"null","","","html-keyboard-response","172","468256","0.0-172.0","ow3vo1cr","","<span style=""color:Black; font-size:50px;"">Agent A","null","","","","",""
"null","","","video-keyboard-response","173","471333","0.0-173.0","ow3vo1cr","","","null","","Agent A","scrambled","STIM_SET_1/1159829.bmp_pp91_L3_V1.0_scrambled_freeview_isoFalse.mp4",""
"null","","","html-keyboard-response","174","472835","0.0-174.0","ow3vo1cr","","<span style=""color:Black; font-size:50px;"">Agent B","null","","","","",""
"null","","","video-keyboard-response","175","475907","0.0-175.0","ow3vo1cr","","","null","","Agent B","veridical","STIM_SET_1/1159829.bmp_pp91_L3_V1.0_veridical_freeview_isoFalse.mp4",""
"","","","call-function","176","475908","0.0-176.0","ow3vo1cr","","","","","","","",""
"2646.390000000014","{""judgement"":1}","[0]","survey-likert","177","478556","0.0-177.0","ow3vo1cr","","","","","","","","1"
"3677.960000000021","{""confidence"":1}","[0]","survey-likert","178","482236","0.0-178.0","ow3vo1cr","","","","","","","",""
"","","","call-function","179","482236","0.0-179.0","ow3vo1cr","","","","","","","",""
"null","","","html-keyboard-response","180","483741","0.0-180.0","ow3vo1cr","","<span style=""color:Black; font-size:50px;"">Agent A","null","","","","",""
"null","","","video-keyboard-response","181","486820","0.0-181.0","ow3vo1cr","","","null","","Agent A","scrambled","STIM_SET_1/1591876.bmp_pp63_L1_V1.0_scrambled_freeview_isoFalse.mp4",""
"null","","","html-keyboard-response","182","488322","0.0-182.0","ow3vo1cr","","<span style=""color:Black; font-size:50px;"">Agent B","null","","","","",""
"null","","","video-keyboard-response","183","491402","0.0-183.0","ow3vo1cr","","","null","","Agent B","veridical","STIM_SET_1/1591876.bmp_pp63_L1_V1.0_veridical_freeview_isoFalse.mp4",""
"","","","call-function","184","491403","0.0-184.0","ow3vo1cr","","","","","","","",""
"2327.4000000000233","{""judgement"":0}","[0]","survey-likert","185","493731","0.0-185.0","ow3vo1cr","","","","","","","","1"
"2116.4649999999674","{""confidence"":0}","[0]","survey-likert","186","495849","0.0-186.0","ow3vo1cr","","","","","","","",""
"","","","call-function","187","495850","0.0-187.0","ow3vo1cr","","","","","","","",""
"null","","","html-keyboard-response","188","497351","0.0-188.0","ow3vo1cr","","<span style=""color:Black; font-size:50px;"">Agent A","null","","","","",""
"null","","","video-keyboard-response","189","500433","0.0-189.0","ow3vo1cr","","","null","","Agent A","scrambled","STIM_SET_1/713593.bmp_pp64_L1_V1.0_scrambled_freeview_isoFalse.mp4",""
"null","","","html-keyboard-response","190","501936","0.0-190.0","ow3vo1cr","","<span style=""color:Black; font-size:50px;"">Agent B","null","","","","",""
"null","","","video-keyboard-response","191","505056","0.0-191.0","ow3vo1cr","","","null","","Agent B","veridical","STIM_SET_1/713593.bmp_pp64_L1_V1.0_veridical_freeview_isoFalse.mp4",""
"","","","call-function","192","505056","0.0-192.0","ow3vo1cr","","","","","","","",""
"2176.1549999999697","{""judgement"":1}","[0]","survey-likert","193","507233","0.0-193.0","ow3vo1cr","","","","","","","","1"
"1518.905000000028","{""confidence"":3}","[0]","survey-likert","194","508753","0.0-194.0","ow3vo1cr","","","","","","","",""
"","","","call-function","195","508754","0.0-195.0","ow3vo1cr","","","","","","","",""
"null","","","html-keyboard-response","196","510259","0.0-196.0","ow3vo1cr","","<span style=""color:Black; font-size:50px;"">Agent A","null","","","","",""
"null","","","video-keyboard-response","197","513382","0.0-197.0","ow3vo1cr","","","null","","Agent A","scrambled","STIM_SET_1/1592372.bmp_pp76_L1_V1.0_scrambled_freeview_isoFalse.mp4",""
"null","","","html-keyboard-response","198","514883","0.0-198.0","ow3vo1cr","","<span style=""color:Black; font-size:50px;"">Agent B","null","","","","",""
"null","","","video-keyboard-response","199","518004","0.0-199.0","ow3vo1cr","","","null","","Agent B","veridical","STIM_SET_1/1592372.bmp_pp76_L1_V1.0_veridical_freeview_isoFalse.mp4",""
"","","","call-function","200","518004","0.0-200.0","ow3vo1cr","","","","","","","",""
"1400.3250000000116","{""judgement"":1}","[0]","survey-likert","201","519405","0.0-201.0","ow3vo1cr","","","","","","","","1"
"5687.960000000021","{""confidence"":1}","[0]","survey-likert","202","525094","0.0-202.0","ow3vo1cr","","","","","","","",""
"","","","call-function","203","525095","0.0-203.0","ow3vo1cr","","","","","","","",""
"null","","","html-keyboard-response","204","526597","0.0-204.0","ow3vo1cr","","<span style=""color:Black; font-size:50px;"">Agent A","null","","","","",""
"null","","","video-keyboard-response","205","529706","0.0-205.0","ow3vo1cr","","","null","","Agent A","scrambled","STIM_SET_1/713760.bmp_pp81_L1_V1.0_scrambled_freeview_isoFalse.mp4",""
"null","","","html-keyboard-response","206","531208","0.0-206.0","ow3vo1cr","","<span style=""color:Black; font-size:50px;"">Agent B","null","","","","",""
"null","","","video-keyboard-response","207","534317","0.0-207.0","ow3vo1cr","","","null","","Agent B","veridical","STIM_SET_1/713760.bmp_pp81_L1_V1.0_veridical_freeview_isoFalse.mp4",""
"","","","call-function","208","534318","0.0-208.0","ow3vo1cr","","","","","","","",""
"4027.804999999935","{""judgement"":1}","[0]","survey-likert","209","538346","0.0-209.0","ow3vo1cr","","","","","","","","1"
"1909.9000000000233","{""confidence"":3}","[0]","survey-likert","210","540257","0.0-210.0","ow3vo1cr","","","","","","","",""
"","","","call-function","211","540258","0.0-211.0","ow3vo1cr","","","","","","","",""
"null","","","html-keyboard-response","212","541760","0.0-212.0","ow3vo1cr","","<span style=""color:Black; font-size:50px;"">Agent A","null","","","","",""
"null","","","video-keyboard-response","213","544834","0.0-213.0","ow3vo1cr","","","null","","Agent A","scrambled","STIM_SET_1/1592286.bmp_pp52_L1_V1.0_scrambled_freeview_isoFalse.mp4",""
"null","","","html-keyboard-response","214","546339","0.0-214.0","ow3vo1cr","","<span style=""color:Black; font-size:50px;"">Agent B","null","","","","",""
"null","","","video-keyboard-response","215","549414","0.0-215.0","ow3vo1cr","","","null","","Agent B","veridical","STIM_SET_1/1592286.bmp_pp52_L1_V1.0_veridical_freeview_isoFalse.mp4",""
"","","","call-function","216","549415","0.0-216.0","ow3vo1cr","","","","","","","",""
"2466.25","{""judgement"":1}","[0]","survey-likert","217","551883","0.0-217.0","ow3vo1cr","","","","","","","","1"
"3791.8249999999534","{""confidence"":0}","[0]","survey-likert","218","555676","0.0-218.0","ow3vo1cr","","","","","","","",""
"","","","call-function","219","555676","0.0-219.0","ow3vo1cr","","","","","","","",""
"null","","","html-keyboard-response","220","557179","0.0-220.0","ow3vo1cr","","<span style=""color:Black; font-size:50px;"">Agent A","null","","","","",""
"null","","","video-keyboard-response","221","560252","0.0-221.0","ow3vo1cr","","","null","","Agent A","veridical","STIM_SET_1/1592619.bmp_pp56_L3_V1.0_veridical_freeview_isoFalse.mp4",""
"null","","","html-keyboard-response","222","561755","0.0-222.0","ow3vo1cr","","<span style=""color:Black; font-size:50px;"">Agent B","null","","","","",""
"null","","","video-keyboard-response","223","564821","0.0-223.0","ow3vo1cr","","","null","","Agent B","scrambled","STIM_SET_1/1592619.bmp_pp56_L3_V1.0_scrambled_freeview_isoFalse.mp4",""
"","","","call-function","224","564822","0.0-224.0","ow3vo1cr","","","","","","","",""
"1917.7099999999627","{""judgement"":0}","[0]","survey-likert","225","566740","0.0-225.0","ow3vo1cr","","","","","","","","0"
"1885.8549999999814","{""confidence"":3}","[0]","survey-likert","226","568628","0.0-226.0","ow3vo1cr","","","","","","","",""
"","","","call-function","227","568628","0.0-227.0","ow3vo1cr","","","","","","","",""
"null","","","html-keyboard-response","228","570129","0.0-228.0","ow3vo1cr","","<span style=""color:Black; font-size:50px;"">Agent A","null","","","","",""
"null","","","video-keyboard-response","229","573247","0.0-229.0","ow3vo1cr","","","null","","Agent A","scrambled","STIM_SET_1/1592499.bmp_pp96_L2_V1.0_scrambled_freeview_isoFalse.mp4",""
"null","","","html-keyboard-response","230","574750","0.0-230.0","ow3vo1cr","","<span style=""color:Black; font-size:50px;"">Agent B","null","","","","",""
"null","","","video-keyboard-response","231","577864","0.0-231.0","ow3vo1cr","","","null","","Agent B","veridical","STIM_SET_1/1592499.bmp_pp96_L2_V1.0_veridical_freeview_isoFalse.mp4",""
"","","","call-function","232","577865","0.0-232.0","ow3vo1cr","","","","","","","",""
"1799.9099999999162","{""judgement"":0}","[0]","survey-likert","233","579666","0.0-233.0","ow3vo1cr","","","","","","","","1"
"2604.585000000079","{""confidence"":1}","[0]","survey-likert","234","582272","0.0-234.0","ow3vo1cr","","","","","","","",""
"","","","call-function","235","582272","0.0-235.0","ow3vo1cr","","","","","","","",""
"null","","","html-keyboard-response","236","583778","0.0-236.0","ow3vo1cr","","<span style=""color:Black; font-size:50px;"">Agent A","null","","","","",""
"null","","","video-keyboard-response","237","586861","0.0-237.0","ow3vo1cr","","","null","","Agent A","scrambled","STIM_SET_1/713779.bmp_pp152_L2_V1.0_scrambled_freeview_isoFalse.mp4",""
"null","","","html-keyboard-response","238","588363","0.0-238.0","ow3vo1cr","","<span style=""color:Black; font-size:50px;"">Agent B","null","","","","",""
"null","","","video-keyboard-response","239","591448","0.0-239.0","ow3vo1cr","","","null","","Agent B","veridical","STIM_SET_1/713779.bmp_pp152_L2_V1.0_veridical_freeview_isoFalse.mp4",""
"","","","call-function","240","591449","0.0-240.0","ow3vo1cr","","","","","","","",""
"3108.6199999999953","{""judgement"":0}","[0]","survey-likert","241","594558","0.0-241.0","ow3vo1cr","","","","","","","","1"
"1820.7900000000373","{""confidence"":2}","[0]","survey-likert","242","596380","0.0-242.0","ow3vo1cr","","","","","","","",""
"","","","call-function","243","596381","0.0-243.0","ow3vo1cr","","","","","","","",""
"null","","","html-keyboard-response","244","597885","0.0-244.0","ow3vo1cr","","<span style=""color:Black; font-size:50px;"">Agent A","null","","","","",""
"null","","","video-keyboard-response","245","600991","0.0-245.0","ow3vo1cr","","","null","","Agent A","veridical","STIM_SET_1/1159446.bmp_pp60_L3_V1.0_veridical_freeview_isoFalse.mp4",""
"null","","","html-keyboard-response","246","602495","0.0-246.0","ow3vo1cr","","<span style=""color:Black; font-size:50px;"">Agent B","null","","","","",""
"null","","","video-keyboard-response","247","605597","0.0-247.0","ow3vo1cr","","","null","","Agent B","scrambled","STIM_SET_1/1159446.bmp_pp60_L3_V1.0_scrambled_freeview_isoFalse.mp4",""
"","","","call-function","248","605598","0.0-248.0","ow3vo1cr","","","","","","","",""
"1699","{""judgement"":0}","[0]","survey-likert","249","607298","0.0-249.0","ow3vo1cr","","","","","","","","0"
"2178.1199999999953","{""confidence"":3}","[0]","survey-likert","250","609477","0.0-250.0","ow3vo1cr","","","","","","","",""
"20416.30999999994","","","instructions","251","629894","0.0-251.0","ow3vo1cr","[{""page_index"":0,""viewing_time"":1517.9499999999534},{""page_index"":1,""viewing_time"":18009.109999999986},{""page_index"":2,""viewing_time"":889.0400000000373}]","","","","","","",""
"2989.3850000000093","","","instructions","252","632884","0.0-252.0","ow3vo1cr","[{""page_index"":0,""viewing_time"":674.1700000000419},{""page_index"":1,""viewing_time"":1636.0600000000559},{""page_index"":2,""viewing_time"":678.9549999999581}]","","","","","","",""
"","","","call-function","253","632885","0.0-253.0","ow3vo1cr","","","","","","","",""
"null","","","html-keyboard-response","254","634388","0.0-254.0","ow3vo1cr","","<span style=""color:Black; font-size:50px;"">Agent A","null","","","","",""
"null","","","video-keyboard-response","255","637467","0.0-255.0","ow3vo1cr","","","null","","Agent A","scrambled","STIM_SET_1/713707.bmp_pp154_L1_V1.0_scrambled_freeview_isoFalse.mp4",""
"null","","","html-keyboard-response","256","638973","0.0-256.0","ow3vo1cr","","<span style=""color:Black; font-size:50px;"">Agent B","null","","","","",""
"null","","","video-keyboard-response","257","642055","0.0-257.0","ow3vo1cr","","","null","","Agent B","veridical","STIM_SET_1/713707.bmp_pp154_L1_V1.0_veridical_freeview_isoFalse.mp4",""
"","","","call-function","258","642055","0.0-258.0","ow3vo1cr","","","","","","","",""
"4018.344999999972","{""judgement"":1}","[0]","survey-likert","259","646074","0.0-259.0","ow3vo1cr","","","","","","","","1"
"2027.9949999999953","{""confidence"":0}","[0]","survey-likert","260","648104","0.0-260.0","ow3vo1cr","","","","","","","",""
"","","","call-function","261","648104","0.0-261.0","ow3vo1cr","","","","","","","",""
"null","","","html-keyboard-response","262","649609","0.0-262.0","ow3vo1cr","","<span style=""color:Black; font-size:50px;"">Agent A","null","","","","",""
"null","","","video-keyboard-response","263","652687","0.0-263.0","ow3vo1cr","","","null","","Agent A","veridical","STIM_SET_1/498155.bmp_pp61_L2_V1.0_veridical_freeview_isoFalse.mp4",""
"null","","","html-keyboard-response","264","654190","0.0-264.0","ow3vo1cr","","<span style=""color:Black; font-size:50px;"">Agent B","null","","","","",""
"null","","","video-keyboard-response","265","657267","0.0-265.0","ow3vo1cr","","","null","","Agent B","scrambled","STIM_SET_1/498155.bmp_pp61_L2_V1.0_scrambled_freeview_isoFalse.mp4",""
"","","","call-function","266","657268","0.0-266.0","ow3vo1cr","","","","","","","",""
"2988.9700000000885","{""judgement"":0}","[0]","survey-likert","267","660258","0.0-267.0","ow3vo1cr","","","","","","","","0"
"1689.6600000000326","{""confidence"":3}","[0]","survey-likert","268","661949","0.0-268.0","ow3vo1cr","","","","","","","",""
"","","","call-function","269","661949","0.0-269.0","ow3vo1cr","","","","","","","",""
"null","","","html-keyboard-response","270","663454","0.0-270.0","ow3vo1cr","","<span style=""color:Black; font-size:50px;"">Agent A","null","","","","",""
"null","","","video-keyboard-response","271","666572","0.0-271.0","ow3vo1cr","","","null","","Agent A","scrambled","STIM_SET_1/1592362.bmp_pp95_L2_V1.0_scrambled_freeview_isoFalse.mp4",""
"null","","","html-keyboard-response","272","668075","0.0-272.0","ow3vo1cr","","<span style=""color:Black; font-size:50px;"">Agent B","null","","","","",""
"null","","","video-keyboard-response","273","671191","0.0-273.0","ow3vo1cr","","","null","","Agent B","veridical","STIM_SET_1/1592362.bmp_pp95_L2_V1.0_veridical_freeview_isoFalse.mp4",""
"","","","call-function","274","671192","0.0-274.0","ow3vo1cr","","","","","","","",""
"7083.405000000028","{""judgement"":0}","[0]","survey-likert","275","678278","0.0-275.0","ow3vo1cr","","","","","","","","1"
"1766.6199999999953","{""confidence"":2}","[0]","survey-likert","276","680046","0.0-276.0","ow3vo1cr","","","","","","","",""
"","","","call-function","277","680047","0.0-277.0","ow3vo1cr","","","","","","","",""
"null","","","html-keyboard-response","278","681552","0.0-278.0","ow3vo1cr","","<span style=""color:Black; font-size:50px;"">Agent A","null","","","","",""
"null","","","video-keyboard-response","279","684621","0.0-279.0","ow3vo1cr","","","null","","Agent A","veridical","STIM_SET_1/1159882.bmp_pp61_L2_V1.0_veridical_freeview_isoFalse.mp4",""
"null","","","html-keyboard-response","280","686123","0.0-280.0","ow3vo1cr","","<span style=""color:Black; font-size:50px;"">Agent B","null","","","","",""
"null","","","video-keyboard-response","281","689195","0.0-281.0","ow3vo1cr","","","null","","Agent B","scrambled","STIM_SET_1/1159882.bmp_pp61_L2_V1.0_scrambled_freeview_isoFalse.mp4",""
"","","","call-function","282","689196","0.0-282.0","ow3vo1cr","","","","","","","",""
"7097.460000000079","{""judgement"":1}","[0]","survey-likert","283","696294","0.0-283.0","ow3vo1cr","","","","","","","","0"
"2494.5849999999627","{""confidence"":0}","[0]","survey-likert","284","698790","0.0-284.0","ow3vo1cr","","","","","","","",""
"","","","call-function","285","698791","0.0-285.0","ow3vo1cr","","","","","","","",""
"null","","","html-keyboard-response","286","700297","0.0-286.0","ow3vo1cr","","<span style=""color:Black; font-size:50px;"">Agent A","null","","","","",""
"null","","","video-keyboard-response","287","703372","0.0-287.0","ow3vo1cr","","","null","","Agent A","veridical","STIM_SET_1/713796.bmp_pp84_L3_V1.0_veridical_freeview_isoFalse.mp4",""
"null","","","html-keyboard-response","288","704874","0.0-288.0","ow3vo1cr","","<span style=""color:Black; font-size:50px;"">Agent B","null","","","","",""
"null","","","video-keyboard-response","289","707944","0.0-289.0","ow3vo1cr","","","null","","Agent B","scrambled","STIM_SET_1/713796.bmp_pp84_L3_V1.0_scrambled_freeview_isoFalse.mp4",""
"","","","call-function","290","707945","0.0-290.0","ow3vo1cr","","","","","","","",""
"5029.114999999991","{""judgement"":1}","[0]","survey-likert","291","712975","0.0-291.0","ow3vo1cr","","","","","","","","0"
"2339.0400000000373","{""confidence"":2}","[0]","survey-likert","292","715315","0.0-292.0","ow3vo1cr","","","","","","","",""
"","","","call-function","293","715315","0.0-293.0","ow3vo1cr","","","","","","","",""
"null","","","html-keyboard-response","294","716818","0.0-294.0","ow3vo1cr","","<span style=""color:Black; font-size:50px;"">Agent A","null","","","","",""
"null","","","video-keyboard-response","295","719938","0.0-295.0","ow3vo1cr","","","null","","Agent A","scrambled","STIM_SET_1/285905.bmp_pp57_L1_V1.0_scrambled_freeview_isoFalse.mp4",""
"null","","","html-keyboard-response","296","721441","0.0-296.0","ow3vo1cr","","<span style=""color:Black; font-size:50px;"">Agent B","null","","","","",""
"null","","","video-keyboard-response","297","724562","0.0-297.0","ow3vo1cr","","","null","","Agent B","veridical","STIM_SET_1/285905.bmp_pp57_L1_V1.0_veridical_freeview_isoFalse.mp4",""
"","","","call-function","298","724562","0.0-298.0","ow3vo1cr","","","","","","","",""
"2689.704999999958","{""judgement"":1}","[0]","survey-likert","299","727253","0.0-299.0","ow3vo1cr","","","","","","","","1"
"2427.855000000098","{""confidence"":2}","[0]","survey-likert","300","729682","0.0-300.0","ow3vo1cr","","","","","","","",""
"","","","call-function","301","729682","0.0-301.0","ow3vo1cr","","","","","","","",""
"null","","","html-keyboard-response","302","731186","0.0-302.0","ow3vo1cr","","<span style=""color:Black; font-size:50px;"">Agent A","null","","","","",""
"null","","","video-keyboard-response","303","734301","0.0-303.0","ow3vo1cr","","","null","","Agent A","scrambled","STIM_SET_1/713513.bmp_pp62_L2_V1.0_scrambled_freeview_isoFalse.mp4",""
"null","","","html-keyboard-response","304","735805","0.0-304.0","ow3vo1cr","","<span style=""color:Black; font-size:50px;"">Agent B","null","","","","",""
"null","","","video-keyboard-response","305","738915","0.0-305.0","ow3vo1cr","","","null","","Agent B","veridical","STIM_SET_1/713513.bmp_pp62_L2_V1.0_veridical_freeview_isoFalse.mp4",""
"","","","call-function","306","738916","0.0-306.0","ow3vo1cr","","","","","","","",""
"3778.7149999999674","{""judgement"":0}","[0]","survey-likert","307","742695","0.0-307.0","ow3vo1cr","","","","","","","","1"
"2618.5400000000373","{""confidence"":3}","[0]","survey-likert","308","745315","0.0-308.0","ow3vo1cr","","","","","","","",""
"","","","call-function","309","745315","0.0-309.0","ow3vo1cr","","","","","","","",""
"null","","","html-keyboard-response","310","746817","0.0-310.0","ow3vo1cr","","<span style=""color:Black; font-size:50px;"">Agent A","null","","","","",""
"null","","","video-keyboard-response","311","749894","0.0-311.0","ow3vo1cr","","","null","","Agent A","scrambled","STIM_SET_1/1593146.bmp_pp93_L1_V1.0_scrambled_freeview_isoFalse.mp4",""
"null","","","html-keyboard-response","312","751398","0.0-312.0","ow3vo1cr","","<span style=""color:Black; font-size:50px;"">Agent B","null","","","","",""
"null","","","video-keyboard-response","313","754477","0.0-313.0","ow3vo1cr","","","null","","Agent B","veridical","STIM_SET_1/1593146.bmp_pp93_L1_V1.0_veridical_freeview_isoFalse.mp4",""
"","","","call-function","314","754478","0.0-314.0","ow3vo1cr","","","","","","","",""
"2284.909999999916","{""judgement"":1}","[0]","survey-likert","315","756764","0.0-315.0","ow3vo1cr","","","","","","","","1"
"1585.9300000000512","{""confidence"":3}","[0]","survey-likert","316","758351","0.0-316.0","ow3vo1cr","","","","","","","",""
"","","","call-function","317","758351","0.0-317.0","ow3vo1cr","","","","","","","",""
"null","","","html-keyboard-response","318","759852","0.0-318.0","ow3vo1cr","","<span style=""color:Black; font-size:50px;"">Agent A","null","","","","",""
"null","","","video-keyboard-response","319","762971","0.0-319.0","ow3vo1cr","","","null","","Agent A","veridical","STIM_SET_1/1592934.bmp_pp63_L1_V1.0_veridical_freeview_isoFalse.mp4",""
"null","","","html-keyboard-response","320","764477","0.0-320.0","ow3vo1cr","","<span style=""color:Black; font-size:50px;"">Agent B","null","","","","",""
"null","","","video-keyboard-response","321","767548","0.0-321.0","ow3vo1cr","","","null","","Agent B","scrambled","STIM_SET_1/1592934.bmp_pp63_L1_V1.0_scrambled_freeview_isoFalse.mp4",""
"","","","call-function","322","767548","0.0-322.0","ow3vo1cr","","","","","","","",""
"2616.6049999999814","{""judgement"":1}","[0]","survey-likert","323","770166","0.0-323.0","ow3vo1cr","","","","","","","","0"
"1898.859999999986","{""confidence"":3}","[0]","survey-likert","324","772066","0.0-324.0","ow3vo1cr","","","","","","","",""
"","","","call-function","325","772066","0.0-325.0","ow3vo1cr","","","","","","","",""
"null","","","html-keyboard-response","326","773568","0.0-326.0","ow3vo1cr","","<span style=""color:Black; font-size:50px;"">Agent A","null","","","","",""
"null","","","video-keyboard-response","327","776646","0.0-327.0","ow3vo1cr","","","null","","Agent A","veridical","STIM_SET_1/1159813.bmp_pp79_L2_V1.0_veridical_freeview_isoFalse.mp4",""
"null","","","html-keyboard-response","328","778150","0.0-328.0","ow3vo1cr","","<span style=""color:Black; font-size:50px;"">Agent B","null","","","","",""
"null","","","video-keyboard-response","329","781225","0.0-329.0","ow3vo1cr","","","null","","Agent B","scrambled","STIM_SET_1/1159813.bmp_pp79_L2_V1.0_scrambled_freeview_isoFalse.mp4",""
"","","","call-function","330","781226","0.0-330.0","ow3vo1cr","","","","","","","",""
"2213.5999999999767","{""judgement"":0}","[0]","survey-likert","331","783442","0.0-331.0","ow3vo1cr","","","","","","","","0"
"3073.795000000042","{""confidence"":3}","[0]","survey-likert","332","786518","0.0-332.0","ow3vo1cr","","","","","","","",""
"10714.36499999999","","","instructions","333","797233","0.0-333.0","ow3vo1cr","[{""page_index"":0,""viewing_time"":1195.1450000000186},{""page_index"":1,""viewing_time"":5563.949999999953},{""page_index"":2,""viewing_time"":3954.9949999999953}]","","","","","","",""
"4803.415000000037","","","instructions","334","802037","0.0-334.0","ow3vo1cr","[{""page_index"":0,""viewing_time"":1214.3300000000745},{""page_index"":1,""viewing_time"":2021.7700000000186},{""page_index"":2,""viewing_time"":1567.2099999999627}]","","","","","","",""
"","","","call-function","335","802037","0.0-335.0","ow3vo1cr","","","","","","","",""
"null","","","html-keyboard-response","336","803544","0.0-336.0","ow3vo1cr","","<span style=""color:Black; font-size:50px;"">Agent A","null","","","","",""
"null","","","video-keyboard-response","337","806609","0.0-337.0","ow3vo1cr","","","null","","Agent A","scrambled","STIM_SET_1/1592817.bmp_pp55_L3_V1.0_scrambled_freeview_isoFalse.mp4",""
"null","","","html-keyboard-response","338","808113","0.0-338.0","ow3vo1cr","","<span style=""color:Black; font-size:50px;"">Agent B","null","","","","",""
"null","","","video-keyboard-response","339","811178","0.0-339.0","ow3vo1cr","","","null","","Agent B","veridical","STIM_SET_1/1592817.bmp_pp55_L3_V1.0_veridical_freeview_isoFalse.mp4",""
"","","","call-function","340","811178","0.0-340.0","ow3vo1cr","","","","","","","",""
"3581.5400000000373","{""judgement"":1}","[0]","survey-likert","341","814761","0.0-341.0","ow3vo1cr","","","","","","","","1"
"1898.4649999999674","{""confidence"":1}","[0]","survey-likert","342","816661","0.0-342.0","ow3vo1cr","","","","","","","",""
"","","","call-function","343","816662","0.0-343.0","ow3vo1cr","","","","","","","",""
"null","","","html-keyboard-response","344","818163","0.0-344.0","ow3vo1cr","","<span style=""color:Black; font-size:50px;"">Agent A","null","","","","",""
"null","","","video-keyboard-response","345","821247","0.0-345.0","ow3vo1cr","","","null","","Agent A","scrambled","STIM_SET_1/713371.bmp_pp68_L1_V1.0_scrambled_freeview_isoFalse.mp4",""
"null","","","html-keyboard-response","346","822752","0.0-346.0","ow3vo1cr","","<span style=""color:Black; font-size:50px;"">Agent B","null","","","","",""
"null","","","video-keyboard-response","347","825834","0.0-347.0","ow3vo1cr","","","null","","Agent B","veridical","STIM_SET_1/713371.bmp_pp68_L1_V1.0_veridical_freeview_isoFalse.mp4",""
"","","","call-function","348","825835","0.0-348.0","ow3vo1cr","","","","","","","",""
"2272.2750000000233","{""judgement"":1}","[0]","survey-likert","349","828108","0.0-349.0","ow3vo1cr","","","","","","","","1"
"1875.9799999999814","{""confidence"":3}","[0]","survey-likert","350","829985","0.0-350.0","ow3vo1cr","","","","","","","",""
"","","","call-function","351","829986","0.0-351.0","ow3vo1cr","","","","","","","",""
"null","","","html-keyboard-response","352","831488","0.0-352.0","ow3vo1cr","","<span style=""color:Black; font-size:50px;"">Agent A","null","","","","",""
"null","","","video-keyboard-response","353","834594","0.0-353.0","ow3vo1cr","","","null","","Agent A","scrambled","STIM_SET_1/498149.bmp_pp99_L2_V1.0_scrambled_freeview_isoFalse.mp4",""
"null","","","html-keyboard-response","354","836098","0.0-354.0","ow3vo1cr","","<span style=""color:Black; font-size:50px;"">Agent B","null","","","","",""
"null","","","video-keyboard-response","355","839203","0.0-355.0","ow3vo1cr","","","null","","Agent B","veridical","STIM_SET_1/498149.bmp_pp99_L2_V1.0_veridical_freeview_isoFalse.mp4",""
"","","","call-function","356","839203","0.0-356.0","ow3vo1cr","","","","","","","",""
"2930.3249999999534","{""judgement"":0}","[0]","survey-likert","357","842134","0.0-357.0","ow3vo1cr","","","","","","","","1"
"2337.6650000000373","{""confidence"":3}","[0]","survey-likert","358","844473","0.0-358.0","ow3vo1cr","","","","","","","",""
"","","","call-function","359","844474","0.0-359.0","ow3vo1cr","","","","","","","",""
"null","","","html-keyboard-response","360","845976","0.0-360.0","ow3vo1cr","","<span style=""color:Black; font-size:50px;"">Agent A","null","","","","",""
"null","","","video-keyboard-response","361","849051","0.0-361.0","ow3vo1cr","","","null","","Agent A","scrambled","STIM_SET_1/1160127.bmp_pp90_L2_V1.0_scrambled_freeview_isoFalse.mp4",""
"null","","","html-keyboard-response","362","850555","0.0-362.0","ow3vo1cr","","<span style=""color:Black; font-size:50px;"">Agent B","null","","","","",""
"null","","","video-keyboard-response","363","853631","0.0-363.0","ow3vo1cr","","","null","","Agent B","veridical","STIM_SET_1/1160127.bmp_pp90_L2_V1.0_veridical_freeview_isoFalse.mp4",""
"","","","call-function","364","853631","0.0-364.0","ow3vo1cr","","","","","","","",""
"1943.609999999986","{""judgement"":1}","[0]","survey-likert","365","855576","0.0-365.0","ow3vo1cr","","","","","","","","1"
"2092.194999999949","{""confidence"":3}","[0]","survey-likert","366","857669","0.0-366.0","ow3vo1cr","","","","","","","",""
"","","","call-function","367","857670","0.0-367.0","ow3vo1cr","","","","","","","",""
"null","","","html-keyboard-response","368","859176","0.0-368.0","ow3vo1cr","","<span style=""color:Black; font-size:50px;"">Agent A","null","","","","",""
"null","","","video-keyboard-response","369","862257","0.0-369.0","ow3vo1cr","","","null","","Agent A","scrambled","STIM_SET_1/1159777.bmp_pp77_L3_V1.0_scrambled_freeview_isoFalse.mp4",""
"null","","","html-keyboard-response","370","863760","0.0-370.0","ow3vo1cr","","<span style=""color:Black; font-size:50px;"">Agent B","null","","","","",""
"null","","","video-keyboard-response","371","866840","0.0-371.0","ow3vo1cr","","","null","","Agent B","veridical","STIM_SET_1/1159777.bmp_pp77_L3_V1.0_veridical_freeview_isoFalse.mp4",""
"","","","call-function","372","866840","0.0-372.0","ow3vo1cr","","","","","","","",""
"2162.1199999999953","{""judgement"":1}","[0]","survey-likert","373","869003","0.0-373.0","ow3vo1cr","","","","","","","","1"
"1624.1650000000373","{""confidence"":1}","[0]","survey-likert","374","870628","0.0-374.0","ow3vo1cr","","","","","","","",""
"","","","call-function","375","870629","0.0-375.0","ow3vo1cr","","","","","","","",""
"null","","","html-keyboard-response","376","872131","0.0-376.0","ow3vo1cr","","<span style=""color:Black; font-size:50px;"">Agent A","null","","","","",""
"null","","","video-keyboard-response","377","875201","0.0-377.0","ow3vo1cr","","","null","","Agent A","veridical","STIM_SET_1/498170.bmp_pp153_L3_V1.0_veridical_freeview_isoFalse.mp4",""
"null","","","html-keyboard-response","378","876703","0.0-378.0","ow3vo1cr","","<span style=""color:Black; font-size:50px;"">Agent B","null","","","","",""
"null","","","video-keyboard-response","379","879772","0.0-379.0","ow3vo1cr","","","null","","Agent B","scrambled","STIM_SET_1/498170.bmp_pp153_L3_V1.0_scrambled_freeview_isoFalse.mp4",""
"","","","call-function","380","879773","0.0-380.0","ow3vo1cr","","","","","","","",""
"1729.344999999972","{""judgement"":1}","[0]","survey-likert","381","881503","0.0-381.0","ow3vo1cr","","","","","","","","0"
"2051.5650000000605","{""confidence"":2}","[0]","survey-likert","382","883556","0.0-382.0","ow3vo1cr","","","","","","","",""
"","","","call-function","383","883556","0.0-383.0","ow3vo1cr","","","","","","","",""
"null","","","html-keyboard-response","384","885057","0.0-384.0","ow3vo1cr","","<span style=""color:Black; font-size:50px;"">Agent A","null","","","","",""
"null","","","video-keyboard-response","385","888166","0.0-385.0","ow3vo1cr","","","null","","Agent A","veridical","STIM_SET_1/498111.bmp_pp88_L2_V1.0_veridical_freeview_isoFalse.mp4",""
"null","","","html-keyboard-response","386","889673","0.0-386.0","ow3vo1cr","","<span style=""color:Black; font-size:50px;"">Agent B","null","","","","",""
"null","","","video-keyboard-response","387","892783","0.0-387.0","ow3vo1cr","","","null","","Agent B","scrambled","STIM_SET_1/498111.bmp_pp88_L2_V1.0_scrambled_freeview_isoFalse.mp4",""
"","","","call-function","388","892784","0.0-388.0","ow3vo1cr","","","","","","","",""
"2108.0050000000047","{""judgement"":0}","[0]","survey-likert","389","894894","0.0-389.0","ow3vo1cr","","","","","","","","0"
"2199.82500000007","{""confidence"":3}","[0]","survey-likert","390","897095","0.0-390.0","ow3vo1cr","","","","","","","",""
"","","","call-function","391","897095","0.0-391.0","ow3vo1cr","","","","","","","",""
"null","","","html-keyboard-response","392","898599","0.0-392.0","ow3vo1cr","","<span style=""color:Black; font-size:50px;"">Agent A","null","","","","",""
"null","","","video-keyboard-response","393","901667","0.0-393.0","ow3vo1cr","","","null","","Agent A","scrambled","STIM_SET_1/713135.bmp_pp54_L2_V1.0_scrambled_freeview_isoFalse.mp4",""
"null","","","html-keyboard-response","394","903171","0.0-394.0","ow3vo1cr","","<span style=""color:Black; font-size:50px;"">Agent B","null","","","","",""
"null","","","video-keyboard-response","395","906242","0.0-395.0","ow3vo1cr","","","null","","Agent B","veridical","STIM_SET_1/713135.bmp_pp54_L2_V1.0_veridical_freeview_isoFalse.mp4",""
"","","","call-function","396","906243","0.0-396.0","ow3vo1cr","","","","","","","",""
"1696.1199999999953","{""judgement"":1}","[0]","survey-likert","397","907940","0.0-397.0","ow3vo1cr","","","","","","","","1"
"1596.7449999999953","{""confidence"":3}","[0]","survey-likert","398","909539","0.0-398.0","ow3vo1cr","","","","","","","",""
"","","","call-function","399","909539","0.0-399.0","ow3vo1cr","","","","","","","",""
"null","","","html-keyboard-response","400","911041","0.0-400.0","ow3vo1cr","","<span style=""color:Black; font-size:50px;"">Agent A","null","","","","",""
"null","","","video-keyboard-response","401","914108","0.0-401.0","ow3vo1cr","","","null","","Agent A","veridical","STIM_SET_1/1159447.bmp_pp70_L2_V1.0_veridical_freeview_isoFalse.mp4",""
"null","","","html-keyboard-response","402","915612","0.0-402.0","ow3vo1cr","","<span style=""color:Black; font-size:50px;"">Agent B","null","","","","",""
"null","","","video-keyboard-response","403","918680","0.0-403.0","ow3vo1cr","","","null","","Agent B","scrambled","STIM_SET_1/1159447.bmp_pp70_L2_V1.0_scrambled_freeview_isoFalse.mp4",""
"","","","call-function","404","918681","0.0-404.0","ow3vo1cr","","","","","","","",""
"3524.5899999999674","{""judgement"":1}","[0]","survey-likert","405","922206","0.0-405.0","ow3vo1cr","","","","","","","","0"
"1813.780000000028","{""confidence"":1}","[0]","survey-likert","406","924021","0.0-406.0","ow3vo1cr","","","","","","","",""
"","","","call-function","407","924022","0.0-407.0","ow3vo1cr","","","","","","","",""
"null","","","html-keyboard-response","408","925527","0.0-408.0","ow3vo1cr","","<span style=""color:Black; font-size:50px;"">Agent A","null","","","","",""
"null","","","video-keyboard-response","409","928639","0.0-409.0","ow3vo1cr","","","null","","Agent A","scrambled","STIM_SET_1/285994.bmp_pp92_L3_V1.0_scrambled_freeview_isoFalse.mp4",""
"null","","","html-keyboard-response","410","930144","0.0-410.0","ow3vo1cr","","<span style=""color:Black; font-size:50px;"">Agent B","null","","","","",""
"null","","","video-keyboard-response","411","933256","0.0-411.0","ow3vo1cr","","","null","","Agent B","veridical","STIM_SET_1/285994.bmp_pp92_L3_V1.0_veridical_freeview_isoFalse.mp4",""
"","","","call-function","412","933256","0.0-412.0","ow3vo1cr","","","","","","","",""
"1795.4150000000373","{""judgement"":1}","[0]","survey-likert","413","935053","0.0-413.0","ow3vo1cr","","","","","","","","1"
"1860.9149999999208","{""confidence"":3}","[0]","survey-likert","414","936915","0.0-414.0","ow3vo1cr","","","","","","","",""
"22809.14500000002","","","instructions","415","959725","0.0-415.0","ow3vo1cr","[{""page_index"":0,""viewing_time"":1401.875},{""page_index"":1,""viewing_time"":20659.040000000037},{""page_index"":2,""viewing_time"":748.0250000000233}]","","","","","","",""
"2256.3649999999907","","","instructions","416","961982","0.0-416.0","ow3vo1cr","[{""page_index"":0,""viewing_time"":709.3950000000186},{""page_index"":1,""viewing_time"":717.7899999999208},{""page_index"":2,""viewing_time"":829.0700000000652}]","","","","","","",""
"","","","call-function","417","961983","0.0-417.0","ow3vo1cr","","","","","","","",""
"null","","","html-keyboard-response","418","963487","0.0-418.0","ow3vo1cr","","<span style=""color:Black; font-size:50px;"">Agent A","null","","","","",""
"null","","","video-keyboard-response","419","966558","0.0-419.0","ow3vo1cr","","","null","","Agent A","veridical","STIM_SET_1/1160168.bmp_pp53_L2_V1.0_veridical_freeview_isoFalse.mp4",""
"null","","","html-keyboard-response","420","968060","0.0-420.0","ow3vo1cr","","<span style=""color:Black; font-size:50px;"">Agent B","null","","","","",""
"null","","","video-keyboard-response","421","971133","0.0-421.0","ow3vo1cr","","","null","","Agent B","scrambled","STIM_SET_1/1160168.bmp_pp53_L2_V1.0_scrambled_freeview_isoFalse.mp4",""
"","","","call-function","422","971134","0.0-422.0","ow3vo1cr","","","","","","","",""
"1899.5999999999767","{""judgement"":0}","[0]","survey-likert","423","973034","0.0-423.0","ow3vo1cr","","","","","","","","0"
"1748.8250000000698","{""confidence"":3}","[0]","survey-likert","424","974784","0.0-424.0","ow3vo1cr","","","","","","","",""
"","","","call-function","425","974785","0.0-425.0","ow3vo1cr","","","","","","","",""
"null","","","html-keyboard-response","426","976289","0.0-426.0","ow3vo1cr","","<span style=""color:Black; font-size:50px;"">Agent A","null","","","","",""
"null","","","video-keyboard-response","427","979357","0.0-427.0","ow3vo1cr","","","null","","Agent A","scrambled","STIM_SET_1/1592351.bmp_pp51_L1_V1.0_scrambled_freeview_isoFalse.mp4",""
"null","","","html-keyboard-response","428","980864","0.0-428.0","ow3vo1cr","","<span style=""color:Black; font-size:50px;"">Agent B","null","","","","",""
"null","","","video-keyboard-response","429","983930","0.0-429.0","ow3vo1cr","","","null","","Agent B","veridical","STIM_SET_1/1592351.bmp_pp51_L1_V1.0_veridical_freeview_isoFalse.mp4",""
"","","","call-function","430","983930","0.0-430.0","ow3vo1cr","","","","","","","",""
"2726.914999999921","{""judgement"":1}","[0]","survey-likert","431","986658","0.0-431.0","ow3vo1cr","","","","","","","","1"
"1822.7000000000698","{""confidence"":3}","[0]","survey-likert","432","988482","0.0-432.0","ow3vo1cr","","","","","","","",""
"","","","call-function","433","988483","0.0-433.0","ow3vo1cr","","","","","","","",""
"null","","","html-keyboard-response","434","989986","0.0-434.0","ow3vo1cr","","<span style=""color:Black; font-size:50px;"">Agent A","null","","","","",""
"null","","","video-keyboard-response","435","993110","0.0-435.0","ow3vo1cr","","","null","","Agent A","veridical","STIM_SET_1/1591954.bmp_pp62_L2_V1.0_veridical_freeview_isoFalse.mp4",""
"null","","","html-keyboard-response","436","994613","0.0-436.0","ow3vo1cr","","<span style=""color:Black; font-size:50px;"">Agent B","null","","","","",""
"null","","","video-keyboard-response","437","997742","0.0-437.0","ow3vo1cr","","","null","","Agent B","scrambled","STIM_SET_1/1591954.bmp_pp62_L2_V1.0_scrambled_freeview_isoFalse.mp4",""
"","","","call-function","438","997742","0.0-438.0","ow3vo1cr","","","","","","","",""
"2022.0999999999767","{""judgement"":0}","[0]","survey-likert","439","999765","0.0-439.0","ow3vo1cr","","","","","","","","0"
"1760.9750000000931","{""confidence"":3}","[0]","survey-likert","440","1001528","0.0-440.0","ow3vo1cr","","","","","","","",""
"","","","call-function","441","1001528","0.0-441.0","ow3vo1cr","","","","","","","",""
"null","","","html-keyboard-response","442","1003031","0.0-442.0","ow3vo1cr","","<span style=""color:Black; font-size:50px;"">Agent A","null","","","","",""
"null","","","video-keyboard-response","443","1006155","0.0-443.0","ow3vo1cr","","","null","","Agent A","veridical","STIM_SET_1/713666.bmp_pp97_L3_V1.0_veridical_freeview_isoFalse.mp4",""
"null","","","html-keyboard-response","444","1007657","0.0-444.0","ow3vo1cr","","<span style=""color:Black; font-size:50px;"">Agent B","null","","","","",""
"null","","","video-keyboard-response","445","1010735","0.0-445.0","ow3vo1cr","","","null","","Agent B","scrambled","STIM_SET_1/713666.bmp_pp97_L3_V1.0_scrambled_freeview_isoFalse.mp4",""
"","","","call-function","446","1010736","0.0-446.0","ow3vo1cr","","","","","","","",""
"2009.7000000000698","{""judgement"":0}","[0]","survey-likert","447","1012747","0.0-447.0","ow3vo1cr","","","","","","","","0"
"1318.719999999972","{""confidence"":3}","[0]","survey-likert","448","1014068","0.0-448.0","ow3vo1cr","","","","","","","",""
"","","","call-function","449","1014069","0.0-449.0","ow3vo1cr","","","","","","","",""
"null","","","html-keyboard-response","450","1015571","0.0-450.0","ow3vo1cr","","<span style=""color:Black; font-size:50px;"">Agent A","null","","","","",""
"null","","","video-keyboard-response","451","1018651","0.0-451.0","ow3vo1cr","","","null","","Agent A","scrambled","STIM_SET_1/712977.bmp_pp51_L1_V1.0_scrambled_freeview_isoFalse.mp4",""
"null","","","html-keyboard-response","452","1020154","0.0-452.0","ow3vo1cr","","<span style=""color:Black; font-size:50px;"">Agent B","null","","","","",""
"null","","","video-keyboard-response","453","1023234","0.0-453.0","ow3vo1cr","","","null","","Agent B","veridical","STIM_SET_1/712977.bmp_pp51_L1_V1.0_veridical_freeview_isoFalse.mp4",""
"","","","call-function","454","1023235","0.0-454.0","ow3vo1cr","","","","","","","",""
"2062.1650000000373","{""judgement"":0}","[0]","survey-likert","455","1025298","0.0-455.0","ow3vo1cr","","","","","","","","1"
"3792.0849999999627","{""confidence"":3}","[0]","survey-likert","456","1029091","0.0-456.0","ow3vo1cr","","","","","","","",""
"","","","call-function","457","1029092","0.0-457.0","ow3vo1cr","","","","","","","",""
"null","","","html-keyboard-response","458","1030598","0.0-458.0","ow3vo1cr","","<span style=""color:Black; font-size:50px;"">Agent A","null","","","","",""
"null","","","video-keyboard-response","459","1033670","0.0-459.0","ow3vo1cr","","","null","","Agent A","scrambled","STIM_SET_1/1592890.bmp_pp82_L2_V1.0_scrambled_freeview_isoFalse.mp4",""
"null","","","html-keyboard-response","460","1035174","0.0-460.0","ow3vo1cr","","<span style=""color:Black; font-size:50px;"">Agent B","null","","","","",""
"null","","","video-keyboard-response","461","1038244","0.0-461.0","ow3vo1cr","","","null","","Agent B","veridical","STIM_SET_1/1592890.bmp_pp82_L2_V1.0_veridical_freeview_isoFalse.mp4",""
"","","","call-function","462","1038245","0.0-462.0","ow3vo1cr","","","","","","","",""
"1823.0400000000373","{""judgement"":0}","[0]","survey-likert","463","1040069","0.0-463.0","ow3vo1cr","","","","","","","","1"
"2694.655000000028","{""confidence"":3}","[0]","survey-likert","464","1042764","0.0-464.0","ow3vo1cr","","","","","","","",""
"","","","call-function","465","1042765","0.0-465.0","ow3vo1cr","","","","","","","",""
"null","","","html-keyboard-response","466","1044271","0.0-466.0","ow3vo1cr","","<span style=""color:Black; font-size:50px;"">Agent A","null","","","","",""
"null","","","video-keyboard-response","467","1047345","0.0-467.0","ow3vo1cr","","","null","","Agent A","veridical","STIM_SET_1/497950.bmp_pp151_L1_V1.0_veridical_freeview_isoFalse.mp4",""
"null","","","html-keyboard-response","468","1048848","0.0-468.0","ow3vo1cr","","<span style=""color:Black; font-size:50px;"">Agent B","null","","","","",""
"null","","","video-keyboard-response","469","1051920","0.0-469.0","ow3vo1cr","","","null","","Agent B","scrambled","STIM_SET_1/497950.bmp_pp151_L1_V1.0_scrambled_freeview_isoFalse.mp4",""
"","","","call-function","470","1051920","0.0-470.0","ow3vo1cr","","","","","","","",""
"2883.1299999998882","{""judgement"":0}","[0]","survey-likert","471","1054804","0.0-471.0","ow3vo1cr","","","","","","","","0"
"1734.9950000001118","{""confidence"":3}","[0]","survey-likert","472","1056540","0.0-472.0","ow3vo1cr","","","","","","","",""
"","","","call-function","473","1056541","0.0-473.0","ow3vo1cr","","","","","","","",""
"null","","","html-keyboard-response","474","1058046","0.0-474.0","ow3vo1cr","","<span style=""color:Black; font-size:50px;"">Agent A","null","","","","",""
"null","","","video-keyboard-response","475","1061158","0.0-475.0","ow3vo1cr","","","null","","Agent A","veridical","STIM_SET_1/1159784.bmp_pp73_L3_V1.0_veridical_freeview_isoFalse.mp4",""
"null","","","html-keyboard-response","476","1062660","0.0-476.0","ow3vo1cr","","<span style=""color:Black; font-size:50px;"">Agent B","null","","","","",""
"null","","","video-keyboard-response","477","1065772","0.0-477.0","ow3vo1cr","","","null","","Agent B","scrambled","STIM_SET_1/1159784.bmp_pp73_L3_V1.0_scrambled_freeview_isoFalse.mp4",""
"","","","call-function","478","1065772","0.0-478.0","ow3vo1cr","","","","","","","",""
"1257.5900000000838","{""judgement"":0}","[0]","survey-likert","479","1067031","0.0-479.0","ow3vo1cr","","","","","","","","0"
"2488.939999999944","{""confidence"":3}","[0]","survey-likert","480","1069521","0.0-480.0","ow3vo1cr","","","","","","","",""
"","","","call-function","481","1069522","0.0-481.0","ow3vo1cr","","","","","","","",""
"null","","","html-keyboard-response","482","1071023","0.0-482.0","ow3vo1cr","","<span style=""color:Black; font-size:50px;"">Agent A","null","","","","",""
"null","","","video-keyboard-response","483","1074123","0.0-483.0","ow3vo1cr","","","null","","Agent A","veridical","STIM_SET_1/1592727.bmp_pp59_L3_V1.0_veridical_freeview_isoFalse.mp4",""
"null","","","html-keyboard-response","484","1075630","0.0-484.0","ow3vo1cr","","<span style=""color:Black; font-size:50px;"">Agent B","null","","","","",""
"null","","","video-keyboard-response","485","1078725","0.0-485.0","ow3vo1cr","","","null","","Agent B","scrambled","STIM_SET_1/1592727.bmp_pp59_L3_V1.0_scrambled_freeview_isoFalse.mp4",""
"","","","call-function","486","1078726","0.0-486.0","ow3vo1cr","","","","","","","",""
"2832.719999999972","{""judgement"":0}","[0]","survey-likert","487","1081560","0.0-487.0","ow3vo1cr","","","","","","","","0"
"1815.535000000149","{""confidence"":3}","[0]","survey-likert","488","1083377","0.0-488.0","ow3vo1cr","","","","","","","",""
"","","","call-function","489","1083377","0.0-489.0","ow3vo1cr","","","","","","","",""
"null","","","html-keyboard-response","490","1084880","0.0-490.0","ow3vo1cr","","<span style=""color:Black; font-size:50px;"">Agent A","null","","","","",""
"null","","","video-keyboard-response","491","1087951","0.0-491.0","ow3vo1cr","","","null","","Agent A","veridical","STIM_SET_1/1159621.bmp_pp92_L3_V1.0_veridical_freeview_isoFalse.mp4",""
"null","","","html-keyboard-response","492","1089456","0.0-492.0","ow3vo1cr","","<span style=""color:Black; font-size:50px;"">Agent B","null","","","","",""
"null","","","video-keyboard-response","493","1092526","0.0-493.0","ow3vo1cr","","","null","","Agent B","scrambled","STIM_SET_1/1159621.bmp_pp92_L3_V1.0_scrambled_freeview_isoFalse.mp4",""
"","","","call-function","494","1092526","0.0-494.0","ow3vo1cr","","","","","","","",""
"2425.7549999998882","{""judgement"":0}","[0]","survey-likert","495","1094953","0.0-495.0","ow3vo1cr","","","","","","","","0"
"1265.8950000000186","{""confidence"":3}","[0]","survey-likert","496","1096220","0.0-496.0","ow3vo1cr","","","","","","","",""
"16778.594999999972","","","instructions","497","1113000","0.0-497.0","ow3vo1cr","[{""page_index"":0,""viewing_time"":1618.5049999998882},{""page_index"":1,""viewing_time"":8749.145000000019},{""page_index"":2,""viewing_time"":6410.739999999991}]","","","","","","",""
"3142.5400000000373","","","instructions","498","1116144","0.0-498.0","ow3vo1cr","[{""page_index"":0,""viewing_time"":1016.5400000000373},{""page_index"":1,""viewing_time"":890.7649999998976},{""page_index"":2,""viewing_time"":1235.130000000121}]","","","","","","",""
"","","","call-function","499","1116145","0.0-499.0","ow3vo1cr","","","","","","","",""
"null","","","html-keyboard-response","500","1117649","0.0-500.0","ow3vo1cr","","<span style=""color:Black; font-size:50px;"">Agent A","null","","","","",""
"null","","","video-keyboard-response","501","1120717","0.0-501.0","ow3vo1cr","","","null","","Agent A","scrambled","STIM_SET_1/1159572.bmp_pp71_L1_V1.0_scrambled_freeview_isoFalse.mp4",""
"null","","","html-keyboard-response","502","1122221","0.0-502.0","ow3vo1cr","","<span style=""color:Black; font-size:50px;"">Agent B","null","","","","",""
"null","","","video-keyboard-response","503","1125290","0.0-503.0","ow3vo1cr","","","null","","Agent B","veridical","STIM_SET_1/1159572.bmp_pp71_L1_V1.0_veridical_freeview_isoFalse.mp4",""
"","","","call-function","504","1125290","0.0-504.0","ow3vo1cr","","","","","","","",""
"1695.0249999999069","{""judgement"":1}","[0]","survey-likert","505","1126987","0.0-505.0","ow3vo1cr","","","","","","","","1"
"1538.8100000000559","{""confidence"":3}","[0]","survey-likert","506","1128527","0.0-506.0","ow3vo1cr","","","","","","","",""
"","","","call-function","507","1128528","0.0-507.0","ow3vo1cr","","","","","","","",""
"null","","","html-keyboard-response","508","1130030","0.0-508.0","ow3vo1cr","","<span style=""color:Black; font-size:50px;"">Agent A","null","","","","",""
"null","","","video-keyboard-response","509","1133088","0.0-509.0","ow3vo1cr","","","null","","Agent A","veridical","STIM_SET_1/713684.bmp_pp85_L3_V1.0_veridical_freeview_isoFalse.mp4",""
"null","","","html-keyboard-response","510","1134593","0.0-510.0","ow3vo1cr","","<span style=""color:Black; font-size:50px;"">Agent B","null","","","","",""
"null","","","video-keyboard-response","511","1137651","0.0-511.0","ow3vo1cr","","","null","","Agent B","scrambled","STIM_SET_1/713684.bmp_pp85_L3_V1.0_scrambled_freeview_isoFalse.mp4",""
"","","","call-function","512","1137651","0.0-512.0","ow3vo1cr","","","","","","","",""
"3396.0749999999534","{""judgement"":0}","[0]","survey-likert","513","1141048","0.0-513.0","ow3vo1cr","","","","","","","","0"
"2453.4250000000466","{""confidence"":2}","[0]","survey-likert","514","1143503","0.0-514.0","ow3vo1cr","","","","","","","",""
"","","","call-function","515","1143503","0.0-515.0","ow3vo1cr","","","","","","","",""
"null","","","html-keyboard-response","516","1145004","0.0-516.0","ow3vo1cr","","<span style=""color:Black; font-size:50px;"">Agent A","null","","","","",""
"null","","","video-keyboard-response","517","1148127","0.0-517.0","ow3vo1cr","","","null","","Agent A","scrambled","STIM_SET_1/713749.bmp_pp88_L2_V1.0_scrambled_freeview_isoFalse.mp4",""
"null","","","html-keyboard-response","518","1149629","0.0-518.0","ow3vo1cr","","<span style=""color:Black; font-size:50px;"">Agent B","null","","","","",""
"null","","","video-keyboard-response","519","1152743","0.0-519.0","ow3vo1cr","","","null","","Agent B","veridical","STIM_SET_1/713749.bmp_pp88_L2_V1.0_veridical_freeview_isoFalse.mp4",""
"","","","call-function","520","1152743","0.0-520.0","ow3vo1cr","","","","","","","",""
"2709.090000000084","{""judgement"":1}","[0]","survey-likert","521","1155453","0.0-521.0","ow3vo1cr","","","","","","","","1"
"1582.7299999999814","{""confidence"":3}","[0]","survey-likert","522","1157037","0.0-522.0","ow3vo1cr","","","","","","","",""
"","","","call-function","523","1157037","0.0-523.0","ow3vo1cr","","","","","","","",""
"null","","","html-keyboard-response","524","1158539","0.0-524.0","ow3vo1cr","","<span style=""color:Black; font-size:50px;"">Agent A","null","","","","",""
"null","","","video-keyboard-response","525","1161646","0.0-525.0","ow3vo1cr","","","null","","Agent A","scrambled","STIM_SET_1/713089.bmp_pp60_L3_V1.0_scrambled_freeview_isoFalse.mp4",""
"null","","","html-keyboard-response","526","1163152","0.0-526.0","ow3vo1cr","","<span style=""color:Black; font-size:50px;"">Agent B","null","","","","",""
"null","","","video-keyboard-response","527","1166258","0.0-527.0","ow3vo1cr","","","null","","Agent B","veridical","STIM_SET_1/713089.bmp_pp60_L3_V1.0_veridical_freeview_isoFalse.mp4",""
"","","","call-function","528","1166258","0.0-528.0","ow3vo1cr","","","","","","","",""
"1562.0800000000745","{""judgement"":0}","[0]","survey-likert","529","1167821","0.0-529.0","ow3vo1cr","","","","","","","","1"
"1470.030000000028","{""confidence"":3}","[0]","survey-likert","530","1169292","0.0-530.0","ow3vo1cr","","","","","","","",""
"","","","call-function","531","1169293","0.0-531.0","ow3vo1cr","","","","","","","",""
"null","","","html-keyboard-response","532","1170796","0.0-532.0","ow3vo1cr","","<span style=""color:Black; font-size:50px;"">Agent A","null","","","","",""
"null","","","video-keyboard-response","533","1173907","0.0-533.0","ow3vo1cr","","","null","","Agent A","scrambled","STIM_SET_1/1593035.bmp_pp94_L2_V1.0_scrambled_freeview_isoFalse.mp4",""
"null","","","html-keyboard-response","534","1175413","0.0-534.0","ow3vo1cr","","<span style=""color:Black; font-size:50px;"">Agent B","null","","","","",""
"null","","","video-keyboard-response","535","1178519","0.0-535.0","ow3vo1cr","","","null","","Agent B","veridical","STIM_SET_1/1593035.bmp_pp94_L2_V1.0_veridical_freeview_isoFalse.mp4",""
"","","","call-function","536","1178520","0.0-536.0","ow3vo1cr","","","","","","","",""
"1679.8349999999627","{""judgement"":1}","[0]","survey-likert","537","1180201","0.0-537.0","ow3vo1cr","","","","","","","","1"
"1814.1650000000373","{""confidence"":3}","[0]","survey-likert","538","1182016","0.0-538.0","ow3vo1cr","","","","","","","",""
"","","","call-function","539","1182017","0.0-539.0","ow3vo1cr","","","","","","","",""
"null","","","html-keyboard-response","540","1183521","0.0-540.0","ow3vo1cr","","<span style=""color:Black; font-size:50px;"">Agent A","null","","","","",""
"null","","","video-keyboard-response","541","1186596","0.0-541.0","ow3vo1cr","","","null","","Agent A","scrambled","STIM_SET_1/1592804.bmp_pp91_L3_V1.0_scrambled_freeview_isoFalse.mp4",""
"null","","","html-keyboard-response","542","1188101","0.0-542.0","ow3vo1cr","","<span style=""color:Black; font-size:50px;"">Agent B","null","","","","",""
"null","","","video-keyboard-response","543","1191179","0.0-543.0","ow3vo1cr","","","null","","Agent B","veridical","STIM_SET_1/1592804.bmp_pp91_L3_V1.0_veridical_freeview_isoFalse.mp4",""
"","","","call-function","544","1191181","0.0-544.0","ow3vo1cr","","","","","","","",""
"2005.9899999999907","{""judgement"":0}","[0]","survey-likert","545","1193189","0.0-545.0","ow3vo1cr","","","","","","","","1"
"1924.0400000000373","{""confidence"":1}","[0]","survey-likert","546","1195115","0.0-546.0","ow3vo1cr","","","","","","","",""
"","","","call-function","547","1195117","0.0-547.0","ow3vo1cr","","","","","","","",""
"null","","","html-keyboard-response","548","1196624","0.0-548.0","ow3vo1cr","","<span style=""color:Black; font-size:50px;"">Agent A","null","","","","",""
"null","","","video-keyboard-response","549","1199703","0.0-549.0","ow3vo1cr","","","null","","Agent A","veridical","STIM_SET_1/498175.bmp_pp154_L1_V1.0_veridical_freeview_isoFalse.mp4",""
"null","","","html-keyboard-response","550","1201207","0.0-550.0","ow3vo1cr","","<span style=""color:Black; font-size:50px;"">Agent B","null","","","","",""
"null","","","video-keyboard-response","551","1204287","0.0-551.0","ow3vo1cr","","","null","","Agent B","scrambled","STIM_SET_1/498175.bmp_pp154_L1_V1.0_scrambled_freeview_isoFalse.mp4",""
"","","","call-function","552","1204288","0.0-552.0","ow3vo1cr","","","","","","","",""
"2028.869999999879","{""judgement"":0}","[0]","survey-likert","553","1206318","0.0-553.0","ow3vo1cr","","","","","","","","0"
"1835.1049999999814","{""confidence"":3}","[0]","survey-likert","554","1208154","0.0-554.0","ow3vo1cr","","","","","","","",""
"","","","call-function","555","1208155","0.0-555.0","ow3vo1cr","","","","","","","",""
"null","","","html-keyboard-response","556","1209658","0.0-556.0","ow3vo1cr","","<span style=""color:Black; font-size:50px;"">Agent A","null","","","","",""
"null","","","video-keyboard-response","557","1212732","0.0-557.0","ow3vo1cr","","","null","","Agent A","veridical","STIM_SET_1/1159515.bmp_pp84_L3_V1.0_veridical_freeview_isoFalse.mp4",""
"null","","","html-keyboard-response","558","1214234","0.0-558.0","ow3vo1cr","","<span style=""color:Black; font-size:50px;"">Agent B","null","","","","",""
"null","","","video-keyboard-response","559","1217307","0.0-559.0","ow3vo1cr","","","null","","Agent B","scrambled","STIM_SET_1/1159515.bmp_pp84_L3_V1.0_scrambled_freeview_isoFalse.mp4",""
"","","","call-function","560","1217308","0.0-560.0","ow3vo1cr","","","","","","","",""
"2147.054999999935","{""judgement"":0}","[0]","survey-likert","561","1219456","0.0-561.0","ow3vo1cr","","","","","","","","0"
"1584.9300000001676","{""confidence"":3}","[0]","survey-likert","562","1221042","0.0-562.0","ow3vo1cr","","","","","","","",""
"","","","call-function","563","1221043","0.0-563.0","ow3vo1cr","","","","","","","",""
"null","","","html-keyboard-response","564","1222547","0.0-564.0","ow3vo1cr","","<span style=""color:Black; font-size:50px;"">Agent A","null","","","","",""
"null","","","video-keyboard-response","565","1225667","0.0-565.0","ow3vo1cr","","","null","","Agent A","scrambled","STIM_SET_1/498253.bmp_pp67_L2_V1.0_scrambled_freeview_isoFalse.mp4",""
"null","","","html-keyboard-response","566","1227172","0.0-566.0","ow3vo1cr","","<span style=""color:Black; font-size:50px;"">Agent B","null","","","","",""
"null","","","video-keyboard-response","567","1230289","0.0-567.0","ow3vo1cr","","","null","","Agent B","veridical","STIM_SET_1/498253.bmp_pp67_L2_V1.0_veridical_freeview_isoFalse.mp4",""
"","","","call-function","568","1230289","0.0-568.0","ow3vo1cr","","","","","","","",""
"2329.4149999998044","{""judgement"":0}","[0]","survey-likert","569","1232620","0.0-569.0","ow3vo1cr","","","","","","","","1"
"2049.7649999998976","{""confidence"":2}","[0]","survey-likert","570","1234671","0.0-570.0","ow3vo1cr","","","","","","","",""
"","","","call-function","571","1234671","0.0-571.0","ow3vo1cr","","","","","","","",""
"null","","","html-keyboard-response","572","1236178","0.0-572.0","ow3vo1cr","","<span style=""color:Black; font-size:50px;"">Agent A","null","","","","",""
"null","","","video-keyboard-response","573","1239265","0.0-573.0","ow3vo1cr","","","null","","Agent A","scrambled","STIM_SET_1/1593041.bmp_pp58_L1_V1.0_scrambled_freeview_isoFalse.mp4",""
"null","","","html-keyboard-response","574","1240768","0.0-574.0","ow3vo1cr","","<span style=""color:Black; font-size:50px;"">Agent B","null","","","","",""
"null","","","video-keyboard-response","575","1243856","0.0-575.0","ow3vo1cr","","","null","","Agent B","veridical","STIM_SET_1/1593041.bmp_pp58_L1_V1.0_veridical_freeview_isoFalse.mp4",""
"","","","call-function","576","1243856","0.0-576.0","ow3vo1cr","","","","","","","",""
"5447.600000000093","{""judgement"":1}","[0]","survey-likert","577","1249305","0.0-577.0","ow3vo1cr","","","","","","","","1"
"1603.8049999999348","{""confidence"":0}","[0]","survey-likert","578","1250910","0.0-578.0","ow3vo1cr","","","","","","","",""
"1121.3400000000838","","","instructions","579","1252032","0.0-579.0","ow3vo1cr","[{""page_index"":0,""viewing_time"":1121.2099999999627}]","","","","","","",""
"2117.304999999935","","","instructions","580","1254150","0.0-580.0","ow3vo1cr","[{""page_index"":0,""viewing_time"":2117.1999999999534}]","","","","","","",""
"8879.505000000121","{""post-1"":2}","[0]","survey-likert","581","1263030","0.0-581.0","ow3vo1cr","","","","","","","",""
"13291.534999999916","{""post-1"":1}","[0]","survey-likert","582","1276323","0.0-582.0","ow3vo1cr","","","","","","","",""
"8480.869999999879","{""post-2"":1}","[0]","survey-likert","583","1284806","0.0-583.0","ow3vo1cr","","","","","","","",""
"8889.695000000065","{""post-2"":0}","[0]","survey-likert","584","1293698","0.0-584.0","ow3vo1cr","","","","","","","",""
"4833.975000000093","{""post-3"":2}","[0]","survey-likert","585","1298533","0.0-585.0","ow3vo1cr","","","","","","","",""
"6247.364999999991","{""post-3"":2}","[0]","survey-likert","586","1304782","0.0-586.0","ow3vo1cr","","","","","","","",""
"7005.985000000102","{""post-4"":0}","[0]","survey-likert","587","1311789","0.0-587.0","ow3vo1cr","","","","","","","",""
"4591.98499999987","{""post-4"":0}","[0]","survey-likert","588","1316383","0.0-588.0","ow3vo1cr","","","","","","","",""
"4238.389999999898","{""post-5"":1}","[0]","survey-likert","589","1320622","0.0-589.0","ow3vo1cr","","","","","","","",""
"2769.340000000084","{""post-5"":2}","[0]","survey-likert","590","1323393","0.0-590.0","ow3vo1cr","","","","","","","",""
"103621.04500000016","{""Q0"":""I was surprised at how difficult it seemed to be to weigh which of the two videos seemed to be from an actual responder, and only really came up with a strategy on how to do so by the fifth set of videos - at this point, I began tracing the path of the eye to see whether the movements made appeared realistic, rather than focusing on the amount of time spent on the content of the image (unless the content pathway was something attention-catching like text or faces).""}","","survey-text","591","1427020","0.0-591.0","ow3vo1cr","","","","","","","",""
"154769.625","{""Q0"":""As stated in my prior response, I started out by focusing heavily on the amount of time spent looking at certain hotspots on screen, especially those I felt a human observer would pay more attention to. However, I soon realized that paying attention to the pathway of the eye and the way the eye switched from spot to spot was more distinguishing, and used those features to generate more confident results. Personally, I found that images which used a wide range of space for the eye to roam in focus points were far easier than images where the focus points were tightly clustered, a difficulty gradient that existed for both of my strategies.""}","","survey-text","592","1581794","0.0-592.0","ow3vo1cr","","","","","","","",""
"63795.02499999991","{""Q0"":""As stated previously, images with clustered focus points or a small number of focus points threw me off, and I often felt I had very little time to get a sense of the agent's attentive movements or the content of the picture before it was time for me to make a comparison.""}","","survey-text","593","1645593","0.0-593.0","ow3vo1cr","","","","","","","",""
"2316.654999999795","","","instructions","594","1647911","0.0-594.0","ow3vo1cr","[{""page_index"":0,""viewing_time"":2316.0999999998603}]","","","","","","",""
"59311.34499999997","{""Experimenter_end"":[""Printed ID# ow3vo1cr on consent form"",""Given subject SONA credit or payment"",""Given the subject debrief form""]}","[0]","survey-multi-select","595","1707225","0.0-595.0","ow3vo1cr","","","","","","","",""
