"rt","responses","question_order","trial_type","trial_index","time_elapsed","internal_node_id","ID","view_history","stimulus","key_press","value","agent","condition","image","correct_answer"
"18488.190000000002","{""Experimenter"":[""Confirmed subject's identity (ID card)"",""Confirmed normal or corrected-to-normal vision"",""Obtained consent (signature and date)"",""Checked the test room lighting"",""Checked computer screen lighting"",""Checked distance from screen to chin rest (50cm)"",""Cleaned and adjusted chin rest"",""Counterbalanced the order of the tasks"",""Opened the experiment in Firefox"",""Made the experiment full screen"",""Encouraged subject to silence phone, put away distractors, etc.""]}","[0]","survey-multi-select","0","18546","0.0-0.0","oy5a3mcb","","","","","","","",""
"14078.135000000002","","","instructions","1","32626","0.0-1.0","oy5a3mcb","[{""page_index"":0,""viewing_time"":14077.965000000004}]","","","","","","",""
"7261.93","","","instructions","2","39890","0.0-2.0","oy5a3mcb","[{""page_index"":0,""viewing_time"":903.6800000000003},{""page_index"":1,""viewing_time"":2081.875},{""page_index"":2,""viewing_time"":4276.239999999998}]","","","","","","",""
"1561.4749999999985","","","instructions","3","41453","0.0-3.0","oy5a3mcb","[{""page_index"":0,""viewing_time"":1561.3550000000032}]","","","","","","",""
"null","","","video-keyboard-response","4","44533","0.0-4.0","oy5a3mcb","","","null","","","","",""
"10728.43","","","instructions","5","55263","0.0-5.0","oy5a3mcb","[{""page_index"":0,""viewing_time"":2445.0149999999994},{""page_index"":1,""viewing_time"":1926.280000000006},{""page_index"":2,""viewing_time"":1114.844999999994},{""page_index"":3,""viewing_time"":2186.8350000000064},{""page_index"":4,""viewing_time"":3055.3050000000003}]","","","","","","",""
"7332.125","","","instructions","6","62597","0.0-6.0","oy5a3mcb","[{""page_index"":0,""viewing_time"":7331.9649999999965}]","","","","","","",""
"","","","call-function","7","62599","0.0-7.0","oy5a3mcb","","","","","","","",""
"null","","","html-keyboard-response","8","64102","0.0-8.0","oy5a3mcb","","<span style=""color:Black; font-size:50px;"">Agent A","null","","","","",""
"null","","","video-keyboard-response","9","66951","0.0-9.0","oy5a3mcb","","","null","","Agent A","scrambled","FOR_REV_BLOBBY_STIM/285751.bmp_pp55_L3_V1.0_veridical_freeview_isoFalse_fps144_reversed_REAL.mp4",""
"null","","","html-keyboard-response","10","68452","0.0-10.0","oy5a3mcb","","<span style=""color:Black; font-size:50px;"">Agent B","null","","","","",""
"null","","","video-keyboard-response","11","71365","0.0-11.0","oy5a3mcb","","","null","","Agent B","veridical","FOR_REV_BLOBBY_STIM/285751.bmp_pp55_L3_V1.0_veridical_freeview_isoFalse_fps144.mp4",""
"","","","call-function","12","71367","0.0-12.0","oy5a3mcb","","","","","","","",""
"3163.5449999999983","{""judgement"":1}","[0]","survey-likert","13","74531","0.0-13.0","oy5a3mcb","","","","","","","","1"
"2768.3650000000052","{""confidence"":2}","[0]","survey-likert","14","77302","0.0-14.0","oy5a3mcb","","","","","","","",""
"","","","call-function","15","77303","0.0-15.0","oy5a3mcb","","","","","","","",""
"null","","","html-keyboard-response","16","78805","0.0-16.0","oy5a3mcb","","<span style=""color:Black; font-size:50px;"">Agent A","null","","","","",""
"null","","","video-keyboard-response","17","81691","0.0-17.0","oy5a3mcb","","","null","","Agent A","veridical","FOR_REV_BLOBBY_STIM/1591961.bmp_pp67_L2_V1.0_veridical_freeview_isoFalse_fps144.mp4",""
"null","","","html-keyboard-response","18","83195","0.0-18.0","oy5a3mcb","","<span style=""color:Black; font-size:50px;"">Agent B","null","","","","",""
"null","","","video-keyboard-response","19","86057","0.0-19.0","oy5a3mcb","","","null","","Agent B","scrambled","FOR_REV_BLOBBY_STIM/1591961.bmp_pp67_L2_V1.0_veridical_freeview_isoFalse_fps144_reversed_REAL.mp4",""
"","","","call-function","20","86058","0.0-20.0","oy5a3mcb","","","","","","","",""
"1786.5350000000035","{""judgement"":0}","[0]","survey-likert","21","87847","0.0-21.0","oy5a3mcb","","","","","","","","0"
"1140.4000000000087","{""confidence"":1}","[0]","survey-likert","22","88990","0.0-22.0","oy5a3mcb","","","","","","","",""
"","","","call-function","23","88992","0.0-23.0","oy5a3mcb","","","","","","","",""
"null","","","html-keyboard-response","24","90493","0.0-24.0","oy5a3mcb","","<span style=""color:Black; font-size:50px;"">Agent A","null","","","","",""
"null","","","video-keyboard-response","25","93361","0.0-25.0","oy5a3mcb","","","null","","Agent A","scrambled","FOR_REV_BLOBBY_STIM/1159882.bmp_pp61_L2_V1.0_veridical_freeview_isoFalse_fps144_reversed_REAL.mp4",""
"null","","","html-keyboard-response","26","94874","0.0-26.0","oy5a3mcb","","<span style=""color:Black; font-size:50px;"">Agent B","null","","","","",""
"null","","","video-keyboard-response","27","97750","0.0-27.0","oy5a3mcb","","","null","","Agent B","veridical","FOR_REV_BLOBBY_STIM/1159882.bmp_pp61_L2_V1.0_veridical_freeview_isoFalse_fps144.mp4",""
"","","","call-function","28","97752","0.0-28.0","oy5a3mcb","","","","","","","",""
"2610.12999999999","{""judgement"":1}","[0]","survey-likert","29","100364","0.0-29.0","oy5a3mcb","","","","","","","","1"
"1198.6399999999994","{""confidence"":2}","[0]","survey-likert","30","101565","0.0-30.0","oy5a3mcb","","","","","","","",""
"","","","call-function","31","101566","0.0-31.0","oy5a3mcb","","","","","","","",""
"null","","","html-keyboard-response","32","103073","0.0-32.0","oy5a3mcb","","<span style=""color:Black; font-size:50px;"">Agent A","null","","","","",""
"null","","","video-keyboard-response","33","105616","0.0-33.0","oy5a3mcb","","","null","","Agent A","veridical","FOR_REV_BLOBBY_STIM/713760.bmp_pp81_L1_V1.0_veridical_freeview_isoFalse_fps144.mp4",""
"null","","","html-keyboard-response","34","107121","0.0-34.0","oy5a3mcb","","<span style=""color:Black; font-size:50px;"">Agent B","null","","","","",""
"null","","","video-keyboard-response","35","109669","0.0-35.0","oy5a3mcb","","","null","","Agent B","scrambled","FOR_REV_BLOBBY_STIM/713760.bmp_pp81_L1_V1.0_veridical_freeview_isoFalse_fps144_reversed_REAL.mp4",""
"","","","call-function","36","109671","0.0-36.0","oy5a3mcb","","","","","","","",""
"1484.5449999999983","{""judgement"":1}","[0]","survey-likert","37","111157","0.0-37.0","oy5a3mcb","","","","","","","","0"
"1748.8500000000058","{""confidence"":1}","[0]","survey-likert","38","112908","0.0-38.0","oy5a3mcb","","","","","","","",""
"","","","call-function","39","112910","0.0-39.0","oy5a3mcb","","","","","","","",""
"null","","","html-keyboard-response","40","114411","0.0-40.0","oy5a3mcb","","<span style=""color:Black; font-size:50px;"">Agent A","null","","","","",""
"null","","","video-keyboard-response","41","116955","0.0-41.0","oy5a3mcb","","","null","","Agent A","veridical","FOR_REV_BLOBBY_STIM/1591876.bmp_pp63_L1_V1.0_veridical_freeview_isoFalse_fps144.mp4",""
"null","","","html-keyboard-response","42","118457","0.0-42.0","oy5a3mcb","","<span style=""color:Black; font-size:50px;"">Agent B","null","","","","",""
"null","","","video-keyboard-response","43","121023","0.0-43.0","oy5a3mcb","","","null","","Agent B","scrambled","FOR_REV_BLOBBY_STIM/1591876.bmp_pp63_L1_V1.0_veridical_freeview_isoFalse_fps144_reversed_REAL.mp4",""
"","","","call-function","44","121024","0.0-44.0","oy5a3mcb","","","","","","","",""
"2022.8699999999953","{""judgement"":0}","[0]","survey-likert","45","123048","0.0-45.0","oy5a3mcb","","","","","","","","0"
"2613.1849999999977","{""confidence"":3}","[0]","survey-likert","46","125664","0.0-46.0","oy5a3mcb","","","","","","","",""
"","","","call-function","47","125665","0.0-47.0","oy5a3mcb","","","","","","","",""
"null","","","html-keyboard-response","48","127168","0.0-48.0","oy5a3mcb","","<span style=""color:Black; font-size:50px;"">Agent A","null","","","","",""
"null","","","video-keyboard-response","49","129983","0.0-49.0","oy5a3mcb","","","null","","Agent A","scrambled","FOR_REV_BLOBBY_STIM/1159784.bmp_pp73_L3_V1.0_veridical_freeview_isoFalse_fps144_reversed_REAL.mp4",""
"null","","","html-keyboard-response","50","131486","0.0-50.0","oy5a3mcb","","<span style=""color:Black; font-size:50px;"">Agent B","null","","","","",""
"null","","","video-keyboard-response","51","134304","0.0-51.0","oy5a3mcb","","","null","","Agent B","veridical","FOR_REV_BLOBBY_STIM/1159784.bmp_pp73_L3_V1.0_veridical_freeview_isoFalse_fps144.mp4",""
"","","","call-function","52","134305","0.0-52.0","oy5a3mcb","","","","","","","",""
"2148.7699999999895","{""judgement"":0}","[0]","survey-likert","53","136455","0.0-53.0","oy5a3mcb","","","","","","","","1"
"1066.1350000000093","{""confidence"":1}","[0]","survey-likert","54","137523","0.0-54.0","oy5a3mcb","","","","","","","",""
"","","","call-function","55","137524","0.0-55.0","oy5a3mcb","","","","","","","",""
"null","","","html-keyboard-response","56","139029","0.0-56.0","oy5a3mcb","","<span style=""color:Black; font-size:50px;"">Agent A","null","","","","",""
"null","","","video-keyboard-response","57","141648","0.0-57.0","oy5a3mcb","","","null","","Agent A","scrambled","FOR_REV_BLOBBY_STIM/1592397.bmp_pp85_L3_V1.0_veridical_freeview_isoFalse_fps144_reversed_REAL.mp4",""
"null","","","html-keyboard-response","58","143153","0.0-58.0","oy5a3mcb","","<span style=""color:Black; font-size:50px;"">Agent B","null","","","","",""
"null","","","video-keyboard-response","59","145835","0.0-59.0","oy5a3mcb","","","null","","Agent B","veridical","FOR_REV_BLOBBY_STIM/1592397.bmp_pp85_L3_V1.0_veridical_freeview_isoFalse_fps144.mp4",""
"","","","call-function","60","145836","0.0-60.0","oy5a3mcb","","","","","","","",""
"1656.0849999999919","{""judgement"":0}","[0]","survey-likert","61","147493","0.0-61.0","oy5a3mcb","","","","","","","","1"
"1424.7149999999965","{""confidence"":2}","[0]","survey-likert","62","148920","0.0-62.0","oy5a3mcb","","","","","","","",""
"","","","call-function","63","148921","0.0-63.0","oy5a3mcb","","","","","","","",""
"null","","","html-keyboard-response","64","150437","0.0-64.0","oy5a3mcb","","<span style=""color:Black; font-size:50px;"">Agent A","null","","","","",""
"null","","","video-keyboard-response","65","153184","0.0-65.0","oy5a3mcb","","","null","","Agent A","scrambled","FOR_REV_BLOBBY_STIM/498149.bmp_pp99_L2_V1.0_veridical_freeview_isoFalse_fps144_reversed_REAL.mp4",""
"null","","","html-keyboard-response","66","154690","0.0-66.0","oy5a3mcb","","<span style=""color:Black; font-size:50px;"">Agent B","null","","","","",""
"null","","","video-keyboard-response","67","157371","0.0-67.0","oy5a3mcb","","","null","","Agent B","veridical","FOR_REV_BLOBBY_STIM/498149.bmp_pp99_L2_V1.0_veridical_freeview_isoFalse_fps144.mp4",""
"","","","call-function","68","157372","0.0-68.0","oy5a3mcb","","","","","","","",""
"1296.8800000000047","{""judgement"":0}","[0]","survey-likert","69","158670","0.0-69.0","oy5a3mcb","","","","","","","","1"
"1692.1600000000035","{""confidence"":3}","[0]","survey-likert","70","160364","0.0-70.0","oy5a3mcb","","","","","","","",""
"","","","call-function","71","160366","0.0-71.0","oy5a3mcb","","","","","","","",""
"null","","","html-keyboard-response","72","161868","0.0-72.0","oy5a3mcb","","<span style=""color:Black; font-size:50px;"">Agent A","null","","","","",""
"null","","","video-keyboard-response","73","164507","0.0-73.0","oy5a3mcb","","","null","","Agent A","scrambled","FOR_REV_BLOBBY_STIM/61537.bmp_pp73_L3_V1.0_veridical_freeview_isoFalse_fps144_reversed_REAL.mp4",""
"null","","","html-keyboard-response","74","166011","0.0-74.0","oy5a3mcb","","<span style=""color:Black; font-size:50px;"">Agent B","null","","","","",""
"null","","","video-keyboard-response","75","168624","0.0-75.0","oy5a3mcb","","","null","","Agent B","veridical","FOR_REV_BLOBBY_STIM/61537.bmp_pp73_L3_V1.0_veridical_freeview_isoFalse_fps144.mp4",""
"","","","call-function","76","168625","0.0-76.0","oy5a3mcb","","","","","","","",""
"1393.710000000021","{""judgement"":1}","[0]","survey-likert","77","170034","0.0-77.0","oy5a3mcb","","","","","","","","1"
"1306.9349999999977","{""confidence"":3}","[0]","survey-likert","78","171343","0.0-78.0","oy5a3mcb","","","","","","","",""
"","","","call-function","79","171345","0.0-79.0","oy5a3mcb","","","","","","","",""
"null","","","html-keyboard-response","80","172845","0.0-80.0","oy5a3mcb","","<span style=""color:Black; font-size:50px;"">Agent A","null","","","","",""
"null","","","video-keyboard-response","81","178107","0.0-81.0","oy5a3mcb","","","null","","Agent A","scrambled","FOR_REV_BLOBBY_STIM/1592581.bmp_pp100_L3_V1.0_veridical_freeview_isoFalse_fps144_reversed_REAL.mp4",""
"null","","","html-keyboard-response","82","179611","0.0-82.0","oy5a3mcb","","<span style=""color:Black; font-size:50px;"">Agent B","null","","","","",""
"null","","","video-keyboard-response","83","184578","0.0-83.0","oy5a3mcb","","","null","","Agent B","veridical","FOR_REV_BLOBBY_STIM/1592581.bmp_pp100_L3_V1.0_veridical_freeview_isoFalse_fps144.mp4",""
"","","","call-function","84","184580","0.0-84.0","oy5a3mcb","","","","","","","",""
"1978.4899999999907","{""judgement"":1}","[0]","survey-likert","85","186559","0.0-85.0","oy5a3mcb","","","","","","","","1"
"1327.6849999999977","{""confidence"":2}","[0]","survey-likert","86","187961","0.0-86.0","oy5a3mcb","","","","","","","",""
"2085.014999999985","","","instructions","87","190048","0.0-87.0","oy5a3mcb","[{""page_index"":0,""viewing_time"":1005.8150000000023},{""page_index"":1,""viewing_time"":417.66499999997905},{""page_index"":2,""viewing_time"":661.3000000000175}]","","","","","","",""
"1950.195000000007","","","instructions","88","191999","0.0-88.0","oy5a3mcb","[{""page_index"":0,""viewing_time"":538.6900000000023},{""page_index"":1,""viewing_time"":682.445000000007},{""page_index"":2,""viewing_time"":728.9499999999825}]","","","","","","",""
"","","","call-function","89","192001","0.0-89.0","oy5a3mcb","","","","","","","",""
"null","","","html-keyboard-response","90","193505","0.0-90.0","oy5a3mcb","","<span style=""color:Black; font-size:50px;"">Agent A","null","","","","",""
"null","","","video-keyboard-response","91","196299","0.0-91.0","oy5a3mcb","","","null","","Agent A","veridical","FOR_REV_BLOBBY_STIM/1593041.bmp_pp58_L1_V1.0_veridical_freeview_isoFalse_fps144.mp4",""
"null","","","html-keyboard-response","92","197819","0.0-92.0","oy5a3mcb","","<span style=""color:Black; font-size:50px;"">Agent B","null","","","","",""
"null","","","video-keyboard-response","93","200608","0.0-93.0","oy5a3mcb","","","null","","Agent B","scrambled","FOR_REV_BLOBBY_STIM/1593041.bmp_pp58_L1_V1.0_veridical_freeview_isoFalse_fps144_reversed_REAL.mp4",""
"","","","call-function","94","200611","0.0-94.0","oy5a3mcb","","","","","","","",""
"2096.679999999993","{""judgement"":0}","[0]","survey-likert","95","202709","0.0-95.0","oy5a3mcb","","","","","","","","0"
"1672.2749999999942","{""confidence"":1}","[0]","survey-likert","96","204384","0.0-96.0","oy5a3mcb","","","","","","","",""
"","","","call-function","97","204386","0.0-97.0","oy5a3mcb","","","","","","","",""
"null","","","html-keyboard-response","98","205888","0.0-98.0","oy5a3mcb","","<span style=""color:Black; font-size:50px;"">Agent A","null","","","","",""
"null","","","video-keyboard-response","99","208630","0.0-99.0","oy5a3mcb","","","null","","Agent A","veridical","FOR_REV_BLOBBY_STIM/498111.bmp_pp88_L2_V1.0_veridical_freeview_isoFalse_fps144.mp4",""
"null","","","html-keyboard-response","100","210134","0.0-100.0","oy5a3mcb","","<span style=""color:Black; font-size:50px;"">Agent B","null","","","","",""
"null","","","video-keyboard-response","101","212880","0.0-101.0","oy5a3mcb","","","null","","Agent B","scrambled","FOR_REV_BLOBBY_STIM/498111.bmp_pp88_L2_V1.0_veridical_freeview_isoFalse_fps144_reversed_REAL.mp4",""
"","","","call-function","102","212882","0.0-102.0","oy5a3mcb","","","","","","","",""
"3220.304999999993","{""judgement"":1}","[0]","survey-likert","103","216103","0.0-103.0","oy5a3mcb","","","","","","","","0"
"1670.2449999999953","{""confidence"":0}","[0]","survey-likert","104","217776","0.0-104.0","oy5a3mcb","","","","","","","",""
"","","","call-function","105","217777","0.0-105.0","oy5a3mcb","","","","","","","",""
"null","","","html-keyboard-response","106","219281","0.0-106.0","oy5a3mcb","","<span style=""color:Black; font-size:50px;"">Agent A","null","","","","",""
"null","","","video-keyboard-response","107","222104","0.0-107.0","oy5a3mcb","","","null","","Agent A","scrambled","FOR_REV_BLOBBY_STIM/1592286.bmp_pp52_L1_V1.0_veridical_freeview_isoFalse_fps144_reversed_REAL.mp4",""
"null","","","html-keyboard-response","108","223606","0.0-108.0","oy5a3mcb","","<span style=""color:Black; font-size:50px;"">Agent B","null","","","","",""
"null","","","video-keyboard-response","109","226457","0.0-109.0","oy5a3mcb","","","null","","Agent B","veridical","FOR_REV_BLOBBY_STIM/1592286.bmp_pp52_L1_V1.0_veridical_freeview_isoFalse_fps144.mp4",""
"","","","call-function","110","226459","0.0-110.0","oy5a3mcb","","","","","","","",""
"2588.8800000000047","{""judgement"":1}","[0]","survey-likert","111","229048","0.0-111.0","oy5a3mcb","","","","","","","","1"
"1291.1350000000093","{""confidence"":3}","[0]","survey-likert","112","230342","0.0-112.0","oy5a3mcb","","","","","","","",""
"","","","call-function","113","230343","0.0-113.0","oy5a3mcb","","","","","","","",""
"null","","","html-keyboard-response","114","231847","0.0-114.0","oy5a3mcb","","<span style=""color:Black; font-size:50px;"">Agent A","null","","","","",""
"null","","","video-keyboard-response","115","234608","0.0-115.0","oy5a3mcb","","","null","","Agent A","scrambled","FOR_REV_BLOBBY_STIM/713749.bmp_pp88_L2_V1.0_veridical_freeview_isoFalse_fps144_reversed_REAL.mp4",""
"null","","","html-keyboard-response","116","236113","0.0-116.0","oy5a3mcb","","<span style=""color:Black; font-size:50px;"">Agent B","null","","","","",""
"null","","","video-keyboard-response","117","238873","0.0-117.0","oy5a3mcb","","","null","","Agent B","veridical","FOR_REV_BLOBBY_STIM/713749.bmp_pp88_L2_V1.0_veridical_freeview_isoFalse_fps144.mp4",""
"","","","call-function","118","238874","0.0-118.0","oy5a3mcb","","","","","","","",""
"1594.6549999999988","{""judgement"":1}","[0]","survey-likert","119","240471","0.0-119.0","oy5a3mcb","","","","","","","","1"
"2179.360000000015","{""confidence"":2}","[0]","survey-likert","120","242652","0.0-120.0","oy5a3mcb","","","","","","","",""
"","","","call-function","121","242654","0.0-121.0","oy5a3mcb","","","","","","","",""
"null","","","html-keyboard-response","122","244155","0.0-122.0","oy5a3mcb","","<span style=""color:Black; font-size:50px;"">Agent A","null","","","","",""
"null","","","video-keyboard-response","123","246725","0.0-123.0","oy5a3mcb","","","null","","Agent A","scrambled","FOR_REV_BLOBBY_STIM/1159813.bmp_pp79_L2_V1.0_veridical_freeview_isoFalse_fps144_reversed_REAL.mp4",""
"null","","","html-keyboard-response","124","248232","0.0-124.0","oy5a3mcb","","<span style=""color:Black; font-size:50px;"">Agent B","null","","","","",""
"null","","","video-keyboard-response","125","250790","0.0-125.0","oy5a3mcb","","","null","","Agent B","veridical","FOR_REV_BLOBBY_STIM/1159813.bmp_pp79_L2_V1.0_veridical_freeview_isoFalse_fps144.mp4",""
"","","","call-function","126","250791","0.0-126.0","oy5a3mcb","","","","","","","",""
"2006.640000000014","{""judgement"":1}","[0]","survey-likert","127","252798","0.0-127.0","oy5a3mcb","","","","","","","","1"
"1089.7749999999942","{""confidence"":1}","[0]","survey-likert","128","253891","0.0-128.0","oy5a3mcb","","","","","","","",""
"","","","call-function","129","253892","0.0-129.0","oy5a3mcb","","","","","","","",""
"null","","","html-keyboard-response","130","255394","0.0-130.0","oy5a3mcb","","<span style=""color:Black; font-size:50px;"">Agent A","null","","","","",""
"null","","","video-keyboard-response","131","258207","0.0-131.0","oy5a3mcb","","","null","","Agent A","scrambled","FOR_REV_BLOBBY_STIM/1592499.bmp_pp96_L2_V1.0_veridical_freeview_isoFalse_fps144_reversed_REAL.mp4",""
"null","","","html-keyboard-response","132","259712","0.0-132.0","oy5a3mcb","","<span style=""color:Black; font-size:50px;"">Agent B","null","","","","",""
"null","","","video-keyboard-response","133","262517","0.0-133.0","oy5a3mcb","","","null","","Agent B","veridical","FOR_REV_BLOBBY_STIM/1592499.bmp_pp96_L2_V1.0_veridical_freeview_isoFalse_fps144.mp4",""
"","","","call-function","134","262519","0.0-134.0","oy5a3mcb","","","","","","","",""
"1766.405000000028","{""judgement"":1}","[0]","survey-likert","135","264286","0.0-135.0","oy5a3mcb","","","","","","","","1"
"1362.609999999986","{""confidence"":2}","[0]","survey-likert","136","265651","0.0-136.0","oy5a3mcb","","","","","","","",""
"","","","call-function","137","265654","0.0-137.0","oy5a3mcb","","","","","","","",""
"null","","","html-keyboard-response","138","267156","0.0-138.0","oy5a3mcb","","<span style=""color:Black; font-size:50px;"">Agent A","null","","","","",""
"null","","","video-keyboard-response","139","269792","0.0-139.0","oy5a3mcb","","","null","","Agent A","veridical","FOR_REV_BLOBBY_STIM/1593146.bmp_pp93_L1_V1.0_veridical_freeview_isoFalse_fps144.mp4",""
"null","","","html-keyboard-response","140","271297","0.0-140.0","oy5a3mcb","","<span style=""color:Black; font-size:50px;"">Agent B","null","","","","",""
"null","","","video-keyboard-response","141","273933","0.0-141.0","oy5a3mcb","","","null","","Agent B","scrambled","FOR_REV_BLOBBY_STIM/1593146.bmp_pp93_L1_V1.0_veridical_freeview_isoFalse_fps144_reversed_REAL.mp4",""
"","","","call-function","142","273935","0.0-142.0","oy5a3mcb","","","","","","","",""
"1885.5950000000303","{""judgement"":0}","[0]","survey-likert","143","275821","0.0-143.0","oy5a3mcb","","","","","","","","0"
"1332.875","{""confidence"":3}","[0]","survey-likert","144","277157","0.0-144.0","oy5a3mcb","","","","","","","",""
"","","","call-function","145","277158","0.0-145.0","oy5a3mcb","","","","","","","",""
"null","","","html-keyboard-response","146","278661","0.0-146.0","oy5a3mcb","","<span style=""color:Black; font-size:50px;"">Agent A","null","","","","",""
"null","","","video-keyboard-response","147","281455","0.0-147.0","oy5a3mcb","","","null","","Agent A","scrambled","FOR_REV_BLOBBY_STIM/1592890.bmp_pp82_L2_V1.0_veridical_freeview_isoFalse_fps144_reversed_REAL.mp4",""
"null","","","html-keyboard-response","148","282961","0.0-148.0","oy5a3mcb","","<span style=""color:Black; font-size:50px;"">Agent B","null","","","","",""
"null","","","video-keyboard-response","149","285753","0.0-149.0","oy5a3mcb","","","null","","Agent B","veridical","FOR_REV_BLOBBY_STIM/1592890.bmp_pp82_L2_V1.0_veridical_freeview_isoFalse_fps144.mp4",""
"","","","call-function","150","285755","0.0-150.0","oy5a3mcb","","","","","","","",""
"3004.5","{""judgement"":1}","[0]","survey-likert","151","288760","0.0-151.0","oy5a3mcb","","","","","","","","1"
"2177.954999999958","{""confidence"":2}","[0]","survey-likert","152","290941","0.0-152.0","oy5a3mcb","","","","","","","",""
"","","","call-function","153","290942","0.0-153.0","oy5a3mcb","","","","","","","",""
"null","","","html-keyboard-response","154","292444","0.0-154.0","oy5a3mcb","","<span style=""color:Black; font-size:50px;"">Agent A","null","","","","",""
"null","","","video-keyboard-response","155","295319","0.0-155.0","oy5a3mcb","","","null","","Agent A","veridical","FOR_REV_BLOBBY_STIM/713017.bmp_pp152_L2_V1.0_veridical_freeview_isoFalse_fps144.mp4",""
"null","","","html-keyboard-response","156","296822","0.0-156.0","oy5a3mcb","","<span style=""color:Black; font-size:50px;"">Agent B","null","","","","",""
"null","","","video-keyboard-response","157","299692","0.0-157.0","oy5a3mcb","","","null","","Agent B","scrambled","FOR_REV_BLOBBY_STIM/713017.bmp_pp152_L2_V1.0_veridical_freeview_isoFalse_fps144_reversed_REAL.mp4",""
"","","","call-function","158","299694","0.0-158.0","oy5a3mcb","","","","","","","",""
"2194.890000000014","{""judgement"":0}","[0]","survey-likert","159","301890","0.0-159.0","oy5a3mcb","","","","","","","","0"
"1032.875","{""confidence"":1}","[0]","survey-likert","160","302925","0.0-160.0","oy5a3mcb","","","","","","","",""
"","","","call-function","161","302926","0.0-161.0","oy5a3mcb","","","","","","","",""
"null","","","html-keyboard-response","162","304431","0.0-162.0","oy5a3mcb","","<span style=""color:Black; font-size:50px;"">Agent A","null","","","","",""
"null","","","video-keyboard-response","163","307428","0.0-163.0","oy5a3mcb","","","null","","Agent A","scrambled","FOR_REV_BLOBBY_STIM/1592362.bmp_pp95_L2_V1.0_veridical_freeview_isoFalse_fps144_reversed_REAL.mp4",""
"null","","","html-keyboard-response","164","308954","0.0-164.0","oy5a3mcb","","<span style=""color:Black; font-size:50px;"">Agent B","null","","","","",""
"null","","","video-keyboard-response","165","311817","0.0-165.0","oy5a3mcb","","","null","","Agent B","veridical","FOR_REV_BLOBBY_STIM/1592362.bmp_pp95_L2_V1.0_veridical_freeview_isoFalse_fps144.mp4",""
"","","","call-function","166","311819","0.0-166.0","oy5a3mcb","","","","","","","",""
"1883.0750000000116","{""judgement"":1}","[0]","survey-likert","167","313704","0.0-167.0","oy5a3mcb","","","","","","","","1"
"2566.6650000000373","{""confidence"":3}","[0]","survey-likert","168","316274","0.0-168.0","oy5a3mcb","","","","","","","",""
"1635.8549999999814","","","instructions","169","317912","0.0-169.0","oy5a3mcb","[{""page_index"":0,""viewing_time"":989.1149999999907},{""page_index"":1,""viewing_time"":292.79999999998836},{""page_index"":2,""viewing_time"":353.7700000000186}]","","","","","","",""
"1266.8000000000466","","","instructions","170","319181","0.0-170.0","oy5a3mcb","[{""page_index"":0,""viewing_time"":400.820000000007},{""page_index"":1,""viewing_time"":427.95000000001164},{""page_index"":2,""viewing_time"":437.9099999999744}]","","","","","","",""
"","","","call-function","171","319183","0.0-171.0","oy5a3mcb","","","","","","","",""
"null","","","html-keyboard-response","172","320687","0.0-172.0","oy5a3mcb","","<span style=""color:Black; font-size:50px;"">Agent A","null","","","","",""
"null","","","video-keyboard-response","173","323547","0.0-173.0","oy5a3mcb","","","null","","Agent A","scrambled","FOR_REV_BLOBBY_STIM/1159447.bmp_pp70_L2_V1.0_veridical_freeview_isoFalse_fps144_reversed_REAL.mp4",""
"null","","","html-keyboard-response","174","325049","0.0-174.0","oy5a3mcb","","<span style=""color:Black; font-size:50px;"">Agent B","null","","","","",""
"null","","","video-keyboard-response","175","327907","0.0-175.0","oy5a3mcb","","","null","","Agent B","veridical","FOR_REV_BLOBBY_STIM/1159447.bmp_pp70_L2_V1.0_veridical_freeview_isoFalse_fps144.mp4",""
"","","","call-function","176","327908","0.0-176.0","oy5a3mcb","","","","","","","",""
"1926.399999999965","{""judgement"":0}","[0]","survey-likert","177","329836","0.0-177.0","oy5a3mcb","","","","","","","","1"
"997.1300000000047","{""confidence"":1}","[0]","survey-likert","178","330835","0.0-178.0","oy5a3mcb","","","","","","","",""
"","","","call-function","179","330837","0.0-179.0","oy5a3mcb","","","","","","","",""
"null","","","html-keyboard-response","180","332343","0.0-180.0","oy5a3mcb","","<span style=""color:Black; font-size:50px;"">Agent A","null","","","","",""
"null","","","video-keyboard-response","181","335019","0.0-181.0","oy5a3mcb","","","null","","Agent A","veridical","FOR_REV_BLOBBY_STIM/1592727.bmp_pp59_L3_V1.0_veridical_freeview_isoFalse_fps144.mp4",""
"null","","","html-keyboard-response","182","336523","0.0-182.0","oy5a3mcb","","<span style=""color:Black; font-size:50px;"">Agent B","null","","","","",""
"null","","","video-keyboard-response","183","339224","0.0-183.0","oy5a3mcb","","","null","","Agent B","scrambled","FOR_REV_BLOBBY_STIM/1592727.bmp_pp59_L3_V1.0_veridical_freeview_isoFalse_fps144_reversed_REAL.mp4",""
"","","","call-function","184","339225","0.0-184.0","oy5a3mcb","","","","","","","",""
"2463.0149999999558","{""judgement"":1}","[0]","survey-likert","185","341689","0.0-185.0","oy5a3mcb","","","","","","","","0"
"1170.4249999999884","{""confidence"":0}","[0]","survey-likert","186","342862","0.0-186.0","oy5a3mcb","","","","","","","",""
"","","","call-function","187","342863","0.0-187.0","oy5a3mcb","","","","","","","",""
"null","","","html-keyboard-response","188","344369","0.0-188.0","oy5a3mcb","","<span style=""color:Black; font-size:50px;"">Agent A","null","","","","",""
"null","","","video-keyboard-response","189","347211","0.0-189.0","oy5a3mcb","","","null","","Agent A","scrambled","FOR_REV_BLOBBY_STIM/713371.bmp_pp68_L1_V1.0_veridical_freeview_isoFalse_fps144_reversed_REAL.mp4",""
"null","","","html-keyboard-response","190","348716","0.0-190.0","oy5a3mcb","","<span style=""color:Black; font-size:50px;"">Agent B","null","","","","",""
"null","","","video-keyboard-response","191","351563","0.0-191.0","oy5a3mcb","","","null","","Agent B","veridical","FOR_REV_BLOBBY_STIM/713371.bmp_pp68_L1_V1.0_veridical_freeview_isoFalse_fps144.mp4",""
"","","","call-function","192","351564","0.0-192.0","oy5a3mcb","","","","","","","",""
"2273.4799999999814","{""judgement"":1}","[0]","survey-likert","193","353839","0.0-193.0","oy5a3mcb","","","","","","","","1"
"1683.320000000007","{""confidence"":1}","[0]","survey-likert","194","355524","0.0-194.0","oy5a3mcb","","","","","","","",""
"","","","call-function","195","355526","0.0-195.0","oy5a3mcb","","","","","","","",""
"null","","","html-keyboard-response","196","357030","0.0-196.0","oy5a3mcb","","<span style=""color:Black; font-size:50px;"">Agent A","null","","","","",""
"null","","","video-keyboard-response","197","359760","0.0-197.0","oy5a3mcb","","","null","","Agent A","veridical","FOR_REV_BLOBBY_STIM/1592817.bmp_pp55_L3_V1.0_veridical_freeview_isoFalse_fps144.mp4",""
"null","","","html-keyboard-response","198","361268","0.0-198.0","oy5a3mcb","","<span style=""color:Black; font-size:50px;"">Agent B","null","","","","",""
"null","","","video-keyboard-response","199","363999","0.0-199.0","oy5a3mcb","","","null","","Agent B","scrambled","FOR_REV_BLOBBY_STIM/1592817.bmp_pp55_L3_V1.0_veridical_freeview_isoFalse_fps144_reversed_REAL.mp4",""
"","","","call-function","200","364000","0.0-200.0","oy5a3mcb","","","","","","","",""
"1410.0950000000303","{""judgement"":0}","[0]","survey-likert","201","365411","0.0-201.0","oy5a3mcb","","","","","","","","0"
"1935.7249999999767","{""confidence"":2}","[0]","survey-likert","202","367350","0.0-202.0","oy5a3mcb","","","","","","","",""
"","","","call-function","203","367351","0.0-203.0","oy5a3mcb","","","","","","","",""
"null","","","html-keyboard-response","204","368854","0.0-204.0","oy5a3mcb","","<span style=""color:Black; font-size:50px;"">Agent A","null","","","","",""
"null","","","video-keyboard-response","205","370467","0.0-205.0","oy5a3mcb","","","null","","Agent A","scrambled","FOR_REV_BLOBBY_STIM/713684.bmp_pp85_L3_V1.0_veridical_freeview_isoFalse_fps144_reversed_REAL.mp4",""
"null","","","html-keyboard-response","206","371975","0.0-206.0","oy5a3mcb","","<span style=""color:Black; font-size:50px;"">Agent B","null","","","","",""
"null","","","video-keyboard-response","207","373589","0.0-207.0","oy5a3mcb","","","null","","Agent B","veridical","FOR_REV_BLOBBY_STIM/713684.bmp_pp85_L3_V1.0_veridical_freeview_isoFalse_fps144.mp4",""
"","","","call-function","208","373593","0.0-208.0","oy5a3mcb","","","","","","","",""
"4657.405000000028","{""judgement"":0}","[0]","survey-likert","209","378252","0.0-209.0","oy5a3mcb","","","","","","","","1"
"1819.6050000000396","{""confidence"":0}","[0]","survey-likert","210","380074","0.0-210.0","oy5a3mcb","","","","","","","",""
"","","","call-function","211","380075","0.0-211.0","oy5a3mcb","","","","","","","",""
"null","","","html-keyboard-response","212","381576","0.0-212.0","oy5a3mcb","","<span style=""color:Black; font-size:50px;"">Agent A","null","","","","",""
"null","","","video-keyboard-response","213","384300","0.0-213.0","oy5a3mcb","","","null","","Agent A","veridical","FOR_REV_BLOBBY_STIM/285994.bmp_pp92_L3_V1.0_veridical_freeview_isoFalse_fps144.mp4",""
"null","","","html-keyboard-response","214","385806","0.0-214.0","oy5a3mcb","","<span style=""color:Black; font-size:50px;"">Agent B","null","","","","",""
"null","","","video-keyboard-response","215","388491","0.0-215.0","oy5a3mcb","","","null","","Agent B","scrambled","FOR_REV_BLOBBY_STIM/285994.bmp_pp92_L3_V1.0_veridical_freeview_isoFalse_fps144_reversed_REAL.mp4",""
"","","","call-function","216","388493","0.0-216.0","oy5a3mcb","","","","","","","",""
"1268.454999999958","{""judgement"":0}","[0]","survey-likert","217","389762","0.0-217.0","oy5a3mcb","","","","","","","","0"
"1856.429999999993","{""confidence"":3}","[0]","survey-likert","218","391621","0.0-218.0","oy5a3mcb","","","","","","","",""
"","","","call-function","219","391622","0.0-219.0","oy5a3mcb","","","","","","","",""
"null","","","html-keyboard-response","220","393127","0.0-220.0","oy5a3mcb","","<span style=""color:Black; font-size:50px;"">Agent A","null","","","","",""
"null","","","video-keyboard-response","221","395845","0.0-221.0","oy5a3mcb","","","null","","Agent A","scrambled","FOR_REV_BLOBBY_STIM/498170.bmp_pp153_L3_V1.0_veridical_freeview_isoFalse_fps144_reversed_REAL.mp4",""
"null","","","html-keyboard-response","222","397349","0.0-222.0","oy5a3mcb","","<span style=""color:Black; font-size:50px;"">Agent B","null","","","","",""
"null","","","video-keyboard-response","223","400065","0.0-223.0","oy5a3mcb","","","null","","Agent B","veridical","FOR_REV_BLOBBY_STIM/498170.bmp_pp153_L3_V1.0_veridical_freeview_isoFalse_fps144.mp4",""
"","","","call-function","224","400066","0.0-224.0","oy5a3mcb","","","","","","","",""
"2850.539999999979","{""judgement"":0}","[0]","survey-likert","225","402918","0.0-225.0","oy5a3mcb","","","","","","","","1"
"900.5","{""confidence"":2}","[0]","survey-likert","226","403821","0.0-226.0","oy5a3mcb","","","","","","","",""
"","","","call-function","227","403822","0.0-227.0","oy5a3mcb","","","","","","","",""
"null","","","html-keyboard-response","228","405324","0.0-228.0","oy5a3mcb","","<span style=""color:Black; font-size:50px;"">Agent A","null","","","","",""
"null","","","video-keyboard-response","229","408075","0.0-229.0","oy5a3mcb","","","null","","Agent A","scrambled","FOR_REV_BLOBBY_STIM/713211.bmp_pp100_L3_V1.0_veridical_freeview_isoFalse_fps144_reversed_REAL.mp4",""
"null","","","html-keyboard-response","230","409578","0.0-230.0","oy5a3mcb","","<span style=""color:Black; font-size:50px;"">Agent B","null","","","","",""
"null","","","video-keyboard-response","231","412287","0.0-231.0","oy5a3mcb","","","null","","Agent B","veridical","FOR_REV_BLOBBY_STIM/713211.bmp_pp100_L3_V1.0_veridical_freeview_isoFalse_fps144.mp4",""
"","","","call-function","232","412288","0.0-232.0","oy5a3mcb","","","","","","","",""
"2791.539999999979","{""judgement"":0}","[0]","survey-likert","233","415081","0.0-233.0","oy5a3mcb","","","","","","","","1"
"1041.9800000000396","{""confidence"":1}","[0]","survey-likert","234","416125","0.0-234.0","oy5a3mcb","","","","","","","",""
"","","","call-function","235","416126","0.0-235.0","oy5a3mcb","","","","","","","",""
"null","","","html-keyboard-response","236","417628","0.0-236.0","oy5a3mcb","","<span style=""color:Black; font-size:50px;"">Agent A","null","","","","",""
"null","","","video-keyboard-response","237","420449","0.0-237.0","oy5a3mcb","","","null","","Agent A","scrambled","FOR_REV_BLOBBY_STIM/1159855.bmp_pp99_L2_V1.0_veridical_freeview_isoFalse_fps144_reversed_REAL.mp4",""
"null","","","html-keyboard-response","238","421988","0.0-238.0","oy5a3mcb","","<span style=""color:Black; font-size:50px;"">Agent B","null","","","","",""
"null","","","video-keyboard-response","239","424852","0.0-239.0","oy5a3mcb","","","null","","Agent B","veridical","FOR_REV_BLOBBY_STIM/1159855.bmp_pp99_L2_V1.0_veridical_freeview_isoFalse_fps144.mp4",""
"","","","call-function","240","424855","0.0-240.0","oy5a3mcb","","","","","","","",""
"1519.3649999999907","{""judgement"":0}","[0]","survey-likert","241","426376","0.0-241.0","oy5a3mcb","","","","","","","","1"
"1574.2300000000396","{""confidence"":3}","[0]","survey-likert","242","427952","0.0-242.0","oy5a3mcb","","","","","","","",""
"","","","call-function","243","427954","0.0-243.0","oy5a3mcb","","","","","","","",""
"null","","","html-keyboard-response","244","429479","0.0-244.0","oy5a3mcb","","<span style=""color:Black; font-size:50px;"">Agent A","null","","","","",""
"null","","","video-keyboard-response","245","432321","0.0-245.0","oy5a3mcb","","","null","","Agent A","scrambled","FOR_REV_BLOBBY_STIM/498253.bmp_pp67_L2_V1.0_veridical_freeview_isoFalse_fps144_reversed_REAL.mp4",""
"null","","","html-keyboard-response","246","433825","0.0-246.0","oy5a3mcb","","<span style=""color:Black; font-size:50px;"">Agent B","null","","","","",""
"null","","","video-keyboard-response","247","436662","0.0-247.0","oy5a3mcb","","","null","","Agent B","veridical","FOR_REV_BLOBBY_STIM/498253.bmp_pp67_L2_V1.0_veridical_freeview_isoFalse_fps144.mp4",""
"","","","call-function","248","436664","0.0-248.0","oy5a3mcb","","","","","","","",""
"1886.3550000000396","{""judgement"":1}","[0]","survey-likert","249","438551","0.0-249.0","oy5a3mcb","","","","","","","","1"
"1011.4899999999907","{""confidence"":2}","[0]","survey-likert","250","439565","0.0-250.0","oy5a3mcb","","","","","","","",""
"1567.7050000000163","","","instructions","251","441135","0.0-251.0","oy5a3mcb","[{""page_index"":0,""viewing_time"":758.8500000000349},{""page_index"":1,""viewing_time"":351.8099999999977},{""page_index"":2,""viewing_time"":456.8849999999511}]","","","","","","",""
"1210.5999999999767","","","instructions","252","442347","0.0-252.0","oy5a3mcb","[{""page_index"":0,""viewing_time"":359.51499999995576},{""page_index"":1,""viewing_time"":431.22000000003027},{""page_index"":2,""viewing_time"":419.75}]","","","","","","",""
"","","","call-function","253","442348","0.0-253.0","oy5a3mcb","","","","","","","",""
"null","","","html-keyboard-response","254","443852","0.0-254.0","oy5a3mcb","","<span style=""color:Black; font-size:50px;"">Agent A","null","","","","",""
"null","","","video-keyboard-response","255","446593","0.0-255.0","oy5a3mcb","","","null","","Agent A","scrambled","FOR_REV_BLOBBY_STIM/285933.bmp_pp81_L1_V1.0_veridical_freeview_isoFalse_fps144_reversed_REAL.mp4",""
"null","","","html-keyboard-response","256","448097","0.0-256.0","oy5a3mcb","","<span style=""color:Black; font-size:50px;"">Agent B","null","","","","",""
"null","","","video-keyboard-response","257","450871","0.0-257.0","oy5a3mcb","","","null","","Agent B","veridical","FOR_REV_BLOBBY_STIM/285933.bmp_pp81_L1_V1.0_veridical_freeview_isoFalse_fps144.mp4",""
"","","","call-function","258","450873","0.0-258.0","oy5a3mcb","","","","","","","",""
"2943.7700000000186","{""judgement"":0}","[0]","survey-likert","259","453817","0.0-259.0","oy5a3mcb","","","","","","","","1"
"1180.0750000000116","{""confidence"":3}","[0]","survey-likert","260","455000","0.0-260.0","oy5a3mcb","","","","","","","",""
"","","","call-function","261","455001","0.0-261.0","oy5a3mcb","","","","","","","",""
"null","","","html-keyboard-response","262","456506","0.0-262.0","oy5a3mcb","","<span style=""color:Black; font-size:50px;"">Agent A","null","","","","",""
"null","","","video-keyboard-response","263","459350","0.0-263.0","oy5a3mcb","","","null","","Agent A","veridical","FOR_REV_BLOBBY_STIM/712977.bmp_pp51_L1_V1.0_veridical_freeview_isoFalse_fps144.mp4",""
"null","","","html-keyboard-response","264","460855","0.0-264.0","oy5a3mcb","","<span style=""color:Black; font-size:50px;"">Agent B","null","","","","",""
"null","","","video-keyboard-response","265","463697","0.0-265.0","oy5a3mcb","","","null","","Agent B","scrambled","FOR_REV_BLOBBY_STIM/712977.bmp_pp51_L1_V1.0_veridical_freeview_isoFalse_fps144_reversed_REAL.mp4",""
"","","","call-function","266","463699","0.0-266.0","oy5a3mcb","","","","","","","",""
"3463.0499999999884","{""judgement"":1}","[0]","survey-likert","267","467163","0.0-267.0","oy5a3mcb","","","","","","","","0"
"1731.4099999999744","{""confidence"":0}","[0]","survey-likert","268","468897","0.0-268.0","oy5a3mcb","","","","","","","",""
"","","","call-function","269","468899","0.0-269.0","oy5a3mcb","","","","","","","",""
"null","","","html-keyboard-response","270","470404","0.0-270.0","oy5a3mcb","","<span style=""color:Black; font-size:50px;"">Agent A","null","","","","",""
"null","","","video-keyboard-response","271","473213","0.0-271.0","oy5a3mcb","","","null","","Agent A","veridical","FOR_REV_BLOBBY_STIM/1592804.bmp_pp91_L3_V1.0_veridical_freeview_isoFalse_fps144.mp4",""
"null","","","html-keyboard-response","272","474716","0.0-272.0","oy5a3mcb","","<span style=""color:Black; font-size:50px;"">Agent B","null","","","","",""
"null","","","video-keyboard-response","273","477510","0.0-273.0","oy5a3mcb","","","null","","Agent B","scrambled","FOR_REV_BLOBBY_STIM/1592804.bmp_pp91_L3_V1.0_veridical_freeview_isoFalse_fps144_reversed_REAL.mp4",""
"","","","call-function","274","477511","0.0-274.0","oy5a3mcb","","","","","","","",""
"2195.585000000021","{""judgement"":0}","[0]","survey-likert","275","479708","0.0-275.0","oy5a3mcb","","","","","","","","0"
"1324.5299999999697","{""confidence"":3}","[0]","survey-likert","276","481036","0.0-276.0","oy5a3mcb","","","","","","","",""
"","","","call-function","277","481038","0.0-277.0","oy5a3mcb","","","","","","","",""
"null","","","html-keyboard-response","278","482540","0.0-278.0","oy5a3mcb","","<span style=""color:Black; font-size:50px;"">Agent A","null","","","","",""
"null","","","video-keyboard-response","279","485265","0.0-279.0","oy5a3mcb","","","null","","Agent A","veridical","FOR_REV_BLOBBY_STIM/1592133.bmp_pp75_L1_V1.0_veridical_freeview_isoFalse_fps144.mp4",""
"null","","","html-keyboard-response","280","486770","0.0-280.0","oy5a3mcb","","<span style=""color:Black; font-size:50px;"">Agent B","null","","","","",""
"null","","","video-keyboard-response","281","489484","0.0-281.0","oy5a3mcb","","","null","","Agent B","scrambled","FOR_REV_BLOBBY_STIM/1592133.bmp_pp75_L1_V1.0_veridical_freeview_isoFalse_fps144_reversed_REAL.mp4",""
"","","","call-function","282","489485","0.0-282.0","oy5a3mcb","","","","","","","",""
"1645.8400000000256","{""judgement"":1}","[0]","survey-likert","283","491132","0.0-283.0","oy5a3mcb","","","","","","","","0"
"1178.7449999999953","{""confidence"":2}","[0]","survey-likert","284","492313","0.0-284.0","oy5a3mcb","","","","","","","",""
"","","","call-function","285","492314","0.0-285.0","oy5a3mcb","","","","","","","",""
"null","","","html-keyboard-response","286","493820","0.0-286.0","oy5a3mcb","","<span style=""color:Black; font-size:50px;"">Agent A","null","","","","",""
"null","","","video-keyboard-response","287","496616","0.0-287.0","oy5a3mcb","","","null","","Agent A","veridical","FOR_REV_BLOBBY_STIM/1159768.bmp_pp89_L1_V1.0_veridical_freeview_isoFalse_fps144.mp4",""
"null","","","html-keyboard-response","288","498119","0.0-288.0","oy5a3mcb","","<span style=""color:Black; font-size:50px;"">Agent B","null","","","","",""
"null","","","video-keyboard-response","289","500893","0.0-289.0","oy5a3mcb","","","null","","Agent B","scrambled","FOR_REV_BLOBBY_STIM/1159768.bmp_pp89_L1_V1.0_veridical_freeview_isoFalse_fps144_reversed_REAL.mp4",""
"","","","call-function","290","500895","0.0-290.0","oy5a3mcb","","","","","","","",""
"2436.4650000000256","{""judgement"":0}","[0]","survey-likert","291","503333","0.0-291.0","oy5a3mcb","","","","","","","","0"
"1243.7299999999814","{""confidence"":3}","[0]","survey-likert","292","504578","0.0-292.0","oy5a3mcb","","","","","","","",""
"","","","call-function","293","504580","0.0-293.0","oy5a3mcb","","","","","","","",""
"null","","","html-keyboard-response","294","506081","0.0-294.0","oy5a3mcb","","<span style=""color:Black; font-size:50px;"">Agent A","null","","","","",""
"null","","","video-keyboard-response","295","508901","0.0-295.0","oy5a3mcb","","","null","","Agent A","scrambled","FOR_REV_BLOBBY_STIM/713620.bmp_pp65_L3_V1.0_veridical_freeview_isoFalse_fps144_reversed_REAL.mp4",""
"null","","","html-keyboard-response","296","510407","0.0-296.0","oy5a3mcb","","<span style=""color:Black; font-size:50px;"">Agent B","null","","","","",""
"null","","","video-keyboard-response","297","513187","0.0-297.0","oy5a3mcb","","","null","","Agent B","veridical","FOR_REV_BLOBBY_STIM/713620.bmp_pp65_L3_V1.0_veridical_freeview_isoFalse_fps144.mp4",""
"","","","call-function","298","513188","0.0-298.0","oy5a3mcb","","","","","","","",""
"1603.3150000000023","{""judgement"":1}","[0]","survey-likert","299","514792","0.0-299.0","oy5a3mcb","","","","","","","","1"
"1744.445000000007","{""confidence"":1}","[0]","survey-likert","300","516539","0.0-300.0","oy5a3mcb","","","","","","","",""
"","","","call-function","301","516540","0.0-301.0","oy5a3mcb","","","","","","","",""
"null","","","html-keyboard-response","302","518043","0.0-302.0","oy5a3mcb","","<span style=""color:Black; font-size:50px;"">Agent A","null","","","","",""
"null","","","video-keyboard-response","303","520854","0.0-303.0","oy5a3mcb","","","null","","Agent A","veridical","FOR_REV_BLOBBY_STIM/1159621.bmp_pp92_L3_V1.0_veridical_freeview_isoFalse_fps144.mp4",""
"null","","","html-keyboard-response","304","522358","0.0-304.0","oy5a3mcb","","<span style=""color:Black; font-size:50px;"">Agent B","null","","","","",""
"null","","","video-keyboard-response","305","525159","0.0-305.0","oy5a3mcb","","","null","","Agent B","scrambled","FOR_REV_BLOBBY_STIM/1159621.bmp_pp92_L3_V1.0_veridical_freeview_isoFalse_fps144_reversed_REAL.mp4",""
"","","","call-function","306","525161","0.0-306.0","oy5a3mcb","","","","","","","",""
"2484.719999999972","{""judgement"":1}","[0]","survey-likert","307","527647","0.0-307.0","oy5a3mcb","","","","","","","","0"
"2469.8850000000093","{""confidence"":2}","[0]","survey-likert","308","530119","0.0-308.0","oy5a3mcb","","","","","","","",""
"","","","call-function","309","530121","0.0-309.0","oy5a3mcb","","","","","","","",""
"null","","","html-keyboard-response","310","531623","0.0-310.0","oy5a3mcb","","<span style=""color:Black; font-size:50px;"">Agent A","null","","","","",""
"null","","","video-keyboard-response","311","534460","0.0-311.0","oy5a3mcb","","","null","","Agent A","scrambled","FOR_REV_BLOBBY_STIM/713666.bmp_pp97_L3_V1.0_veridical_freeview_isoFalse_fps144_reversed_REAL.mp4",""
"null","","","html-keyboard-response","312","535964","0.0-312.0","oy5a3mcb","","<span style=""color:Black; font-size:50px;"">Agent B","null","","","","",""
"null","","","video-keyboard-response","313","538802","0.0-313.0","oy5a3mcb","","","null","","Agent B","veridical","FOR_REV_BLOBBY_STIM/713666.bmp_pp97_L3_V1.0_veridical_freeview_isoFalse_fps144.mp4",""
"","","","call-function","314","538804","0.0-314.0","oy5a3mcb","","","","","","","",""
"2006.1450000000186","{""judgement"":0}","[0]","survey-likert","315","540812","0.0-315.0","oy5a3mcb","","","","","","","","1"
"1532.344999999972","{""confidence"":3}","[0]","survey-likert","316","542348","0.0-316.0","oy5a3mcb","","","","","","","",""
"","","","call-function","317","542350","0.0-317.0","oy5a3mcb","","","","","","","",""
"null","","","html-keyboard-response","318","543851","0.0-318.0","oy5a3mcb","","<span style=""color:Black; font-size:50px;"">Agent A","null","","","","",""
"null","","","video-keyboard-response","319","546360","0.0-319.0","oy5a3mcb","","","null","","Agent A","veridical","FOR_REV_BLOBBY_STIM/713513.bmp_pp62_L2_V1.0_veridical_freeview_isoFalse_fps144.mp4",""
"null","","","html-keyboard-response","320","547863","0.0-320.0","oy5a3mcb","","<span style=""color:Black; font-size:50px;"">Agent B","null","","","","",""
"null","","","video-keyboard-response","321","550373","0.0-321.0","oy5a3mcb","","","null","","Agent B","scrambled","FOR_REV_BLOBBY_STIM/713513.bmp_pp62_L2_V1.0_veridical_freeview_isoFalse_fps144_reversed_REAL.mp4",""
"","","","call-function","322","550375","0.0-322.0","oy5a3mcb","","","","","","","",""
"1692.0350000000326","{""judgement"":0}","[0]","survey-likert","323","552069","0.0-323.0","oy5a3mcb","","","","","","","","0"
"1199.530000000028","{""confidence"":3}","[0]","survey-likert","324","553271","0.0-324.0","oy5a3mcb","","","","","","","",""
"","","","call-function","325","553272","0.0-325.0","oy5a3mcb","","","","","","","",""
"null","","","html-keyboard-response","326","554774","0.0-326.0","oy5a3mcb","","<span style=""color:Black; font-size:50px;"">Agent A","null","","","","",""
"null","","","video-keyboard-response","327","557399","0.0-327.0","oy5a3mcb","","","null","","Agent A","veridical","FOR_REV_BLOBBY_STIM/713779.bmp_pp152_L2_V1.0_veridical_freeview_isoFalse_fps144.mp4",""
"null","","","html-keyboard-response","328","558902","0.0-328.0","oy5a3mcb","","<span style=""color:Black; font-size:50px;"">Agent B","null","","","","",""
"null","","","video-keyboard-response","329","561526","0.0-329.0","oy5a3mcb","","","null","","Agent B","scrambled","FOR_REV_BLOBBY_STIM/713779.bmp_pp152_L2_V1.0_veridical_freeview_isoFalse_fps144_reversed_REAL.mp4",""
"","","","call-function","330","561528","0.0-330.0","oy5a3mcb","","","","","","","",""
"3071.4000000000233","{""judgement"":0}","[0]","survey-likert","331","564600","0.0-331.0","oy5a3mcb","","","","","","","","0"
"1842.734999999986","{""confidence"":1}","[0]","survey-likert","332","566446","0.0-332.0","oy5a3mcb","","","","","","","",""
"297793.905","","","instructions","333","864242","0.0-333.0","oy5a3mcb","[{""page_index"":0,""viewing_time"":1097.7850000000326},{""page_index"":1,""viewing_time"":294608.1},{""page_index"":2,""viewing_time"":2087.8499999999767}]","","","","","","",""
"7591.685000000056","","","instructions","334","871835","0.0-334.0","oy5a3mcb","[{""page_index"":0,""viewing_time"":917.5800000000745},{""page_index"":1,""viewing_time"":5727.864999999991},{""page_index"":2,""viewing_time"":946.125}]","","","","","","",""
"","","","call-function","335","871836","0.0-335.0","oy5a3mcb","","","","","","","",""
"null","","","html-keyboard-response","336","873341","0.0-336.0","oy5a3mcb","","<span style=""color:Black; font-size:50px;"">Agent A","null","","","","",""
"null","","","video-keyboard-response","337","876195","0.0-337.0","oy5a3mcb","","","null","","Agent A","scrambled","FOR_REV_BLOBBY_STIM/497950.bmp_pp151_L1_V1.0_veridical_freeview_isoFalse_fps144_reversed_REAL.mp4",""
"null","","","html-keyboard-response","338","877699","0.0-338.0","oy5a3mcb","","<span style=""color:Black; font-size:50px;"">Agent B","null","","","","",""
"null","","","video-keyboard-response","339","880551","0.0-339.0","oy5a3mcb","","","null","","Agent B","veridical","FOR_REV_BLOBBY_STIM/497950.bmp_pp151_L1_V1.0_veridical_freeview_isoFalse_fps144.mp4",""
"","","","call-function","340","880553","0.0-340.0","oy5a3mcb","","","","","","","",""
"1749.5950000000885","{""judgement"":1}","[0]","survey-likert","341","882303","0.0-341.0","oy5a3mcb","","","","","","","","1"
"2205.2949999999255","{""confidence"":2}","[0]","survey-likert","342","884510","0.0-342.0","oy5a3mcb","","","","","","","",""
"","","","call-function","343","884512","0.0-343.0","oy5a3mcb","","","","","","","",""
"null","","","html-keyboard-response","344","886015","0.0-344.0","oy5a3mcb","","<span style=""color:Black; font-size:50px;"">Agent A","null","","","","",""
"null","","","video-keyboard-response","345","888804","0.0-345.0","oy5a3mcb","","","null","","Agent A","veridical","FOR_REV_BLOBBY_STIM/1159777.bmp_pp77_L3_V1.0_veridical_freeview_isoFalse_fps144.mp4",""
"null","","","html-keyboard-response","346","890307","0.0-346.0","oy5a3mcb","","<span style=""color:Black; font-size:50px;"">Agent B","null","","","","",""
"null","","","video-keyboard-response","347","893372","0.0-347.0","oy5a3mcb","","","null","","Agent B","scrambled","FOR_REV_BLOBBY_STIM/1159777.bmp_pp77_L3_V1.0_veridical_freeview_isoFalse_fps144_reversed_REAL.mp4",""
"","","","call-function","348","893374","0.0-348.0","oy5a3mcb","","","","","","","",""
"2866.409999999916","{""judgement"":0}","[0]","survey-likert","349","896241","0.0-349.0","oy5a3mcb","","","","","","","","0"
"1084.170000000042","{""confidence"":2}","[0]","survey-likert","350","897328","0.0-350.0","oy5a3mcb","","","","","","","",""
"","","","call-function","351","897329","0.0-351.0","oy5a3mcb","","","","","","","",""
"null","","","html-keyboard-response","352","898834","0.0-352.0","oy5a3mcb","","<span style=""color:Black; font-size:50px;"">Agent A","null","","","","",""
"null","","","video-keyboard-response","353","901584","0.0-353.0","oy5a3mcb","","","null","","Agent A","veridical","FOR_REV_BLOBBY_STIM/1160168.bmp_pp53_L2_V1.0_veridical_freeview_isoFalse_fps144.mp4",""
"null","","","html-keyboard-response","354","903087","0.0-354.0","oy5a3mcb","","<span style=""color:Black; font-size:50px;"">Agent B","null","","","","",""
"null","","","video-keyboard-response","355","905805","0.0-355.0","oy5a3mcb","","","null","","Agent B","scrambled","FOR_REV_BLOBBY_STIM/1160168.bmp_pp53_L2_V1.0_veridical_freeview_isoFalse_fps144_reversed_REAL.mp4",""
"","","","call-function","356","905806","0.0-356.0","oy5a3mcb","","","","","","","",""
"1514.4000000000233","{""judgement"":0}","[0]","survey-likert","357","907321","0.0-357.0","oy5a3mcb","","","","","","","","0"
"1520.6500000000233","{""confidence"":3}","[0]","survey-likert","358","908844","0.0-358.0","oy5a3mcb","","","","","","","",""
"","","","call-function","359","908846","0.0-359.0","oy5a3mcb","","","","","","","",""
"null","","","html-keyboard-response","360","910349","0.0-360.0","oy5a3mcb","","<span style=""color:Black; font-size:50px;"">Agent A","null","","","","",""
"null","","","video-keyboard-response","361","913239","0.0-361.0","oy5a3mcb","","","null","","Agent A","veridical","FOR_REV_BLOBBY_STIM/1593035.bmp_pp94_L2_V1.0_veridical_freeview_isoFalse_fps144.mp4",""
"null","","","html-keyboard-response","362","914743","0.0-362.0","oy5a3mcb","","<span style=""color:Black; font-size:50px;"">Agent B","null","","","","",""
"null","","","video-keyboard-response","363","917634","0.0-363.0","oy5a3mcb","","","null","","Agent B","scrambled","FOR_REV_BLOBBY_STIM/1593035.bmp_pp94_L2_V1.0_veridical_freeview_isoFalse_fps144_reversed_REAL.mp4",""
"","","","call-function","364","917635","0.0-364.0","oy5a3mcb","","","","","","","",""
"2049.194999999949","{""judgement"":1}","[0]","survey-likert","365","919686","0.0-365.0","oy5a3mcb","","","","","","","","0"
"1663.8850000000093","{""confidence"":3}","[0]","survey-likert","366","921352","0.0-366.0","oy5a3mcb","","","","","","","",""
"","","","call-function","367","921353","0.0-367.0","oy5a3mcb","","","","","","","",""
"null","","","html-keyboard-response","368","922857","0.0-368.0","oy5a3mcb","","<span style=""color:Black; font-size:50px;"">Agent A","null","","","","",""
"null","","","video-keyboard-response","369","925703","0.0-369.0","oy5a3mcb","","","null","","Agent A","scrambled","FOR_REV_BLOBBY_STIM/1159675.bmp_pp77_L3_V1.0_veridical_freeview_isoFalse_fps144_reversed_REAL.mp4",""
"null","","","html-keyboard-response","370","927208","0.0-370.0","oy5a3mcb","","<span style=""color:Black; font-size:50px;"">Agent B","null","","","","",""
"null","","","video-keyboard-response","371","930054","0.0-371.0","oy5a3mcb","","","null","","Agent B","veridical","FOR_REV_BLOBBY_STIM/1159675.bmp_pp77_L3_V1.0_veridical_freeview_isoFalse_fps144.mp4",""
"","","","call-function","372","930055","0.0-372.0","oy5a3mcb","","","","","","","",""
"2549.759999999893","{""judgement"":0}","[0]","survey-likert","373","932606","0.0-373.0","oy5a3mcb","","","","","","","","1"
"2049.4899999999907","{""confidence"":2}","[0]","survey-likert","374","934657","0.0-374.0","oy5a3mcb","","","","","","","",""
"","","","call-function","375","934659","0.0-375.0","oy5a3mcb","","","","","","","",""
"null","","","html-keyboard-response","376","936163","0.0-376.0","oy5a3mcb","","<span style=""color:Black; font-size:50px;"">Agent A","null","","","","",""
"null","","","video-keyboard-response","377","939047","0.0-377.0","oy5a3mcb","","","null","","Agent A","veridical","FOR_REV_BLOBBY_STIM/1592807.bmp_pp68_L1_V1.0_veridical_freeview_isoFalse_fps144.mp4",""
"null","","","html-keyboard-response","378","940552","0.0-378.0","oy5a3mcb","","<span style=""color:Black; font-size:50px;"">Agent B","null","","","","",""
"null","","","video-keyboard-response","379","943380","0.0-379.0","oy5a3mcb","","","null","","Agent B","scrambled","FOR_REV_BLOBBY_STIM/1592807.bmp_pp68_L1_V1.0_veridical_freeview_isoFalse_fps144_reversed_REAL.mp4",""
"","","","call-function","380","943381","0.0-380.0","oy5a3mcb","","","","","","","",""
"2873.2449999999953","{""judgement"":1}","[0]","survey-likert","381","946256","0.0-381.0","oy5a3mcb","","","","","","","","0"
"1862.329999999958","{""confidence"":1}","[0]","survey-likert","382","948142","0.0-382.0","oy5a3mcb","","","","","","","",""
"","","","call-function","383","948144","0.0-383.0","oy5a3mcb","","","","","","","",""
"null","","","html-keyboard-response","384","949646","0.0-384.0","oy5a3mcb","","<span style=""color:Black; font-size:50px;"">Agent A","null","","","","",""
"null","","","video-keyboard-response","385","952346","0.0-385.0","oy5a3mcb","","","null","","Agent A","veridical","FOR_REV_BLOBBY_STIM/1592372.bmp_pp76_L1_V1.0_veridical_freeview_isoFalse_fps144.mp4",""
"null","","","html-keyboard-response","386","953852","0.0-386.0","oy5a3mcb","","<span style=""color:Black; font-size:50px;"">Agent B","null","","","","",""
"null","","","video-keyboard-response","387","956562","0.0-387.0","oy5a3mcb","","","null","","Agent B","scrambled","FOR_REV_BLOBBY_STIM/1592372.bmp_pp76_L1_V1.0_veridical_freeview_isoFalse_fps144_reversed_REAL.mp4",""
"","","","call-function","388","956564","0.0-388.0","oy5a3mcb","","","","","","","",""
"1673.9000000000233","{""judgement"":0}","[0]","survey-likert","389","958240","0.0-389.0","oy5a3mcb","","","","","","","","0"
"2099.04999999993","{""confidence"":2}","[0]","survey-likert","390","960342","0.0-390.0","oy5a3mcb","","","","","","","",""
"","","","call-function","391","960343","0.0-391.0","oy5a3mcb","","","","","","","",""
"null","","","html-keyboard-response","392","961845","0.0-392.0","oy5a3mcb","","<span style=""color:Black; font-size:50px;"">Agent A","null","","","","",""
"null","","","video-keyboard-response","393","964709","0.0-393.0","oy5a3mcb","","","null","","Agent A","scrambled","FOR_REV_BLOBBY_STIM/713089.bmp_pp60_L3_V1.0_veridical_freeview_isoFalse_fps144_reversed_REAL.mp4",""
"null","","","html-keyboard-response","394","966212","0.0-394.0","oy5a3mcb","","<span style=""color:Black; font-size:50px;"">Agent B","null","","","","",""
"null","","","video-keyboard-response","395","969073","0.0-395.0","oy5a3mcb","","","null","","Agent B","veridical","FOR_REV_BLOBBY_STIM/713089.bmp_pp60_L3_V1.0_veridical_freeview_isoFalse_fps144.mp4",""
"","","","call-function","396","969075","0.0-396.0","oy5a3mcb","","","","","","","",""
"2364.5599999999395","{""judgement"":1}","[0]","survey-likert","397","971441","0.0-397.0","oy5a3mcb","","","","","","","","1"
"2701.219999999972","{""confidence"":3}","[0]","survey-likert","398","974145","0.0-398.0","oy5a3mcb","","","","","","","",""
"","","","call-function","399","974146","0.0-399.0","oy5a3mcb","","","","","","","",""
"null","","","html-keyboard-response","400","975650","0.0-400.0","oy5a3mcb","","<span style=""color:Black; font-size:50px;"">Agent A","null","","","","",""
"null","","","video-keyboard-response","401","978482","0.0-401.0","oy5a3mcb","","","null","","Agent A","scrambled","FOR_REV_BLOBBY_STIM/1159440.bmp_pp98_L1_V1.0_veridical_freeview_isoFalse_fps144_reversed_REAL.mp4",""
"null","","","html-keyboard-response","402","979987","0.0-402.0","oy5a3mcb","","<span style=""color:Black; font-size:50px;"">Agent B","null","","","","",""
"null","","","video-keyboard-response","403","982824","0.0-403.0","oy5a3mcb","","","null","","Agent B","veridical","FOR_REV_BLOBBY_STIM/1159440.bmp_pp98_L1_V1.0_veridical_freeview_isoFalse_fps144.mp4",""
"","","","call-function","404","982825","0.0-404.0","oy5a3mcb","","","","","","","",""
"1638.579999999958","{""judgement"":1}","[0]","survey-likert","405","984465","0.0-405.0","oy5a3mcb","","","","","","","","1"
"996.7600000000093","{""confidence"":3}","[0]","survey-likert","406","985464","0.0-406.0","oy5a3mcb","","","","","","","",""
"","","","call-function","407","985465","0.0-407.0","oy5a3mcb","","","","","","","",""
"null","","","html-keyboard-response","408","986968","0.0-408.0","oy5a3mcb","","<span style=""color:Black; font-size:50px;"">Agent A","null","","","","",""
"null","","","video-keyboard-response","409","989537","0.0-409.0","oy5a3mcb","","","null","","Agent A","veridical","FOR_REV_BLOBBY_STIM/1159515.bmp_pp84_L3_V1.0_veridical_freeview_isoFalse_fps144.mp4",""
"null","","","html-keyboard-response","410","991041","0.0-410.0","oy5a3mcb","","<span style=""color:Black; font-size:50px;"">Agent B","null","","","","",""
"null","","","video-keyboard-response","411","993608","0.0-411.0","oy5a3mcb","","","null","","Agent B","scrambled","FOR_REV_BLOBBY_STIM/1159515.bmp_pp84_L3_V1.0_veridical_freeview_isoFalse_fps144_reversed_REAL.mp4",""
"","","","call-function","412","993609","0.0-412.0","oy5a3mcb","","","","","","","",""
"3440.4349999999395","{""judgement"":1}","[0]","survey-likert","413","997051","0.0-413.0","oy5a3mcb","","","","","","","","0"
"1019.7099999999627","{""confidence"":1}","[0]","survey-likert","414","998074","0.0-414.0","oy5a3mcb","","","","","","","",""
"1962.7449999999953","","","instructions","415","1000038","0.0-415.0","oy5a3mcb","[{""page_index"":0,""viewing_time"":1020.2099999999627},{""page_index"":1,""viewing_time"":371.0899999999674},{""page_index"":2,""viewing_time"":571.2800000000279}]","","","","","","",""
"1459.109999999986","","","instructions","416","1001498","0.0-416.0","oy5a3mcb","[{""page_index"":0,""viewing_time"":446.94999999995343},{""page_index"":1,""viewing_time"":519.1800000000512},{""page_index"":2,""viewing_time"":492.8649999999907}]","","","","","","",""
"","","","call-function","417","1001500","0.0-417.0","oy5a3mcb","","","","","","","",""
"null","","","html-keyboard-response","418","1003002","0.0-418.0","oy5a3mcb","","<span style=""color:Black; font-size:50px;"">Agent A","null","","","","",""
"null","","","video-keyboard-response","419","1005839","0.0-419.0","oy5a3mcb","","","null","","Agent A","scrambled","FOR_REV_BLOBBY_STIM/1592351.bmp_pp51_L1_V1.0_veridical_freeview_isoFalse_fps144_reversed_REAL.mp4",""
"null","","","html-keyboard-response","420","1007343","0.0-420.0","oy5a3mcb","","<span style=""color:Black; font-size:50px;"">Agent B","null","","","","",""
"null","","","video-keyboard-response","421","1010178","0.0-421.0","oy5a3mcb","","","null","","Agent B","veridical","FOR_REV_BLOBBY_STIM/1592351.bmp_pp51_L1_V1.0_veridical_freeview_isoFalse_fps144.mp4",""
"","","","call-function","422","1010179","0.0-422.0","oy5a3mcb","","","","","","","",""
"2124.5350000000326","{""judgement"":0}","[0]","survey-likert","423","1012305","0.0-423.0","oy5a3mcb","","","","","","","","1"
"1464.8899999998976","{""confidence"":2}","[0]","survey-likert","424","1013772","0.0-424.0","oy5a3mcb","","","","","","","",""
"","","","call-function","425","1013774","0.0-425.0","oy5a3mcb","","","","","","","",""
"null","","","html-keyboard-response","426","1015275","0.0-426.0","oy5a3mcb","","<span style=""color:Black; font-size:50px;"">Agent A","null","","","","",""
"null","","","video-keyboard-response","427","1017829","0.0-427.0","oy5a3mcb","","","null","","Agent A","scrambled","FOR_REV_BLOBBY_STIM/713796.bmp_pp84_L3_V1.0_veridical_freeview_isoFalse_fps144_reversed_REAL.mp4",""
"null","","","html-keyboard-response","428","1019335","0.0-428.0","oy5a3mcb","","<span style=""color:Black; font-size:50px;"">Agent B","null","","","","",""
"null","","","video-keyboard-response","429","1021859","0.0-429.0","oy5a3mcb","","","null","","Agent B","veridical","FOR_REV_BLOBBY_STIM/713796.bmp_pp84_L3_V1.0_veridical_freeview_isoFalse_fps144.mp4",""
"","","","call-function","430","1021860","0.0-430.0","oy5a3mcb","","","","","","","",""
"1710.7900000000373","{""judgement"":1}","[0]","survey-likert","431","1023572","0.0-431.0","oy5a3mcb","","","","","","","","1"
"1337.5550000000512","{""confidence"":3}","[0]","survey-likert","432","1024912","0.0-432.0","oy5a3mcb","","","","","","","",""
"","","","call-function","433","1024913","0.0-433.0","oy5a3mcb","","","","","","","",""
"null","","","html-keyboard-response","434","1026418","0.0-434.0","oy5a3mcb","","<span style=""color:Black; font-size:50px;"">Agent A","null","","","","",""
"null","","","video-keyboard-response","435","1029003","0.0-435.0","oy5a3mcb","","","null","","Agent A","veridical","FOR_REV_BLOBBY_STIM/286001.bmp_pp54_L2_V1.0_veridical_freeview_isoFalse_fps144.mp4",""
"null","","","html-keyboard-response","436","1030510","0.0-436.0","oy5a3mcb","","<span style=""color:Black; font-size:50px;"">Agent B","null","","","","",""
"null","","","video-keyboard-response","437","1033096","0.0-437.0","oy5a3mcb","","","null","","Agent B","scrambled","FOR_REV_BLOBBY_STIM/286001.bmp_pp54_L2_V1.0_veridical_freeview_isoFalse_fps144_reversed_REAL.mp4",""
"","","","call-function","438","1033097","0.0-438.0","oy5a3mcb","","","","","","","",""
"2405.4150000000373","{""judgement"":0}","[0]","survey-likert","439","1035503","0.0-439.0","oy5a3mcb","","","","","","","","0"
"1332.969999999972","{""confidence"":2}","[0]","survey-likert","440","1036839","0.0-440.0","oy5a3mcb","","","","","","","",""
"","","","call-function","441","1036840","0.0-441.0","oy5a3mcb","","","","","","","",""
"null","","","html-keyboard-response","442","1038344","0.0-442.0","oy5a3mcb","","<span style=""color:Black; font-size:50px;"">Agent A","null","","","","",""
"null","","","video-keyboard-response","443","1041106","0.0-443.0","oy5a3mcb","","","null","","Agent A","veridical","FOR_REV_BLOBBY_STIM/1592619.bmp_pp56_L3_V1.0_veridical_freeview_isoFalse_fps144.mp4",""
"null","","","html-keyboard-response","444","1042611","0.0-444.0","oy5a3mcb","","<span style=""color:Black; font-size:50px;"">Agent B","null","","","","",""
"null","","","video-keyboard-response","445","1045384","0.0-445.0","oy5a3mcb","","","null","","Agent B","scrambled","FOR_REV_BLOBBY_STIM/1592619.bmp_pp56_L3_V1.0_veridical_freeview_isoFalse_fps144_reversed_REAL.mp4",""
"","","","call-function","446","1045385","0.0-446.0","oy5a3mcb","","","","","","","",""
"1794.5649999999441","{""judgement"":0}","[0]","survey-likert","447","1047181","0.0-447.0","oy5a3mcb","","","","","","","","0"
"1097.6149999999907","{""confidence"":2}","[0]","survey-likert","448","1048281","0.0-448.0","oy5a3mcb","","","","","","","",""
"","","","call-function","449","1048282","0.0-449.0","oy5a3mcb","","","","","","","",""
"null","","","html-keyboard-response","450","1049784","0.0-450.0","oy5a3mcb","","<span style=""color:Black; font-size:50px;"">Agent A","null","","","","",""
"null","","","video-keyboard-response","451","1052637","0.0-451.0","oy5a3mcb","","","null","","Agent A","veridical","FOR_REV_BLOBBY_STIM/1592657.bmp_pp98_L1_V1.0_veridical_freeview_isoFalse_fps144.mp4",""
"null","","","html-keyboard-response","452","1054142","0.0-452.0","oy5a3mcb","","<span style=""color:Black; font-size:50px;"">Agent B","null","","","","",""
"null","","","video-keyboard-response","453","1056994","0.0-453.0","oy5a3mcb","","","null","","Agent B","scrambled","FOR_REV_BLOBBY_STIM/1592657.bmp_pp98_L1_V1.0_veridical_freeview_isoFalse_fps144_reversed_REAL.mp4",""
"","","","call-function","454","1056996","0.0-454.0","oy5a3mcb","","","","","","","",""
"1140.8200000000652","{""judgement"":0}","[0]","survey-likert","455","1058137","0.0-455.0","oy5a3mcb","","","","","","","","0"
"1236.9300000001676","{""confidence"":3}","[0]","survey-likert","456","1059376","0.0-456.0","oy5a3mcb","","","","","","","",""
"","","","call-function","457","1059378","0.0-457.0","oy5a3mcb","","","","","","","",""
"null","","","html-keyboard-response","458","1060881","0.0-458.0","oy5a3mcb","","<span style=""color:Black; font-size:50px;"">Agent A","null","","","","",""
"null","","","video-keyboard-response","459","1063736","0.0-459.0","oy5a3mcb","","","null","","Agent A","veridical","FOR_REV_BLOBBY_STIM/713593.bmp_pp64_L1_V1.0_veridical_freeview_isoFalse_fps144.mp4",""
"null","","","html-keyboard-response","460","1065249","0.0-460.0","oy5a3mcb","","<span style=""color:Black; font-size:50px;"">Agent B","null","","","","",""
"null","","","video-keyboard-response","461","1068114","0.0-461.0","oy5a3mcb","","","null","","Agent B","scrambled","FOR_REV_BLOBBY_STIM/713593.bmp_pp64_L1_V1.0_veridical_freeview_isoFalse_fps144_reversed_REAL.mp4",""
"","","","call-function","462","1068117","0.0-462.0","oy5a3mcb","","","","","","","",""
"1911.1599999999162","{""judgement"":0}","[0]","survey-likert","463","1070030","0.0-463.0","oy5a3mcb","","","","","","","","0"
"1689.8850000000093","{""confidence"":3}","[0]","survey-likert","464","1071722","0.0-464.0","oy5a3mcb","","","","","","","",""
"","","","call-function","465","1071724","0.0-465.0","oy5a3mcb","","","","","","","",""
"null","","","html-keyboard-response","466","1073225","0.0-466.0","oy5a3mcb","","<span style=""color:Black; font-size:50px;"">Agent A","null","","","","",""
"null","","","video-keyboard-response","467","1076012","0.0-467.0","oy5a3mcb","","","null","","Agent A","veridical","FOR_REV_BLOBBY_STIM/1159829.bmp_pp91_L3_V1.0_veridical_freeview_isoFalse_fps144.mp4",""
"null","","","html-keyboard-response","468","1077518","0.0-468.0","oy5a3mcb","","<span style=""color:Black; font-size:50px;"">Agent B","null","","","","",""
"null","","","video-keyboard-response","469","1080309","0.0-469.0","oy5a3mcb","","","null","","Agent B","scrambled","FOR_REV_BLOBBY_STIM/1159829.bmp_pp91_L3_V1.0_veridical_freeview_isoFalse_fps144_reversed_REAL.mp4",""
"","","","call-function","470","1080312","0.0-470.0","oy5a3mcb","","","","","","","",""
"1538.9799999999814","{""judgement"":0}","[0]","survey-likert","471","1081852","0.0-471.0","oy5a3mcb","","","","","","","","0"
"959.6350000000093","{""confidence"":3}","[0]","survey-likert","472","1082814","0.0-472.0","oy5a3mcb","","","","","","","",""
"","","","call-function","473","1082816","0.0-473.0","oy5a3mcb","","","","","","","",""
"null","","","html-keyboard-response","474","1084318","0.0-474.0","oy5a3mcb","","<span style=""color:Black; font-size:50px;"">Agent A","null","","","","",""
"null","","","video-keyboard-response","475","1087064","0.0-475.0","oy5a3mcb","","","null","","Agent A","veridical","FOR_REV_BLOBBY_STIM/1591954.bmp_pp62_L2_V1.0_veridical_freeview_isoFalse_fps144.mp4",""
"null","","","html-keyboard-response","476","1088569","0.0-476.0","oy5a3mcb","","<span style=""color:Black; font-size:50px;"">Agent B","null","","","","",""
"null","","","video-keyboard-response","477","1091330","0.0-477.0","oy5a3mcb","","","null","","Agent B","scrambled","FOR_REV_BLOBBY_STIM/1591954.bmp_pp62_L2_V1.0_veridical_freeview_isoFalse_fps144_reversed_REAL.mp4",""
"","","","call-function","478","1091332","0.0-478.0","oy5a3mcb","","","","","","","",""
"1512.5","{""judgement"":0}","[0]","survey-likert","479","1092846","0.0-479.0","oy5a3mcb","","","","","","","","0"
"1545.6650000000373","{""confidence"":3}","[0]","survey-likert","480","1094394","0.0-480.0","oy5a3mcb","","","","","","","",""
"","","","call-function","481","1094395","0.0-481.0","oy5a3mcb","","","","","","","",""
"null","","","html-keyboard-response","482","1095898","0.0-482.0","oy5a3mcb","","<span style=""color:Black; font-size:50px;"">Agent A","null","","","","",""
"null","","","video-keyboard-response","483","1098744","0.0-483.0","oy5a3mcb","","","null","","Agent A","veridical","FOR_REV_BLOBBY_STIM/713403.bmp_pp80_L3_V1.0_veridical_freeview_isoFalse_fps144.mp4",""
"null","","","html-keyboard-response","484","1100248","0.0-484.0","oy5a3mcb","","<span style=""color:Black; font-size:50px;"">Agent B","null","","","","",""
"null","","","video-keyboard-response","485","1103101","0.0-485.0","oy5a3mcb","","","null","","Agent B","scrambled","FOR_REV_BLOBBY_STIM/713403.bmp_pp80_L3_V1.0_veridical_freeview_isoFalse_fps144_reversed_REAL.mp4",""
"","","","call-function","486","1103102","0.0-486.0","oy5a3mcb","","","","","","","",""
"1652.8900000001304","{""judgement"":0}","[0]","survey-likert","487","1104756","0.0-487.0","oy5a3mcb","","","","","","","","0"
"981.3599999998696","{""confidence"":3}","[0]","survey-likert","488","1105741","0.0-488.0","oy5a3mcb","","","","","","","",""
"","","","call-function","489","1105742","0.0-489.0","oy5a3mcb","","","","","","","",""
"null","","","html-keyboard-response","490","1107246","0.0-490.0","oy5a3mcb","","<span style=""color:Black; font-size:50px;"">Agent A","null","","","","",""
"null","","","video-keyboard-response","491","1109996","0.0-491.0","oy5a3mcb","","","null","","Agent A","scrambled","FOR_REV_BLOBBY_STIM/1159446.bmp_pp60_L3_V1.0_veridical_freeview_isoFalse_fps144_reversed_REAL.mp4",""
"null","","","html-keyboard-response","492","1111503","0.0-492.0","oy5a3mcb","","<span style=""color:Black; font-size:50px;"">Agent B","null","","","","",""
"null","","","video-keyboard-response","493","1114248","0.0-493.0","oy5a3mcb","","","null","","Agent B","veridical","FOR_REV_BLOBBY_STIM/1159446.bmp_pp60_L3_V1.0_veridical_freeview_isoFalse_fps144.mp4",""
"","","","call-function","494","1114249","0.0-494.0","oy5a3mcb","","","","","","","",""
"1267.4250000000466","{""judgement"":1}","[0]","survey-likert","495","1115518","0.0-495.0","oy5a3mcb","","","","","","","","1"
"1449.9550000000745","{""confidence"":3}","[0]","survey-likert","496","1116970","0.0-496.0","oy5a3mcb","","","","","","","",""
"1413.4450000000652","","","instructions","497","1118385","0.0-497.0","oy5a3mcb","[{""page_index"":0,""viewing_time"":852.5800000000745},{""page_index"":1,""viewing_time"":177.92500000004657},{""page_index"":2,""viewing_time"":382.77499999990687}]","","","","","","",""
"1142.3950000000186","","","instructions","498","1119529","0.0-498.0","oy5a3mcb","[{""page_index"":0,""viewing_time"":363.3200000000652},{""page_index"":1,""viewing_time"":397.0549999999348},{""page_index"":2,""viewing_time"":381.90500000002794}]","","","","","","",""
"","","","call-function","499","1119530","0.0-499.0","oy5a3mcb","","","","","","","",""
"null","","","html-keyboard-response","500","1121032","0.0-500.0","oy5a3mcb","","<span style=""color:Black; font-size:50px;"">Agent A","null","","","","",""
"null","","","video-keyboard-response","501","1123850","0.0-501.0","oy5a3mcb","","","null","","Agent A","veridical","FOR_REV_BLOBBY_STIM/1591994.bmp_pp69_L3_V1.0_veridical_freeview_isoFalse_fps144.mp4",""
"null","","","html-keyboard-response","502","1125358","0.0-502.0","oy5a3mcb","","<span style=""color:Black; font-size:50px;"">Agent B","null","","","","",""
"null","","","video-keyboard-response","503","1128162","0.0-503.0","oy5a3mcb","","","null","","Agent B","scrambled","FOR_REV_BLOBBY_STIM/1591994.bmp_pp69_L3_V1.0_veridical_freeview_isoFalse_fps144_reversed_REAL.mp4",""
"","","","call-function","504","1128164","0.0-504.0","oy5a3mcb","","","","","","","",""
"2093.945000000065","{""judgement"":0}","[0]","survey-likert","505","1130259","0.0-505.0","oy5a3mcb","","","","","","","","0"
"1343.6699999999255","{""confidence"":1}","[0]","survey-likert","506","1131605","0.0-506.0","oy5a3mcb","","","","","","","",""
"","","","call-function","507","1131606","0.0-507.0","oy5a3mcb","","","","","","","",""
"null","","","html-keyboard-response","508","1133111","0.0-508.0","oy5a3mcb","","<span style=""color:Black; font-size:50px;"">Agent A","null","","","","",""
"null","","","video-keyboard-response","509","1136037","0.0-509.0","oy5a3mcb","","","null","","Agent A","veridical","FOR_REV_BLOBBY_STIM/285905.bmp_pp57_L1_V1.0_veridical_freeview_isoFalse_fps144.mp4",""
"null","","","html-keyboard-response","510","1137541","0.0-510.0","oy5a3mcb","","<span style=""color:Black; font-size:50px;"">Agent B","null","","","","",""
"null","","","video-keyboard-response","511","1140424","0.0-511.0","oy5a3mcb","","","null","","Agent B","scrambled","FOR_REV_BLOBBY_STIM/285905.bmp_pp57_L1_V1.0_veridical_freeview_isoFalse_fps144_reversed_REAL.mp4",""
"","","","call-function","512","1140426","0.0-512.0","oy5a3mcb","","","","","","","",""
"2495.3950000000186","{""judgement"":0}","[0]","survey-likert","513","1142922","0.0-513.0","oy5a3mcb","","","","","","","","0"
"1004.285000000149","{""confidence"":1}","[0]","survey-likert","514","1143929","0.0-514.0","oy5a3mcb","","","","","","","",""
"","","","call-function","515","1143931","0.0-515.0","oy5a3mcb","","","","","","","",""
"null","","","html-keyboard-response","516","1145433","0.0-516.0","oy5a3mcb","","<span style=""color:Black; font-size:50px;"">Agent A","null","","","","",""
"null","","","video-keyboard-response","517","1148286","0.0-517.0","oy5a3mcb","","","null","","Agent A","scrambled","FOR_REV_BLOBBY_STIM/1160127.bmp_pp90_L2_V1.0_veridical_freeview_isoFalse_fps144_reversed_REAL.mp4",""
"null","","","html-keyboard-response","518","1149790","0.0-518.0","oy5a3mcb","","<span style=""color:Black; font-size:50px;"">Agent B","null","","","","",""
"null","","","video-keyboard-response","519","1152644","0.0-519.0","oy5a3mcb","","","null","","Agent B","veridical","FOR_REV_BLOBBY_STIM/1160127.bmp_pp90_L2_V1.0_veridical_freeview_isoFalse_fps144.mp4",""
"","","","call-function","520","1152646","0.0-520.0","oy5a3mcb","","","","","","","",""
"1632.0400000000373","{""judgement"":1}","[0]","survey-likert","521","1154279","0.0-521.0","oy5a3mcb","","","","","","","","1"
"1022.9849999998696","{""confidence"":2}","[0]","survey-likert","522","1155304","0.0-522.0","oy5a3mcb","","","","","","","",""
"","","","call-function","523","1155305","0.0-523.0","oy5a3mcb","","","","","","","",""
"null","","","html-keyboard-response","524","1156807","0.0-524.0","oy5a3mcb","","<span style=""color:Black; font-size:50px;"">Agent A","null","","","","",""
"null","","","video-keyboard-response","525","1159642","0.0-525.0","oy5a3mcb","","","null","","Agent A","veridical","FOR_REV_BLOBBY_STIM/713681.bmp_pp86_L2_V1.0_veridical_freeview_isoFalse_fps144.mp4",""
"null","","","html-keyboard-response","526","1161147","0.0-526.0","oy5a3mcb","","<span style=""color:Black; font-size:50px;"">Agent B","null","","","","",""
"null","","","video-keyboard-response","527","1163971","0.0-527.0","oy5a3mcb","","","null","","Agent B","scrambled","FOR_REV_BLOBBY_STIM/713681.bmp_pp86_L2_V1.0_veridical_freeview_isoFalse_fps144_reversed_REAL.mp4",""
"","","","call-function","528","1163972","0.0-528.0","oy5a3mcb","","","","","","","",""
"2503.4950000001118","{""judgement"":0}","[0]","survey-likert","529","1166477","0.0-529.0","oy5a3mcb","","","","","","","","0"
"1834.0200000000186","{""confidence"":1}","[0]","survey-likert","530","1168313","0.0-530.0","oy5a3mcb","","","","","","","",""
"","","","call-function","531","1168314","0.0-531.0","oy5a3mcb","","","","","","","",""
"null","","","html-keyboard-response","532","1169817","0.0-532.0","oy5a3mcb","","<span style=""color:Black; font-size:50px;"">Agent A","null","","","","",""
"null","","","video-keyboard-response","533","1172621","0.0-533.0","oy5a3mcb","","","null","","Agent A","scrambled","FOR_REV_BLOBBY_STIM/498155.bmp_pp61_L2_V1.0_veridical_freeview_isoFalse_fps144_reversed_REAL.mp4",""
"null","","","html-keyboard-response","534","1174128","0.0-534.0","oy5a3mcb","","<span style=""color:Black; font-size:50px;"">Agent B","null","","","","",""
"null","","","video-keyboard-response","535","1176930","0.0-535.0","oy5a3mcb","","","null","","Agent B","veridical","FOR_REV_BLOBBY_STIM/498155.bmp_pp61_L2_V1.0_veridical_freeview_isoFalse_fps144.mp4",""
"","","","call-function","536","1176932","0.0-536.0","oy5a3mcb","","","","","","","",""
"1244.0349999999162","{""judgement"":1}","[0]","survey-likert","537","1178177","0.0-537.0","oy5a3mcb","","","","","","","","1"
"1241.9199999999255","{""confidence"":3}","[0]","survey-likert","538","1179429","0.0-538.0","oy5a3mcb","","","","","","","",""
"","","","call-function","539","1179431","0.0-539.0","oy5a3mcb","","","","","","","",""
"null","","","html-keyboard-response","540","1180937","0.0-540.0","oy5a3mcb","","<span style=""color:Black; font-size:50px;"">Agent A","null","","","","",""
"null","","","video-keyboard-response","541","1183773","0.0-541.0","oy5a3mcb","","","null","","Agent A","scrambled","FOR_REV_BLOBBY_STIM/498175.bmp_pp154_L1_V1.0_veridical_freeview_isoFalse_fps144_reversed_REAL.mp4",""
"null","","","html-keyboard-response","542","1185278","0.0-542.0","oy5a3mcb","","<span style=""color:Black; font-size:50px;"">Agent B","null","","","","",""
"null","","","video-keyboard-response","543","1188082","0.0-543.0","oy5a3mcb","","","null","","Agent B","veridical","FOR_REV_BLOBBY_STIM/498175.bmp_pp154_L1_V1.0_veridical_freeview_isoFalse_fps144.mp4",""
"","","","call-function","544","1188084","0.0-544.0","oy5a3mcb","","","","","","","",""
"1357.2899999998044","{""judgement"":1}","[0]","survey-likert","545","1189443","0.0-545.0","oy5a3mcb","","","","","","","","1"
"724.8900000001304","{""confidence"":3}","[0]","survey-likert","546","1190172","0.0-546.0","oy5a3mcb","","","","","","","",""
"","","","call-function","547","1190174","0.0-547.0","oy5a3mcb","","","","","","","",""
"null","","","html-keyboard-response","548","1191676","0.0-548.0","oy5a3mcb","","<span style=""color:Black; font-size:50px;"">Agent A","null","","","","",""
"null","","","video-keyboard-response","549","1194528","0.0-549.0","oy5a3mcb","","","null","","Agent A","scrambled","FOR_REV_BLOBBY_STIM/1159572.bmp_pp71_L1_V1.0_veridical_freeview_isoFalse_fps144_reversed_REAL.mp4",""
"null","","","html-keyboard-response","550","1196032","0.0-550.0","oy5a3mcb","","<span style=""color:Black; font-size:50px;"">Agent B","null","","","","",""
"null","","","video-keyboard-response","551","1198883","0.0-551.0","oy5a3mcb","","","null","","Agent B","veridical","FOR_REV_BLOBBY_STIM/1159572.bmp_pp71_L1_V1.0_veridical_freeview_isoFalse_fps144.mp4",""
"","","","call-function","552","1198884","0.0-552.0","oy5a3mcb","","","","","","","",""
"1316.3600000001024","{""judgement"":0}","[0]","survey-likert","553","1200202","0.0-553.0","oy5a3mcb","","","","","","","","1"
"875.6899999999441","{""confidence"":2}","[0]","survey-likert","554","1201081","0.0-554.0","oy5a3mcb","","","","","","","",""
"","","","call-function","555","1201083","0.0-555.0","oy5a3mcb","","","","","","","",""
"null","","","html-keyboard-response","556","1202585","0.0-556.0","oy5a3mcb","","<span style=""color:Black; font-size:50px;"">Agent A","null","","","","",""
"null","","","video-keyboard-response","557","1205331","0.0-557.0","oy5a3mcb","","","null","","Agent A","scrambled","FOR_REV_BLOBBY_STIM/1592934.bmp_pp63_L1_V1.0_veridical_freeview_isoFalse_fps144_reversed_REAL.mp4",""
"null","","","html-keyboard-response","558","1206836","0.0-558.0","oy5a3mcb","","<span style=""color:Black; font-size:50px;"">Agent B","null","","","","",""
"null","","","video-keyboard-response","559","1209582","0.0-559.0","oy5a3mcb","","","null","","Agent B","veridical","FOR_REV_BLOBBY_STIM/1592934.bmp_pp63_L1_V1.0_veridical_freeview_isoFalse_fps144.mp4",""
"","","","call-function","560","1209583","0.0-560.0","oy5a3mcb","","","","","","","",""
"1251.8299999998417","{""judgement"":1}","[0]","survey-likert","561","1210836","0.0-561.0","oy5a3mcb","","","","","","","","1"
"955.1749999998137","{""confidence"":0}","[0]","survey-likert","562","1211793","0.0-562.0","oy5a3mcb","","","","","","","",""
"","","","call-function","563","1211795","0.0-563.0","oy5a3mcb","","","","","","","",""
"null","","","html-keyboard-response","564","1213302","0.0-564.0","oy5a3mcb","","<span style=""color:Black; font-size:50px;"">Agent A","null","","","","",""
"null","","","video-keyboard-response","565","1215981","0.0-565.0","oy5a3mcb","","","null","","Agent A","veridical","FOR_REV_BLOBBY_STIM/713707.bmp_pp154_L1_V1.0_veridical_freeview_isoFalse_fps144.mp4",""
"null","","","html-keyboard-response","566","1217486","0.0-566.0","oy5a3mcb","","<span style=""color:Black; font-size:50px;"">Agent B","null","","","","",""
"null","","","video-keyboard-response","567","1220147","0.0-567.0","oy5a3mcb","","","null","","Agent B","scrambled","FOR_REV_BLOBBY_STIM/713707.bmp_pp154_L1_V1.0_veridical_freeview_isoFalse_fps144_reversed_REAL.mp4",""
"","","","call-function","568","1220149","0.0-568.0","oy5a3mcb","","","","","","","",""
"1875.5500000000466","{""judgement"":1}","[0]","survey-likert","569","1222025","0.0-569.0","oy5a3mcb","","","","","","","","0"
"1189.5150000001304","{""confidence"":1}","[0]","survey-likert","570","1223217","0.0-570.0","oy5a3mcb","","","","","","","",""
"","","","call-function","571","1223218","0.0-571.0","oy5a3mcb","","","","","","","",""
"null","","","html-keyboard-response","572","1224720","0.0-572.0","oy5a3mcb","","<span style=""color:Black; font-size:50px;"">Agent A","null","","","","",""
"null","","","video-keyboard-response","573","1227533","0.0-573.0","oy5a3mcb","","","null","","Agent A","veridical","FOR_REV_BLOBBY_STIM/713135.bmp_pp54_L2_V1.0_veridical_freeview_isoFalse_fps144.mp4",""
"null","","","html-keyboard-response","574","1229040","0.0-574.0","oy5a3mcb","","<span style=""color:Black; font-size:50px;"">Agent B","null","","","","",""
"null","","","video-keyboard-response","575","1231853","0.0-575.0","oy5a3mcb","","","null","","Agent B","scrambled","FOR_REV_BLOBBY_STIM/713135.bmp_pp54_L2_V1.0_veridical_freeview_isoFalse_fps144_reversed_REAL.mp4",""
"","","","call-function","576","1231855","0.0-576.0","oy5a3mcb","","","","","","","",""
"1515.7600000000093","{""judgement"":1}","[0]","survey-likert","577","1233372","0.0-577.0","oy5a3mcb","","","","","","","","0"
"999.1100000001024","{""confidence"":2}","[0]","survey-likert","578","1234373","0.0-578.0","oy5a3mcb","","","","","","","",""
"1199.2549999998882","","","instructions","579","1235574","0.0-579.0","oy5a3mcb","[{""page_index"":0,""viewing_time"":1199.1049999999814}]","","","","","","",""
"3202.5150000001304","","","instructions","580","1238778","0.0-580.0","oy5a3mcb","[{""page_index"":0,""viewing_time"":3202.4000000001397}]","","","","","","",""
"6531.704999999842","{""post-1"":3}","[0]","survey-likert","581","1245312","0.0-581.0","oy5a3mcb","","","","","","","",""
"2387.9199999999255","{""post-1"":0}","[0]","survey-likert","582","1247702","0.0-582.0","oy5a3mcb","","","","","","","",""
"3639.630000000121","{""post-2"":3}","[0]","survey-likert","583","1251343","0.0-583.0","oy5a3mcb","","","","","","","",""
"1900.3599999998696","{""post-2"":0}","[0]","survey-likert","584","1253246","0.0-584.0","oy5a3mcb","","","","","","","",""
"3500.8650000002235","{""post-3"":3}","[0]","survey-likert","585","1256749","0.0-585.0","oy5a3mcb","","","","","","","",""
"3091.9850000001024","{""post-3"":0}","[0]","survey-likert","586","1259844","0.0-586.0","oy5a3mcb","","","","","","","",""
"12248.699999999953","{""post-4"":0}","[0]","survey-likert","587","1272096","0.0-587.0","oy5a3mcb","","","","","","","",""
"1436.6499999999069","{""post-4"":1}","[0]","survey-likert","588","1273536","0.0-588.0","oy5a3mcb","","","","","","","",""
"3633.7900000000373","{""post-5"":0}","[0]","survey-likert","589","1277172","0.0-589.0","oy5a3mcb","","","","","","","",""
"2325.7100000001956","{""post-5"":3}","[0]","survey-likert","590","1279500","0.0-590.0","oy5a3mcb","","","","","","","",""
"48228.64999999991","{""Q0"":""With the pictures, not only did I have to concentrate on the hotspots but also the content of the photo. I felt as if there were times when my eyes could predict where the next spot might go depending on the content of the image.""}","","survey-text","591","1327738","0.0-591.0","oy5a3mcb","","","","","","","",""
"55931.64000000013","{""Q0"":""It was easiest responding using my first instinct. My strategy was to follow the spots but to also consider how I would look to interpret the image too. This means that I was following the spots while trying to absorb the content.""}","","survey-text","592","1383676","0.0-592.0","oy5a3mcb","","","","","","","",""
"22066.139999999898","{""Q0"":""It was difficult trying not to look at the image in my own way to try to understand what was in the image.""}","","survey-text","593","1405749","0.0-593.0","oy5a3mcb","","","","","","","",""
"460156.4950000001","","","instructions","594","1865910","0.0-594.0","oy5a3mcb","[{""page_index"":0,""viewing_time"":460156.345}]","","","","","","",""
"48103.01000000001","{""Experimenter_end"":[""Printed ID# oy5a3mcb on consent form"",""Given subject SONA credit or payment"",""Given the subject debrief form""]}","[0]","survey-multi-select","595","1914018","0.0-595.0","oy5a3mcb","","","","","","","",""
