,rt,responses,question_order,trial_type,trial_index,time_elapsed,internal_node_id,ID,view_history,key_press,stimulus,agent,condition,image,correct_answer,proportion_correct
0,14336.055,"{""Experimenter"":[""Confirmed subject's identity"",""Confirmed normal or corrected-to-normal vision"",""Obtained consent (signature and date)"",""Checked the test room lighting"",""Checked computer screen lighting"",""Checked distance from screen to chin rest (50cm)"",""Cleaned and adjusted chin rest"",""Counterbalanced the order of the tasks"",""Opened the experiment in Firefox"",""Made the experiment full screen"",""Encouraged subject to silence phone, put away distractors, etc.""]}",[0],survey-multi-select,0,14344,0.0-0.0,g7w9ueww,,,,,,,,
1,169732.62,,,instructions,1,184079,0.0-1.0,g7w9ueww,"[{""page_index"":0,""viewing_time"":169732.465}]",,,,,,,
2,13989.140000000000,,,instructions,2,198068,0.0-2.0,g7w9ueww,"[{""page_index"":0,""viewing_time"":5775.924999999988},{""page_index"":1,""viewing_time"":1629.0350000000035},{""page_index"":2,""viewing_time"":6584.054999999993}]",,,,,,,
3,3005.375,,,instructions,3,201074,0.0-3.0,g7w9ueww,"[{""page_index"":0,""viewing_time"":3005.2699999999895}]",,,,,,,
4,Nothing,,,video-keyboard-response,4,204150,0.0-4.0,g7w9ueww,,Nothing,,,,,,
5,13426.090000000000,,,instructions,5,217576,0.0-5.0,g7w9ueww,"[{""page_index"":0,""viewing_time"":4455.985000000015},{""page_index"":1,""viewing_time"":2825.929999999993},{""page_index"":2,""viewing_time"":6144.070000000007}]",,,,,,,
6,3546.540000000010,,,instructions,6,221123,0.0-6.0,g7w9ueww,"[{""page_index"":0,""viewing_time"":3546.4349999999977}]",,,,,,,
7,2011.7800000000000,,,instructions,7,223135,0.0-7.0,g7w9ueww,"[{""page_index"":0,""viewing_time"":2011.5599999999977}]",,,,,,,
8,Nothing,,,video-keyboard-response,8,226214,0.0-8.0,g7w9ueww,,Nothing,,,,,,
9,17084.875,,,instructions,9,243299,0.0-9.0,g7w9ueww,"[{""page_index"":0,""viewing_time"":1313.8249999999825},{""page_index"":1,""viewing_time"":4271.995000000024},{""page_index"":2,""viewing_time"":11498.919999999984}]",,,,,,,
10,4961.679999999990,,,instructions,10,248261,0.0-10.0,g7w9ueww,"[{""page_index"":0,""viewing_time"":4961.559999999998}]",,,,,,,
11,,,,call-function,11,248262,0.0-11.0,g7w9ueww,,,,,,,,
12,Nothing,,,html-keyboard-response,12,249766,0.0-12.0,g7w9ueww,,Nothing,['Agent A'],,,,,
13,Nothing,,,video-keyboard-response,13,252836,0.0-13.0,g7w9ueww,,Nothing,,Agent A,scrambled,STIM_SET_2/1592567.bmp_pp70_L2_V1.0_scrambled_freeview_isoTrue.mp4,,
14,Nothing,,,html-keyboard-response,14,254341,0.0-14.0,g7w9ueww,,Nothing,['Agent B'],,,,,
15,Nothing,,,video-keyboard-response,15,257411,0.0-15.0,g7w9ueww,,Nothing,,Agent B,veridical,STIM_SET_2/1592567.bmp_pp70_L2_V1.0_veridical_freeview_isoTrue.mp4,,
16,,,,call-function,16,257411,0.0-16.0,g7w9ueww,,,,,,,,
17,10481.035000000000,"{""judgement"":0}",[0],survey-likert,17,267894,0.0-17.0,g7w9ueww,,,,,,,1.0,0
18,4173.885000000010,"{""confidence"":0}",[0],survey-likert,18,272069,0.0-18.0,g7w9ueww,,,,,,,,
19,,,,call-function,19,272069,0.0-19.0,g7w9ueww,,,,,,,,
20,Nothing,,,html-keyboard-response,20,273571,0.0-20.0,g7w9ueww,,Nothing,['Agent A'],,,,,
21,Nothing,,,video-keyboard-response,21,276649,0.0-21.0,g7w9ueww,,Nothing,,Agent A,scrambled,STIM_SET_2/285959.bmp_pp93_L1_V1.0_scrambled_freeview_isoTrue.mp4,,
22,Nothing,,,html-keyboard-response,22,278150,0.0-22.0,g7w9ueww,,Nothing,['Agent B'],,,,,
23,Nothing,,,video-keyboard-response,23,281258,0.0-23.0,g7w9ueww,,Nothing,,Agent B,veridical,STIM_SET_2/285959.bmp_pp93_L1_V1.0_veridical_freeview_isoTrue.mp4,,
24,,,,call-function,24,281258,0.0-24.0,g7w9ueww,,,,,,,,
25,3260.024999999970,"{""judgement"":0}",[0],survey-likert,25,284519,0.0-25.0,g7w9ueww,,,,,,,1.0,0
26,2058.5800000000200,"{""confidence"":1}",[0],survey-likert,26,286579,0.0-26.0,g7w9ueww,,,,,,,,
27,,,,call-function,27,286579,0.0-27.0,g7w9ueww,,,,,,,,
28,Nothing,,,html-keyboard-response,28,288081,0.0-28.0,g7w9ueww,,Nothing,['Agent A'],,,,,
29,Nothing,,,video-keyboard-response,29,291159,0.0-29.0,g7w9ueww,,Nothing,,Agent A,scrambled,STIM_SET_2/1592568.bmp_pp71_L1_V1.0_scrambled_freeview_isoTrue.mp4,,
30,Nothing,,,html-keyboard-response,30,292666,0.0-30.0,g7w9ueww,,Nothing,['Agent B'],,,,,
31,Nothing,,,video-keyboard-response,31,295731,0.0-31.0,g7w9ueww,,Nothing,,Agent B,veridical,STIM_SET_2/1592568.bmp_pp71_L1_V1.0_veridical_freeview_isoTrue.mp4,,
32,,,,call-function,32,295732,0.0-32.0,g7w9ueww,,,,,,,,
33,3907.1350000000100,"{""judgement"":0}",[0],survey-likert,33,299640,0.0-33.0,g7w9ueww,,,,,,,1.0,0
34,3531.945000000010,"{""confidence"":2}",[0],survey-likert,34,303173,0.0-34.0,g7w9ueww,,,,,,,,
35,,,,call-function,35,303173,0.0-35.0,g7w9ueww,,,,,,,,
36,Nothing,,,html-keyboard-response,36,304674,0.0-36.0,g7w9ueww,,Nothing,['Agent A'],,,,,
37,Nothing,,,video-keyboard-response,37,307775,0.0-37.0,g7w9ueww,,Nothing,,Agent A,veridical,STIM_SET_2/107955.bmp_pp90_L2_V1.0_veridical_freeview_isoTrue.mp4,,
38,Nothing,,,html-keyboard-response,38,309277,0.0-38.0,g7w9ueww,,Nothing,['Agent B'],,,,,
39,Nothing,,,video-keyboard-response,39,312334,0.0-39.0,g7w9ueww,,Nothing,,Agent B,scrambled,STIM_SET_2/107955.bmp_pp90_L2_V1.0_scrambled_freeview_isoTrue.mp4,,
40,,,,call-function,40,312334,0.0-40.0,g7w9ueww,,,,,,,,
41,3086.570000000010,"{""judgement"":1}",[0],survey-likert,41,315422,0.0-41.0,g7w9ueww,,,,,,,0.0,0
42,2237.015000000010,"{""confidence"":1}",[0],survey-likert,42,317660,0.0-42.0,g7w9ueww,,,,,,,,
43,,,,call-function,43,317660,0.0-43.0,g7w9ueww,,,,,,,,
44,Nothing,,,html-keyboard-response,44,319163,0.0-44.0,g7w9ueww,,Nothing,['Agent A'],,,,,
45,Nothing,,,video-keyboard-response,45,322229,0.0-45.0,g7w9ueww,,Nothing,,Agent A,veridical,STIM_SET_2/1592314.bmp_pp100_L3_V1.0_veridical_freeview_isoTrue.mp4,,
46,Nothing,,,html-keyboard-response,46,323735,0.0-46.0,g7w9ueww,,Nothing,['Agent B'],,,,,
47,Nothing,,,video-keyboard-response,47,326801,0.0-47.0,g7w9ueww,,Nothing,,Agent B,scrambled,STIM_SET_2/1592314.bmp_pp100_L3_V1.0_scrambled_freeview_isoTrue.mp4,,
48,,,,call-function,48,326802,0.0-48.0,g7w9ueww,,,,,,,,
49,5123.575000000010,"{""judgement"":0}",[0],survey-likert,49,331927,0.0-49.0,g7w9ueww,,,,,,,0.0,1
50,1280.1149999999900,"{""confidence"":0}",[0],survey-likert,50,333209,0.0-50.0,g7w9ueww,,,,,,,,
51,,,,call-function,51,333210,0.0-51.0,g7w9ueww,,,,,,,,
52,Nothing,,,html-keyboard-response,52,334714,0.0-52.0,g7w9ueww,,Nothing,['Agent A'],,,,,
53,Nothing,,,video-keyboard-response,53,337792,0.0-53.0,g7w9ueww,,Nothing,,Agent A,scrambled,STIM_SET_2/1159592.bmp_pp91_L3_V1.0_scrambled_freeview_isoTrue.mp4,,
54,Nothing,,,html-keyboard-response,54,339297,0.0-54.0,g7w9ueww,,Nothing,['Agent B'],,,,,
55,Nothing,,,video-keyboard-response,55,342376,0.0-55.0,g7w9ueww,,Nothing,,Agent B,veridical,STIM_SET_2/1159592.bmp_pp91_L3_V1.0_veridical_freeview_isoTrue.mp4,,
56,,,,call-function,56,342376,0.0-56.0,g7w9ueww,,,,,,,,
57,3944.875,"{""judgement"":1}",[0],survey-likert,57,346322,0.0-57.0,g7w9ueww,,,,,,,1.0,1
58,2454.045000000040,"{""confidence"":1}",[0],survey-likert,58,348777,0.0-58.0,g7w9ueww,,,,,,,,
59,,,,call-function,59,348777,0.0-59.0,g7w9ueww,,,,,,,,
60,Nothing,,,html-keyboard-response,60,350282,0.0-60.0,g7w9ueww,,Nothing,['Agent A'],,,,,
61,Nothing,,,video-keyboard-response,61,353358,0.0-61.0,g7w9ueww,,Nothing,,Agent A,veridical,STIM_SET_2/1591781.bmp_pp63_L1_V1.0_veridical_freeview_isoTrue.mp4,,
62,Nothing,,,html-keyboard-response,62,354865,0.0-62.0,g7w9ueww,,Nothing,['Agent B'],,,,,
63,Nothing,,,video-keyboard-response,63,357946,0.0-63.0,g7w9ueww,,Nothing,,Agent B,scrambled,STIM_SET_2/1591781.bmp_pp63_L1_V1.0_scrambled_freeview_isoTrue.mp4,,
64,,,,call-function,64,357947,0.0-64.0,g7w9ueww,,,,,,,,
65,3008.2849999999700,"{""judgement"":1}",[0],survey-likert,65,360956,0.0-65.0,g7w9ueww,,,,,,,0.0,0
66,1887.7050000000200,"{""confidence"":1}",[0],survey-likert,66,362844,0.0-66.0,g7w9ueww,,,,,,,,
67,,,,call-function,67,362845,0.0-67.0,g7w9ueww,,,,,,,,
68,Nothing,,,html-keyboard-response,68,364348,0.0-68.0,g7w9ueww,,Nothing,['Agent A'],,,,,
69,Nothing,,,video-keyboard-response,69,367455,0.0-69.0,g7w9ueww,,Nothing,,Agent A,veridical,STIM_SET_2/713790.bmp_pp100_L3_V1_veridical_freeview_isoTrue.mp4,,
70,Nothing,,,html-keyboard-response,70,368957,0.0-70.0,g7w9ueww,,Nothing,['Agent B'],,,,,
71,Nothing,,,video-keyboard-response,71,372067,0.0-71.0,g7w9ueww,,Nothing,,Agent B,scrambled,STIM_SET_2/713790.bmp_pp100_L3_V1_scrambled_freeview_isoTrue.mp4,,
72,,,,call-function,72,372067,0.0-72.0,g7w9ueww,,,,,,,,
73,8003.429999999990,"{""judgement"":0}",[0],survey-likert,73,380072,0.0-73.0,g7w9ueww,,,,,,,0.0,1
74,1277.5699999999500,"{""confidence"":1}",[0],survey-likert,74,381350,0.0-74.0,g7w9ueww,,,,,,,,
75,,,,call-function,75,381350,0.0-75.0,g7w9ueww,,,,,,,,
76,Nothing,,,html-keyboard-response,76,382856,0.0-76.0,g7w9ueww,,Nothing,['Agent A'],,,,,
77,Nothing,,,video-keyboard-response,77,385953,0.0-77.0,g7w9ueww,,Nothing,,Agent A,scrambled,STIM_SET_2/1592038.bmp_pp79_L2_V1.0_scrambled_freeview_isoTrue.mp4,,
78,Nothing,,,html-keyboard-response,78,387458,0.0-78.0,g7w9ueww,,Nothing,['Agent B'],,,,,
79,Nothing,,,video-keyboard-response,79,390554,0.0-79.0,g7w9ueww,,Nothing,,Agent B,veridical,STIM_SET_2/1592038.bmp_pp79_L2_V1.0_veridical_freeview_isoTrue.mp4,,
80,,,,call-function,80,390554,0.0-80.0,g7w9ueww,,,,,,,,
81,4346.865000000050,"{""judgement"":1}",[0],survey-likert,81,394902,0.0-81.0,g7w9ueww,,,,,,,1.0,1
82,3555.3400000000300,"{""confidence"":2}",[0],survey-likert,82,398458,0.0-82.0,g7w9ueww,,,,,,,,
83,,,,call-function,83,398458,0.0-83.0,g7w9ueww,,,,,,,,
84,Nothing,,,html-keyboard-response,84,399960,0.0-84.0,g7w9ueww,,Nothing,['Agent A'],,,,,
85,Nothing,,,video-keyboard-response,85,403029,0.0-85.0,g7w9ueww,,Nothing,,Agent A,veridical,STIM_SET_2/1592857.bmp_pp52_L1_V1_veridical_freeview_isoTrue.mp4,,
86,Nothing,,,html-keyboard-response,86,404532,0.0-86.0,g7w9ueww,,Nothing,['Agent B'],,,,,
87,Nothing,,,video-keyboard-response,87,407603,0.0-87.0,g7w9ueww,,Nothing,,Agent B,scrambled,STIM_SET_2/1592857.bmp_pp52_L1_V1_scrambled_freeview_isoTrue.mp4,,
88,,,,call-function,88,407603,0.0-88.0,g7w9ueww,,,,,,,,
89,2937.2999999999900,"{""judgement"":1}",[0],survey-likert,89,410541,0.0-89.0,g7w9ueww,,,,,,,0.0,0
90,2807.8000000000500,"{""confidence"":2}",[0],survey-likert,90,413350,0.0-90.0,g7w9ueww,,,,,,,,
91,5101.465000000030,,,instructions,91,418452,0.0-91.0,g7w9ueww,"[{""page_index"":0,""viewing_time"":1612.070000000007},{""page_index"":1,""viewing_time"":1805.024999999965},{""page_index"":2,""viewing_time"":1684.0800000000163}]",,,,,,,
92,5187.399999999970,,,instructions,92,423640,0.0-92.0,g7w9ueww,"[{""page_index"":0,""viewing_time"":907.3499999999767},{""page_index"":1,""viewing_time"":3214.2750000000233},{""page_index"":2,""viewing_time"":1065.664999999979}]",,,,,,,
93,,,,call-function,93,423640,0.0-93.0,g7w9ueww,,,,,,,,
94,Nothing,,,html-keyboard-response,94,425146,0.0-94.0,g7w9ueww,,Nothing,['Agent A'],,,,,
95,Nothing,,,video-keyboard-response,95,428217,0.0-95.0,g7w9ueww,,Nothing,,Agent A,veridical,STIM_SET_2/150463.bmp_pp55_L3_V1.0_veridical_freeview_isoTrue.mp4,,
96,Nothing,,,html-keyboard-response,96,429722,0.0-96.0,g7w9ueww,,Nothing,['Agent B'],,,,,
97,Nothing,,,video-keyboard-response,97,432795,0.0-97.0,g7w9ueww,,Nothing,,Agent B,scrambled,STIM_SET_2/150463.bmp_pp55_L3_V1.0_scrambled_freeview_isoTrue.mp4,,
98,,,,call-function,98,432795,0.0-98.0,g7w9ueww,,,,,,,,
99,2740.5899999999700,"{""judgement"":0}",[0],survey-likert,99,435536,0.0-99.0,g7w9ueww,,,,,,,0.0,1
100,2358.8800000000000,"{""confidence"":1}",[0],survey-likert,100,437896,0.0-100.0,g7w9ueww,,,,,,,,
101,,,,call-function,101,437897,0.0-101.0,g7w9ueww,,,,,,,,
102,Nothing,,,html-keyboard-response,102,439403,0.0-102.0,g7w9ueww,,Nothing,['Agent A'],,,,,
103,Nothing,,,video-keyboard-response,103,442466,0.0-103.0,g7w9ueww,,Nothing,,Agent A,veridical,STIM_SET_2/498396.bmp_pp99_L2_V1.0_veridical_freeview_isoTrue.mp4,,
104,Nothing,,,html-keyboard-response,104,443970,0.0-104.0,g7w9ueww,,Nothing,['Agent B'],,,,,
105,Nothing,,,video-keyboard-response,105,447074,0.0-105.0,g7w9ueww,,Nothing,,Agent B,scrambled,STIM_SET_2/498396.bmp_pp99_L2_V1.0_scrambled_freeview_isoTrue.mp4,,
106,,,,call-function,106,447074,0.0-106.0,g7w9ueww,,,,,,,,
107,1861.7200000000300,"{""judgement"":1}",[0],survey-likert,107,448937,0.0-107.0,g7w9ueww,,,,,,,0.0,0
108,1464.25,"{""confidence"":1}",[0],survey-likert,108,450403,0.0-108.0,g7w9ueww,,,,,,,,
109,,,,call-function,109,450404,0.0-109.0,g7w9ueww,,,,,,,,
110,Nothing,,,html-keyboard-response,110,451908,0.0-110.0,g7w9ueww,,Nothing,['Agent A'],,,,,
111,Nothing,,,video-keyboard-response,111,454984,0.0-111.0,g7w9ueww,,Nothing,,Agent A,scrambled,STIM_SET_2/285946.bmp_pp79_L2_V1.0_scrambled_freeview_isoTrue.mp4,,
112,Nothing,,,html-keyboard-response,112,456491,0.0-112.0,g7w9ueww,,Nothing,['Agent B'],,,,,
113,Nothing,,,video-keyboard-response,113,459565,0.0-113.0,g7w9ueww,,Nothing,,Agent B,veridical,STIM_SET_2/285946.bmp_pp79_L2_V1.0_veridical_freeview_isoTrue.mp4,,
114,,,,call-function,114,459565,0.0-114.0,g7w9ueww,,,,,,,,
115,2360.4800000000400,"{""judgement"":1}",[0],survey-likert,115,461927,0.0-115.0,g7w9ueww,,,,,,,1.0,1
116,2298.289999999980,"{""confidence"":1}",[0],survey-likert,116,464226,0.0-116.0,g7w9ueww,,,,,,,,
117,,,,call-function,117,464227,0.0-117.0,g7w9ueww,,,,,,,,
118,Nothing,,,html-keyboard-response,118,465728,0.0-118.0,g7w9ueww,,Nothing,['Agent A'],,,,,
119,Nothing,,,video-keyboard-response,119,468802,0.0-119.0,g7w9ueww,,Nothing,,Agent A,scrambled,STIM_SET_2/498258.bmp_pp51_L1_V1.0_scrambled_freeview_isoTrue.mp4,,
120,Nothing,,,html-keyboard-response,120,470304,0.0-120.0,g7w9ueww,,Nothing,['Agent B'],,,,,
121,Nothing,,,video-keyboard-response,121,473375,0.0-121.0,g7w9ueww,,Nothing,,Agent B,veridical,STIM_SET_2/498258.bmp_pp51_L1_V1.0_veridical_freeview_isoTrue.mp4,,
122,,,,call-function,122,473375,0.0-122.0,g7w9ueww,,,,,,,,
123,1973.5250000000200,"{""judgement"":1}",[0],survey-likert,123,475349,0.0-123.0,g7w9ueww,,,,,,,1.0,1
124,1843.1900000000000,"{""confidence"":1}",[0],survey-likert,124,477193,0.0-124.0,g7w9ueww,,,,,,,,
125,,,,call-function,125,477194,0.0-125.0,g7w9ueww,,,,,,,,
126,Nothing,,,html-keyboard-response,126,478698,0.0-126.0,g7w9ueww,,Nothing,['Agent A'],,,,,
127,Nothing,,,video-keyboard-response,127,481800,0.0-127.0,g7w9ueww,,Nothing,,Agent A,veridical,STIM_SET_2/713920.bmp_pp76_L1_V1.0_veridical_freeview_isoTrue.mp4,,
128,Nothing,,,html-keyboard-response,128,483308,0.0-128.0,g7w9ueww,,Nothing,['Agent B'],,,,,
129,Nothing,,,video-keyboard-response,129,486411,0.0-129.0,g7w9ueww,,Nothing,,Agent B,scrambled,STIM_SET_2/713920.bmp_pp76_L1_V1.0_scrambled_freeview_isoTrue.mp4,,
130,,,,call-function,130,486411,0.0-130.0,g7w9ueww,,,,,,,,
131,3045.3100000000000,"{""judgement"":0}",[0],survey-likert,131,489457,0.0-131.0,g7w9ueww,,,,,,,0.0,1
132,2010.9700000000300,"{""confidence"":1}",[0],survey-likert,132,491470,0.0-132.0,g7w9ueww,,,,,,,,
133,,,,call-function,133,491470,0.0-133.0,g7w9ueww,,,,,,,,
134,Nothing,,,html-keyboard-response,134,492976,0.0-134.0,g7w9ueww,,Nothing,['Agent A'],,,,,
135,Nothing,,,video-keyboard-response,135,496080,0.0-135.0,g7w9ueww,,Nothing,,Agent A,veridical,STIM_SET_2/713858.bmp_pp57_L1_V1.0_veridical_freeview_isoTrue.mp4,,
136,Nothing,,,html-keyboard-response,136,497586,0.0-136.0,g7w9ueww,,Nothing,['Agent B'],,,,,
137,Nothing,,,video-keyboard-response,137,500688,0.0-137.0,g7w9ueww,,Nothing,,Agent B,scrambled,STIM_SET_2/713858.bmp_pp57_L1_V1.0_scrambled_freeview_isoTrue.mp4,,
138,,,,call-function,138,500689,0.0-138.0,g7w9ueww,,,,,,,,
139,1777.405000000030,"{""judgement"":0}",[0],survey-likert,139,502467,0.0-139.0,g7w9ueww,,,,,,,0.0,1
140,3592.1149999999900,"{""confidence"":1}",[0],survey-likert,140,506060,0.0-140.0,g7w9ueww,,,,,,,,
141,,,,call-function,141,506060,0.0-141.0,g7w9ueww,,,,,,,,
142,Nothing,,,html-keyboard-response,142,507566,0.0-142.0,g7w9ueww,,Nothing,['Agent A'],,,,,
143,Nothing,,,video-keyboard-response,143,510662,0.0-143.0,g7w9ueww,,Nothing,,Agent A,veridical,STIM_SET_2/1159973.bmp_pp98_L1_V1.0_veridical_freeview_isoTrue.mp4,,
144,Nothing,,,html-keyboard-response,144,512164,0.0-144.0,g7w9ueww,,Nothing,['Agent B'],,,,,
145,Nothing,,,video-keyboard-response,145,515263,0.0-145.0,g7w9ueww,,Nothing,,Agent B,scrambled,STIM_SET_2/1159973.bmp_pp98_L1_V1.0_scrambled_freeview_isoTrue.mp4,,
146,,,,call-function,146,515263,0.0-146.0,g7w9ueww,,,,,,,,
147,2809.8800000000000,"{""judgement"":0}",[0],survey-likert,147,518074,0.0-147.0,g7w9ueww,,,,,,,0.0,1
148,1593.655000000030,"{""confidence"":1}",[0],survey-likert,148,519669,0.0-148.0,g7w9ueww,,,,,,,,
149,,,,call-function,149,519669,0.0-149.0,g7w9ueww,,,,,,,,
150,Nothing,,,html-keyboard-response,150,521172,0.0-150.0,g7w9ueww,,Nothing,['Agent A'],,,,,
151,Nothing,,,video-keyboard-response,151,524244,0.0-151.0,g7w9ueww,,Nothing,,Agent A,scrambled,STIM_SET_2/1159860.bmp_pp152_L2_V1.0_scrambled_freeview_isoTrue.mp4,,
152,Nothing,,,html-keyboard-response,152,525749,0.0-152.0,g7w9ueww,,Nothing,['Agent B'],,,,,
153,Nothing,,,video-keyboard-response,153,528820,0.0-153.0,g7w9ueww,,Nothing,,Agent B,veridical,STIM_SET_2/1159860.bmp_pp152_L2_V1.0_veridical_freeview_isoTrue.mp4,,
154,,,,call-function,154,528820,0.0-154.0,g7w9ueww,,,,,,,,
155,2184.8349999999600,"{""judgement"":1}",[0],survey-likert,155,531006,0.0-155.0,g7w9ueww,,,,,,,1.0,1
156,1517.9349999999400,"{""confidence"":1}",[0],survey-likert,156,532525,0.0-156.0,g7w9ueww,,,,,,,,
157,,,,call-function,157,532525,0.0-157.0,g7w9ueww,,,,,,,,
158,Nothing,,,html-keyboard-response,158,534027,0.0-158.0,g7w9ueww,,Nothing,['Agent A'],,,,,
159,Nothing,,,video-keyboard-response,159,537099,0.0-159.0,g7w9ueww,,Nothing,,Agent A,scrambled,STIM_SET_2/1160189.bmp_pp64_L1_V1.0_scrambled_freeview_isoTrue.mp4,,
160,Nothing,,,html-keyboard-response,160,538603,0.0-160.0,g7w9ueww,,Nothing,['Agent B'],,,,,
161,Nothing,,,video-keyboard-response,161,541674,0.0-161.0,g7w9ueww,,Nothing,,Agent B,veridical,STIM_SET_2/1160189.bmp_pp64_L1_V1.0_veridical_freeview_isoTrue.mp4,,
162,,,,call-function,162,541674,0.0-162.0,g7w9ueww,,,,,,,,
163,21632.995000000000,"{""judgement"":0}",[0],survey-likert,163,563308,0.0-163.0,g7w9ueww,,,,,,,1.0,0
164,1792.045000000040,"{""confidence"":0}",[0],survey-likert,164,565101,0.0-164.0,g7w9ueww,,,,,,,,
165,,,,call-function,165,565101,0.0-165.0,g7w9ueww,,,,,,,,
166,Nothing,,,html-keyboard-response,166,566604,0.0-166.0,g7w9ueww,,Nothing,['Agent A'],,,,,
167,Nothing,,,video-keyboard-response,167,569705,0.0-167.0,g7w9ueww,,Nothing,,Agent A,veridical,STIM_SET_2/713633.bmp_pp58_L1_V1.0_veridical_freeview_isoTrue.mp4,,
168,Nothing,,,html-keyboard-response,168,571208,0.0-168.0,g7w9ueww,,Nothing,['Agent B'],,,,,
169,Nothing,,,video-keyboard-response,169,574311,0.0-169.0,g7w9ueww,,Nothing,,Agent B,scrambled,STIM_SET_2/713633.bmp_pp58_L1_V1.0_scrambled_freeview_isoTrue.mp4,,
170,,,,call-function,170,574311,0.0-170.0,g7w9ueww,,,,,,,,
171,1760.390000000010,"{""judgement"":0}",[0],survey-likert,171,576073,0.0-171.0,g7w9ueww,,,,,,,0.0,1
172,2913.0250000000200,"{""confidence"":2}",[0],survey-likert,172,578987,0.0-172.0,g7w9ueww,,,,,,,,
173,25319.11500000000,,,instructions,173,604307,0.0-173.0,g7w9ueww,"[{""page_index"":0,""viewing_time"":22279.97000000009},{""page_index"":1,""viewing_time"":1280},{""page_index"":2,""viewing_time"":1758.9399999999441}]",,,,,,,
174,4061.780000000030,,,instructions,174,608369,0.0-174.0,g7w9ueww,"[{""page_index"":0,""viewing_time"":790.8800000000047},{""page_index"":1,""viewing_time"":2447.8850000000093},{""page_index"":2,""viewing_time"":822.9100000000326}]",,,,,,,
175,,,,call-function,175,608370,0.0-175.0,g7w9ueww,,,,,,,,
176,Nothing,,,html-keyboard-response,176,609877,0.0-176.0,g7w9ueww,,Nothing,['Agent A'],,,,,
177,Nothing,,,video-keyboard-response,177,612944,0.0-177.0,g7w9ueww,,Nothing,,Agent A,scrambled,STIM_SET_2/1592047.bmp_pp51_L1_V1.0_scrambled_freeview_isoTrue.mp4,,
178,Nothing,,,html-keyboard-response,178,614449,0.0-178.0,g7w9ueww,,Nothing,['Agent B'],,,,,
179,Nothing,,,video-keyboard-response,179,617517,0.0-179.0,g7w9ueww,,Nothing,,Agent B,veridical,STIM_SET_2/1592047.bmp_pp51_L1_V1.0_veridical_freeview_isoTrue.mp4,,
180,,,,call-function,180,617517,0.0-180.0,g7w9ueww,,,,,,,,
181,3154.405000000030,"{""judgement"":0}",[0],survey-likert,181,620673,0.0-181.0,g7w9ueww,,,,,,,1.0,0
182,2155.045000000040,"{""confidence"":2}",[0],survey-likert,182,622829,0.0-182.0,g7w9ueww,,,,,,,,
183,,,,call-function,183,622829,0.0-183.0,g7w9ueww,,,,,,,,
184,Nothing,,,html-keyboard-response,184,624333,0.0-184.0,g7w9ueww,,Nothing,['Agent A'],,,,,
185,Nothing,,,video-keyboard-response,185,627406,0.0-185.0,g7w9ueww,,Nothing,,Agent A,scrambled,STIM_SET_2/1159819.bmp_pp151_L1_V1.0_scrambled_freeview_isoTrue.mp4,,
186,Nothing,,,html-keyboard-response,186,628912,0.0-186.0,g7w9ueww,,Nothing,['Agent B'],,,,,
187,Nothing,,,video-keyboard-response,187,631987,0.0-187.0,g7w9ueww,,Nothing,,Agent B,veridical,STIM_SET_2/1159819.bmp_pp151_L1_V1.0_veridical_freeview_isoTrue.mp4,,
188,,,,call-function,188,631987,0.0-188.0,g7w9ueww,,,,,,,,
189,2033.390000000010,"{""judgement"":1}",[0],survey-likert,189,634022,0.0-189.0,g7w9ueww,,,,,,,1.0,1
190,2955.2600000000100,"{""confidence"":1}",[0],survey-likert,190,636978,0.0-190.0,g7w9ueww,,,,,,,,
191,,,,call-function,191,636978,0.0-191.0,g7w9ueww,,,,,,,,
192,Nothing,,,html-keyboard-response,192,638483,0.0-192.0,g7w9ueww,,Nothing,['Agent A'],,,,,
193,Nothing,,,video-keyboard-response,193,641582,0.0-193.0,g7w9ueww,,Nothing,,Agent A,scrambled,STIM_SET_2/1160247.bmp_pp54_L2_V1.0_scrambled_freeview_isoTrue.mp4,,
194,Nothing,,,html-keyboard-response,194,643087,0.0-194.0,g7w9ueww,,Nothing,['Agent B'],,,,,
195,Nothing,,,video-keyboard-response,195,646190,0.0-195.0,g7w9ueww,,Nothing,,Agent B,veridical,STIM_SET_2/1160247.bmp_pp54_L2_V1.0_veridical_freeview_isoTrue.mp4,,
196,,,,call-function,196,646190,0.0-196.0,g7w9ueww,,,,,,,,
197,11525.130000000000,"{""judgement"":1}",[0],survey-likert,197,657716,0.0-197.0,g7w9ueww,,,,,,,1.0,1
198,2656.344999999970,"{""confidence"":1}",[0],survey-likert,198,660374,0.0-198.0,g7w9ueww,,,,,,,,
199,,,,call-function,199,660374,0.0-199.0,g7w9ueww,,,,,,,,
200,Nothing,,,html-keyboard-response,200,661877,0.0-200.0,g7w9ueww,,Nothing,['Agent A'],,,,,
201,Nothing,,,video-keyboard-response,201,664978,0.0-201.0,g7w9ueww,,Nothing,,Agent A,veridical,STIM_SET_2/498372.bmp_pp95_L2_V1_veridical_freeview_isoTrue.mp4,,
202,Nothing,,,html-keyboard-response,202,666481,0.0-202.0,g7w9ueww,,Nothing,['Agent B'],,,,,
203,Nothing,,,video-keyboard-response,203,669586,0.0-203.0,g7w9ueww,,Nothing,,Agent B,scrambled,STIM_SET_2/498372.bmp_pp95_L2_V1_scrambled_freeview_isoTrue.mp4,,
204,,,,call-function,204,669586,0.0-204.0,g7w9ueww,,,,,,,,
205,2390.8549999999800,"{""judgement"":0}",[0],survey-likert,205,671978,0.0-205.0,g7w9ueww,,,,,,,0.0,1
206,2364.094999999970,"{""confidence"":2}",[0],survey-likert,206,674343,0.0-206.0,g7w9ueww,,,,,,,,
207,,,,call-function,207,674343,0.0-207.0,g7w9ueww,,,,,,,,
208,Nothing,,,html-keyboard-response,208,675848,0.0-208.0,g7w9ueww,,Nothing,['Agent A'],,,,,
209,Nothing,,,video-keyboard-response,209,678915,0.0-209.0,g7w9ueww,,Nothing,,Agent A,scrambled,STIM_SET_2/1159427.bmp_pp98_L1_V1.0_scrambled_freeview_isoTrue.mp4,,
210,Nothing,,,html-keyboard-response,210,680418,0.0-210.0,g7w9ueww,,Nothing,['Agent B'],,,,,
211,Nothing,,,video-keyboard-response,211,683487,0.0-211.0,g7w9ueww,,Nothing,,Agent B,veridical,STIM_SET_2/1159427.bmp_pp98_L1_V1.0_veridical_freeview_isoTrue.mp4,,
212,,,,call-function,212,683487,0.0-212.0,g7w9ueww,,,,,,,,
213,12760.410000000000,"{""judgement"":1}",[0],survey-likert,213,696249,0.0-213.0,g7w9ueww,,,,,,,1.0,1
214,6062.070000000070,"{""confidence"":2}",[0],survey-likert,214,702312,0.0-214.0,g7w9ueww,,,,,,,,
215,,,,call-function,215,702312,0.0-215.0,g7w9ueww,,,,,,,,
216,Nothing,,,html-keyboard-response,216,703818,0.0-216.0,g7w9ueww,,Nothing,['Agent A'],,,,,
217,Nothing,,,video-keyboard-response,217,706881,0.0-217.0,g7w9ueww,,Nothing,,Agent A,veridical,STIM_SET_2/498398.bmp_pp81_L1_V1.0_veridical_freeview_isoTrue.mp4,,
218,Nothing,,,html-keyboard-response,218,708387,0.0-218.0,g7w9ueww,,Nothing,['Agent B'],,,,,
219,Nothing,,,video-keyboard-response,219,711449,0.0-219.0,g7w9ueww,,Nothing,,Agent B,scrambled,STIM_SET_2/498398.bmp_pp81_L1_V1.0_scrambled_freeview_isoTrue.mp4,,
220,,,,call-function,220,711449,0.0-220.0,g7w9ueww,,,,,,,,
221,3786.530000000030,"{""judgement"":0}",[0],survey-likert,221,715236,0.0-221.0,g7w9ueww,,,,,,,0.0,1
222,8994.204999999960,"{""confidence"":2}",[0],survey-likert,222,724232,0.0-222.0,g7w9ueww,,,,,,,,
223,,,,call-function,223,724232,0.0-223.0,g7w9ueww,,,,,,,,
224,Nothing,,,html-keyboard-response,224,725735,0.0-224.0,g7w9ueww,,Nothing,['Agent A'],,,,,
225,Nothing,,,video-keyboard-response,225,728834,0.0-225.0,g7w9ueww,,Nothing,,Agent A,scrambled,STIM_SET_2/1592305.bmp_pp65_L3_V1.0_scrambled_freeview_isoTrue.mp4,,
226,Nothing,,,html-keyboard-response,226,730339,0.0-226.0,g7w9ueww,,Nothing,['Agent B'],,,,,
227,Nothing,,,video-keyboard-response,227,733439,0.0-227.0,g7w9ueww,,Nothing,,Agent B,veridical,STIM_SET_2/1592305.bmp_pp65_L3_V1.0_veridical_freeview_isoTrue.mp4,,
228,,,,call-function,228,733440,0.0-228.0,g7w9ueww,,,,,,,,
229,6305.540000000040,"{""judgement"":1}",[0],survey-likert,229,739746,0.0-229.0,g7w9ueww,,,,,,,1.0,1
230,2137.7600000000100,"{""confidence"":0}",[0],survey-likert,230,741885,0.0-230.0,g7w9ueww,,,,,,,,
231,,,,call-function,231,741885,0.0-231.0,g7w9ueww,,,,,,,,
232,Nothing,,,html-keyboard-response,232,743389,0.0-232.0,g7w9ueww,,Nothing,['Agent A'],,,,,
233,Nothing,,,video-keyboard-response,233,746467,0.0-233.0,g7w9ueww,,Nothing,,Agent A,scrambled,STIM_SET_2/713381.bmp_pp82_L2_V1.0_scrambled_freeview_isoTrue.mp4,,
234,Nothing,,,html-keyboard-response,234,747970,0.0-234.0,g7w9ueww,,Nothing,['Agent B'],,,,,
235,Nothing,,,video-keyboard-response,235,751049,0.0-235.0,g7w9ueww,,Nothing,,Agent B,veridical,STIM_SET_2/713381.bmp_pp82_L2_V1.0_veridical_freeview_isoTrue.mp4,,
236,,,,call-function,236,751050,0.0-236.0,g7w9ueww,,,,,,,,
237,17943.405000000000,"{""judgement"":1}",[0],survey-likert,237,768994,0.0-237.0,g7w9ueww,,,,,,,1.0,1
238,4589.824999999950,"{""confidence"":1}",[0],survey-likert,238,773585,0.0-238.0,g7w9ueww,,,,,,,,
239,,,,call-function,239,773585,0.0-239.0,g7w9ueww,,,,,,,,
240,Nothing,,,html-keyboard-response,240,775089,0.0-240.0,g7w9ueww,,Nothing,['Agent A'],,,,,
241,Nothing,,,video-keyboard-response,241,778161,0.0-241.0,g7w9ueww,,Nothing,,Agent A,veridical,STIM_SET_2/1592530.bmp_pp75_L1_V1.0_veridical_freeview_isoTrue.mp4,,
242,Nothing,,,html-keyboard-response,242,779663,0.0-242.0,g7w9ueww,,Nothing,['Agent B'],,,,,
243,Nothing,,,video-keyboard-response,243,782740,0.0-243.0,g7w9ueww,,Nothing,,Agent B,scrambled,STIM_SET_2/1592530.bmp_pp75_L1_V1.0_scrambled_freeview_isoTrue.mp4,,
244,,,,call-function,244,782741,0.0-244.0,g7w9ueww,,,,,,,,
245,2036.9700000000900,"{""judgement"":1}",[0],survey-likert,245,784780,0.0-245.0,g7w9ueww,,,,,,,0.0,0
246,1877.8549999999800,"{""confidence"":1}",[0],survey-likert,246,786659,0.0-246.0,g7w9ueww,,,,,,,,
247,,,,call-function,247,786659,0.0-247.0,g7w9ueww,,,,,,,,
248,Nothing,,,html-keyboard-response,248,788162,0.0-248.0,g7w9ueww,,Nothing,['Agent A'],,,,,
249,Nothing,,,video-keyboard-response,249,791226,0.0-249.0,g7w9ueww,,Nothing,,Agent A,scrambled,STIM_SET_2/1159392.bmp_pp96_L2_V1.0_scrambled_freeview_isoTrue.mp4,,
250,Nothing,,,html-keyboard-response,250,792727,0.0-250.0,g7w9ueww,,Nothing,['Agent B'],,,,,
251,Nothing,,,video-keyboard-response,251,795795,0.0-251.0,g7w9ueww,,Nothing,,Agent B,veridical,STIM_SET_2/1159392.bmp_pp96_L2_V1.0_veridical_freeview_isoTrue.mp4,,
252,,,,call-function,252,795796,0.0-252.0,g7w9ueww,,,,,,,,
253,2061.20000000007,"{""judgement"":0}",[0],survey-likert,253,797858,0.0-253.0,g7w9ueww,,,,,,,1.0,0
254,2705.9899999999900,"{""confidence"":2}",[0],survey-likert,254,800565,0.0-254.0,g7w9ueww,,,,,,,,
255,35478.880000000000,,,instructions,255,836045,0.0-255.0,g7w9ueww,"[{""page_index"":0,""viewing_time"":2126.8249999999534},{""page_index"":1,""viewing_time"":32289.339999999967},{""page_index"":2,""viewing_time"":1062.5600000000559}]",,,,,,,
256,2767.5999999999800,,,instructions,256,838813,0.0-256.0,g7w9ueww,"[{""page_index"":0,""viewing_time"":621.515000000014},{""page_index"":1,""viewing_time"":1402.0499999999302},{""page_index"":2,""viewing_time"":743.9250000000466}]",,,,,,,
257,,,,call-function,257,838813,0.0-257.0,g7w9ueww,,,,,,,,
258,Nothing,,,html-keyboard-response,258,840315,0.0-258.0,g7w9ueww,,Nothing,['Agent A'],,,,,
259,Nothing,,,video-keyboard-response,259,843390,0.0-259.0,g7w9ueww,,Nothing,,Agent A,veridical,STIM_SET_2/713274.bmp_pp73_L3_V1.0_veridical_freeview_isoTrue.mp4,,
260,Nothing,,,html-keyboard-response,260,844897,0.0-260.0,g7w9ueww,,Nothing,['Agent B'],,,,,
261,Nothing,,,video-keyboard-response,261,847971,0.0-261.0,g7w9ueww,,Nothing,,Agent B,scrambled,STIM_SET_2/713274.bmp_pp73_L3_V1.0_scrambled_freeview_isoTrue.mp4,,
262,,,,call-function,262,847972,0.0-262.0,g7w9ueww,,,,,,,,
263,6159.415000000040,"{""judgement"":1}",[0],survey-likert,263,854132,0.0-263.0,g7w9ueww,,,,,,,0.0,0
264,1854.875,"{""confidence"":2}",[0],survey-likert,264,855988,0.0-264.0,g7w9ueww,,,,,,,,
265,,,,call-function,265,855988,0.0-265.0,g7w9ueww,,,,,,,,
266,Nothing,,,html-keyboard-response,266,857492,0.0-266.0,g7w9ueww,,Nothing,['Agent A'],,,,,
267,Nothing,,,video-keyboard-response,267,860570,0.0-267.0,g7w9ueww,,Nothing,,Agent A,scrambled,STIM_SET_2/1592168.bmp_pp71_L1_V1.0_scrambled_freeview_isoTrue.mp4,,
268,Nothing,,,html-keyboard-response,268,862075,0.0-268.0,g7w9ueww,,Nothing,['Agent B'],,,,,
269,Nothing,,,video-keyboard-response,269,865155,0.0-269.0,g7w9ueww,,Nothing,,Agent B,veridical,STIM_SET_2/1592168.bmp_pp71_L1_V1.0_veridical_freeview_isoTrue.mp4,,
270,,,,call-function,270,865155,0.0-270.0,g7w9ueww,,,,,,,,
271,2054.2350000001000,"{""judgement"":0}",[0],survey-likert,271,867210,0.0-271.0,g7w9ueww,,,,,,,1.0,0
272,1534.0200000000200,"{""confidence"":2}",[0],survey-likert,272,868746,0.0-272.0,g7w9ueww,,,,,,,,
273,,,,call-function,273,868746,0.0-273.0,g7w9ueww,,,,,,,,
274,Nothing,,,html-keyboard-response,274,870248,0.0-274.0,g7w9ueww,,Nothing,['Agent A'],,,,,
275,Nothing,,,video-keyboard-response,275,873345,0.0-275.0,g7w9ueww,,Nothing,,Agent A,veridical,STIM_SET_2/1592201.bmp_pp97_L3_V1.0_veridical_freeview_isoTrue.mp4,,
276,Nothing,,,html-keyboard-response,276,874847,0.0-276.0,g7w9ueww,,Nothing,['Agent B'],,,,,
277,Nothing,,,video-keyboard-response,277,877947,0.0-277.0,g7w9ueww,,Nothing,,Agent B,scrambled,STIM_SET_2/1592201.bmp_pp97_L3_V1.0_scrambled_freeview_isoTrue.mp4,,
278,,,,call-function,278,877947,0.0-278.0,g7w9ueww,,,,,,,,
279,4624.899999999910,"{""judgement"":0}",[0],survey-likert,279,882573,0.0-279.0,g7w9ueww,,,,,,,0.0,1
280,3213.204999999960,"{""confidence"":1}",[0],survey-likert,280,885787,0.0-280.0,g7w9ueww,,,,,,,,
281,,,,call-function,281,885788,0.0-281.0,g7w9ueww,,,,,,,,
282,Nothing,,,html-keyboard-response,282,887295,0.0-282.0,g7w9ueww,,Nothing,['Agent A'],,,,,
283,Nothing,,,video-keyboard-response,283,890376,0.0-283.0,g7w9ueww,,Nothing,,Agent A,scrambled,STIM_SET_2/285715.bmp_pp67_L2_V1.0_scrambled_freeview_isoTrue.mp4,,
284,Nothing,,,html-keyboard-response,284,891879,0.0-284.0,g7w9ueww,,Nothing,['Agent B'],,,,,
285,Nothing,,,video-keyboard-response,285,894960,0.0-285.0,g7w9ueww,,Nothing,,Agent B,veridical,STIM_SET_2/285715.bmp_pp67_L2_V1.0_veridical_freeview_isoTrue.mp4,,
286,,,,call-function,286,894961,0.0-286.0,g7w9ueww,,,,,,,,
287,3521.7550000000000,"{""judgement"":0}",[0],survey-likert,287,898483,0.0-287.0,g7w9ueww,,,,,,,1.0,0
288,2140.25,"{""confidence"":0}",[0],survey-likert,288,900625,0.0-288.0,g7w9ueww,,,,,,,,
289,,,,call-function,289,900625,0.0-289.0,g7w9ueww,,,,,,,,
290,Nothing,,,html-keyboard-response,290,902129,0.0-290.0,g7w9ueww,,Nothing,['Agent A'],,,,,
291,Nothing,,,video-keyboard-response,291,905226,0.0-291.0,g7w9ueww,,Nothing,,Agent A,veridical,STIM_SET_2/1591920.bmp_pp97_L3_V1_veridical_freeview_isoTrue.mp4,,
292,Nothing,,,html-keyboard-response,292,906733,0.0-292.0,g7w9ueww,,Nothing,['Agent B'],,,,,
293,Nothing,,,video-keyboard-response,293,909801,0.0-293.0,g7w9ueww,,Nothing,,Agent B,scrambled,STIM_SET_2/1591920.bmp_pp97_L3_V1_scrambled_freeview_isoTrue.mp4,,
294,,,,call-function,294,909802,0.0-294.0,g7w9ueww,,,,,,,,
295,2127.320000000070,"{""judgement"":0}",[0],survey-likert,295,911930,0.0-295.0,g7w9ueww,,,,,,,0.0,1
296,2197.170000000040,"{""confidence"":2}",[0],survey-likert,296,914128,0.0-296.0,g7w9ueww,,,,,,,,
297,,,,call-function,297,914129,0.0-297.0,g7w9ueww,,,,,,,,
298,Nothing,,,html-keyboard-response,298,915633,0.0-298.0,g7w9ueww,,Nothing,['Agent A'],,,,,
299,Nothing,,,video-keyboard-response,299,918712,0.0-299.0,g7w9ueww,,Nothing,,Agent A,veridical,STIM_SET_2/498025.bmp_pp81_L1_V1.0_veridical_freeview_isoTrue.mp4,,
300,Nothing,,,html-keyboard-response,300,920218,0.0-300.0,g7w9ueww,,Nothing,['Agent B'],,,,,
301,Nothing,,,video-keyboard-response,301,923310,0.0-301.0,g7w9ueww,,Nothing,,Agent B,scrambled,STIM_SET_2/498025.bmp_pp81_L1_V1.0_scrambled_freeview_isoTrue.mp4,,
302,,,,call-function,302,923311,0.0-302.0,g7w9ueww,,,,,,,,
303,5406.760000000010,"{""judgement"":0}",[0],survey-likert,303,928718,0.0-303.0,g7w9ueww,,,,,,,0.0,1
304,5076.020000000020,"{""confidence"":1}",[0],survey-likert,304,933795,0.0-304.0,g7w9ueww,,,,,,,,
305,,,,call-function,305,933796,0.0-305.0,g7w9ueww,,,,,,,,
306,Nothing,,,html-keyboard-response,306,935301,0.0-306.0,g7w9ueww,,Nothing,['Agent A'],,,,,
307,Nothing,,,video-keyboard-response,307,938373,0.0-307.0,g7w9ueww,,Nothing,,Agent A,veridical,STIM_SET_2/1160204.bmp_pp54_L2_V1.0_veridical_freeview_isoTrue.mp4,,
308,Nothing,,,html-keyboard-response,308,939877,0.0-308.0,g7w9ueww,,Nothing,['Agent B'],,,,,
309,Nothing,,,video-keyboard-response,309,942950,0.0-309.0,g7w9ueww,,Nothing,,Agent B,scrambled,STIM_SET_2/1160204.bmp_pp54_L2_V1.0_scrambled_freeview_isoTrue.mp4,,
310,,,,call-function,310,942951,0.0-310.0,g7w9ueww,,,,,,,,
311,7379.965000000080,"{""judgement"":1}",[0],survey-likert,311,950332,0.0-311.0,g7w9ueww,,,,,,,0.0,0
312,2660.8649999999900,"{""confidence"":0}",[0],survey-likert,312,952995,0.0-312.0,g7w9ueww,,,,,,,,
313,,,,call-function,313,952996,0.0-313.0,g7w9ueww,,,,,,,,
314,Nothing,,,html-keyboard-response,314,954499,0.0-314.0,g7w9ueww,,Nothing,['Agent A'],,,,,
315,Nothing,,,video-keyboard-response,315,957567,0.0-315.0,g7w9ueww,,Nothing,,Agent A,scrambled,STIM_SET_2/713328.bmp_pp86_L2_V1.0_scrambled_freeview_isoTrue.mp4,,
316,Nothing,,,html-keyboard-response,316,959069,0.0-316.0,g7w9ueww,,Nothing,['Agent B'],,,,,
317,Nothing,,,video-keyboard-response,317,962140,0.0-317.0,g7w9ueww,,Nothing,,Agent B,veridical,STIM_SET_2/713328.bmp_pp86_L2_V1.0_veridical_freeview_isoTrue.mp4,,
318,,,,call-function,318,962140,0.0-318.0,g7w9ueww,,,,,,,,
319,1765.4100000000300,"{""judgement"":1}",[0],survey-likert,319,963907,0.0-319.0,g7w9ueww,,,,,,,1.0,1
320,1408.0200000000200,"{""confidence"":2}",[0],survey-likert,320,965316,0.0-320.0,g7w9ueww,,,,,,,,
321,,,,call-function,321,965316,0.0-321.0,g7w9ueww,,,,,,,,
322,Nothing,,,html-keyboard-response,322,966820,0.0-322.0,g7w9ueww,,Nothing,['Agent A'],,,,,
323,Nothing,,,video-keyboard-response,323,969889,0.0-323.0,g7w9ueww,,Nothing,,Agent A,scrambled,STIM_SET_2/1592017.bmp_pp154_L1_V1.0_scrambled_freeview_isoTrue.mp4,,
324,Nothing,,,html-keyboard-response,324,971395,0.0-324.0,g7w9ueww,,Nothing,['Agent B'],,,,,
325,Nothing,,,video-keyboard-response,325,974465,0.0-325.0,g7w9ueww,,Nothing,,Agent B,veridical,STIM_SET_2/1592017.bmp_pp154_L1_V1.0_veridical_freeview_isoTrue.mp4,,
326,,,,call-function,326,974465,0.0-326.0,g7w9ueww,,,,,,,,
327,1436.6300000000000,"{""judgement"":1}",[0],survey-likert,327,975903,0.0-327.0,g7w9ueww,,,,,,,1.0,1
328,1733.969999999970,"{""confidence"":2}",[0],survey-likert,328,977638,0.0-328.0,g7w9ueww,,,,,,,,
329,,,,call-function,329,977638,0.0-329.0,g7w9ueww,,,,,,,,
330,Nothing,,,html-keyboard-response,330,979145,0.0-330.0,g7w9ueww,,Nothing,['Agent A'],,,,,
331,Nothing,,,video-keyboard-response,331,982242,0.0-331.0,g7w9ueww,,Nothing,,Agent A,scrambled,STIM_SET_2/713829.bmp_pp60_L3_V1.0_scrambled_freeview_isoTrue.mp4,,
332,Nothing,,,html-keyboard-response,332,983748,0.0-332.0,g7w9ueww,,Nothing,['Agent B'],,,,,
333,Nothing,,,video-keyboard-response,333,986846,0.0-333.0,g7w9ueww,,Nothing,,Agent B,veridical,STIM_SET_2/713829.bmp_pp60_L3_V1.0_veridical_freeview_isoTrue.mp4,,
334,,,,call-function,334,986846,0.0-334.0,g7w9ueww,,,,,,,,
335,2439.9550000000700,"{""judgement"":1}",[0],survey-likert,335,989287,0.0-335.0,g7w9ueww,,,,,,,1.0,1
336,2387.2700000000200,"{""confidence"":2}",[0],survey-likert,336,991675,0.0-336.0,g7w9ueww,,,,,,,,
337,6009.224999999980,,,instructions,337,997685,0.0-337.0,g7w9ueww,"[{""page_index"":0,""viewing_time"":4866.199999999953},{""page_index"":1,""viewing_time"":669.7950000000419},{""page_index"":2,""viewing_time"":473.0649999999441}]",,,,,,,
338,1670.6899999999400,,,instructions,338,999356,0.0-338.0,g7w9ueww,"[{""page_index"":0,""viewing_time"":400.66500000003725},{""page_index"":1,""viewing_time"":696.7849999999162},{""page_index"":2,""viewing_time"":573.0400000000373}]",,,,,,,
339,,,,call-function,339,999357,0.0-339.0,g7w9ueww,,,,,,,,
340,Nothing,,,html-keyboard-response,340,1000860,0.0-340.0,g7w9ueww,,Nothing,['Agent A'],,,,,
341,Nothing,,,video-keyboard-response,341,1003961,0.0-341.0,g7w9ueww,,Nothing,,Agent A,veridical,STIM_SET_2/1592298.bmp_pp56_L3_V1.0_veridical_freeview_isoTrue.mp4,,
342,Nothing,,,html-keyboard-response,342,1005464,0.0-342.0,g7w9ueww,,Nothing,['Agent B'],,,,,
343,Nothing,,,video-keyboard-response,343,1008525,0.0-343.0,g7w9ueww,,Nothing,,Agent B,scrambled,STIM_SET_2/1592298.bmp_pp56_L3_V1.0_scrambled_freeview_isoTrue.mp4,,
344,,,,call-function,344,1008525,0.0-344.0,g7w9ueww,,,,,,,,
345,2952.515000000010,"{""judgement"":0}",[0],survey-likert,345,1011479,0.0-345.0,g7w9ueww,,,,,,,0.0,1
346,1739.5649999999400,"{""confidence"":0}",[0],survey-likert,346,1013219,0.0-346.0,g7w9ueww,,,,,,,,
347,,,,call-function,347,1013220,0.0-347.0,g7w9ueww,,,,,,,,
348,Nothing,,,html-keyboard-response,348,1014726,0.0-348.0,g7w9ueww,,Nothing,['Agent A'],,,,,
349,Nothing,,,video-keyboard-response,349,1017796,0.0-349.0,g7w9ueww,,Nothing,,Agent A,veridical,STIM_SET_2/1159325.bmp_pp67_L2_V1.0_veridical_freeview_isoTrue.mp4,,
350,Nothing,,,html-keyboard-response,350,1019299,0.0-350.0,g7w9ueww,,Nothing,['Agent B'],,,,,
351,Nothing,,,video-keyboard-response,351,1022358,0.0-351.0,g7w9ueww,,Nothing,,Agent B,scrambled,STIM_SET_2/1159325.bmp_pp67_L2_V1.0_scrambled_freeview_isoTrue.mp4,,
352,,,,call-function,352,1022358,0.0-352.0,g7w9ueww,,,,,,,,
353,2000.3649999999900,"{""judgement"":0}",[0],survey-likert,353,1024359,0.0-353.0,g7w9ueww,,,,,,,0.0,1
354,2031.109999999990,"{""confidence"":2}",[0],survey-likert,354,1026391,0.0-354.0,g7w9ueww,,,,,,,,
355,,,,call-function,355,1026392,0.0-355.0,g7w9ueww,,,,,,,,
356,Nothing,,,html-keyboard-response,356,1027899,0.0-356.0,g7w9ueww,,Nothing,['Agent A'],,,,,
357,Nothing,,,video-keyboard-response,357,1030976,0.0-357.0,g7w9ueww,,Nothing,,Agent A,veridical,STIM_SET_2/1159508.bmp_pp151_L1_V1.0_veridical_freeview_isoTrue.mp4,,
358,Nothing,,,html-keyboard-response,358,1032482,0.0-358.0,g7w9ueww,,Nothing,['Agent B'],,,,,
359,Nothing,,,video-keyboard-response,359,1035556,0.0-359.0,g7w9ueww,,Nothing,,Agent B,scrambled,STIM_SET_2/1159508.bmp_pp151_L1_V1.0_scrambled_freeview_isoTrue.mp4,,
360,,,,call-function,360,1035557,0.0-360.0,g7w9ueww,,,,,,,,
361,1529.0400000000400,"{""judgement"":0}",[0],survey-likert,361,1037087,0.0-361.0,g7w9ueww,,,,,,,0.0,1
362,1628.2150000000800,"{""confidence"":2}",[0],survey-likert,362,1038716,0.0-362.0,g7w9ueww,,,,,,,,
363,,,,call-function,363,1038716,0.0-363.0,g7w9ueww,,,,,,,,
364,Nothing,,,html-keyboard-response,364,1040219,0.0-364.0,g7w9ueww,,Nothing,['Agent A'],,,,,
365,Nothing,,,video-keyboard-response,365,1043287,0.0-365.0,g7w9ueww,,Nothing,,Agent A,veridical,STIM_SET_2/286034.bmp_pp69_L3_V1.0_veridical_freeview_isoTrue.mp4,,
366,Nothing,,,html-keyboard-response,366,1044790,0.0-366.0,g7w9ueww,,Nothing,['Agent B'],,,,,
367,Nothing,,,video-keyboard-response,367,1047885,0.0-367.0,g7w9ueww,,Nothing,,Agent B,scrambled,STIM_SET_2/286034.bmp_pp69_L3_V1.0_scrambled_freeview_isoTrue.mp4,,
368,,,,call-function,368,1047885,0.0-368.0,g7w9ueww,,,,,,,,
369,1726.0850000000800,"{""judgement"":1}",[0],survey-likert,369,1049612,0.0-369.0,g7w9ueww,,,,,,,0.0,0
370,1345.6700000001600,"{""confidence"":2}",[0],survey-likert,370,1050958,0.0-370.0,g7w9ueww,,,,,,,,
371,,,,call-function,371,1050959,0.0-371.0,g7w9ueww,,,,,,,,
372,Nothing,,,html-keyboard-response,372,1052461,0.0-372.0,g7w9ueww,,Nothing,['Agent A'],,,,,
373,Nothing,,,video-keyboard-response,373,1055561,0.0-373.0,g7w9ueww,,Nothing,,Agent A,scrambled,STIM_SET_2/1160049.bmp_pp53_L2_V1.0_scrambled_freeview_isoTrue.mp4,,
374,Nothing,,,html-keyboard-response,374,1057065,0.0-374.0,g7w9ueww,,Nothing,['Agent B'],,,,,
375,Nothing,,,video-keyboard-response,375,1060160,0.0-375.0,g7w9ueww,,Nothing,,Agent B,veridical,STIM_SET_2/1160049.bmp_pp53_L2_V1.0_veridical_freeview_isoTrue.mp4,,
376,,,,call-function,376,1060161,0.0-376.0,g7w9ueww,,,,,,,,
377,10595.845000000000,"{""judgement"":0}",[0],survey-likert,377,1070757,0.0-377.0,g7w9ueww,,,,,,,1.0,0
378,2143.3599999998700,"{""confidence"":1}",[0],survey-likert,378,1072902,0.0-378.0,g7w9ueww,,,,,,,,
379,,,,call-function,379,1072902,0.0-379.0,g7w9ueww,,,,,,,,
380,Nothing,,,html-keyboard-response,380,1074404,0.0-380.0,g7w9ueww,,Nothing,['Agent A'],,,,,
381,Nothing,,,video-keyboard-response,381,1077507,0.0-381.0,g7w9ueww,,Nothing,,Agent A,scrambled,STIM_SET_2/498261.bmp_pp84_L3_V1.0_scrambled_freeview_isoTrue.mp4,,
382,Nothing,,,html-keyboard-response,382,1079013,0.0-382.0,g7w9ueww,,Nothing,['Agent B'],,,,,
383,Nothing,,,video-keyboard-response,383,1082079,0.0-383.0,g7w9ueww,,Nothing,,Agent B,veridical,STIM_SET_2/498261.bmp_pp84_L3_V1.0_veridical_freeview_isoTrue.mp4,,
384,,,,call-function,384,1082080,0.0-384.0,g7w9ueww,,,,,,,,
385,6254.310000000060,"{""judgement"":1}",[0],survey-likert,385,1088336,0.0-385.0,g7w9ueww,,,,,,,1.0,1
386,1370.7250000000900,"{""confidence"":2}",[0],survey-likert,386,1089708,0.0-386.0,g7w9ueww,,,,,,,,
387,,,,call-function,387,1089710,0.0-387.0,g7w9ueww,,,,,,,,
388,Nothing,,,html-keyboard-response,388,1091216,0.0-388.0,g7w9ueww,,Nothing,['Agent A'],,,,,
389,Nothing,,,video-keyboard-response,389,1094286,0.0-389.0,g7w9ueww,,Nothing,,Agent A,veridical,STIM_SET_2/713652.bmp_pp89_L1_V1_veridical_freeview_isoTrue.mp4,,
390,Nothing,,,html-keyboard-response,390,1095790,0.0-390.0,g7w9ueww,,Nothing,['Agent B'],,,,,
391,Nothing,,,video-keyboard-response,391,1098860,0.0-391.0,g7w9ueww,,Nothing,,Agent B,scrambled,STIM_SET_2/713652.bmp_pp89_L1_V1_scrambled_freeview_isoTrue.mp4,,
392,,,,call-function,392,1098861,0.0-392.0,g7w9ueww,,,,,,,,
393,2801.255000000120,"{""judgement"":1}",[0],survey-likert,393,1101663,0.0-393.0,g7w9ueww,,,,,,,0.0,0
394,1686.6100000001000,"{""confidence"":2}",[0],survey-likert,394,1103351,0.0-394.0,g7w9ueww,,,,,,,,
395,,,,call-function,395,1103351,0.0-395.0,g7w9ueww,,,,,,,,
396,Nothing,,,html-keyboard-response,396,1104853,0.0-396.0,g7w9ueww,,Nothing,['Agent A'],,,,,
397,Nothing,,,video-keyboard-response,397,1107934,0.0-397.0,g7w9ueww,,Nothing,,Agent A,scrambled,STIM_SET_2/107909.bmp_pp95_L2_V1.0_scrambled_freeview_isoTrue.mp4,,
398,Nothing,,,html-keyboard-response,398,1109437,0.0-398.0,g7w9ueww,,Nothing,['Agent B'],,,,,
399,Nothing,,,video-keyboard-response,399,1112517,0.0-399.0,g7w9ueww,,Nothing,,Agent B,veridical,STIM_SET_2/107909.bmp_pp95_L2_V1.0_veridical_freeview_isoTrue.mp4,,
400,,,,call-function,400,1112518,0.0-400.0,g7w9ueww,,,,,,,,
401,2095.435000000060,"{""judgement"":1}",[0],survey-likert,401,1114614,0.0-401.0,g7w9ueww,,,,,,,1.0,1
402,1322.7299999999800,"{""confidence"":2}",[0],survey-likert,402,1115938,0.0-402.0,g7w9ueww,,,,,,,,
403,,,,call-function,403,1115938,0.0-403.0,g7w9ueww,,,,,,,,
404,Nothing,,,html-keyboard-response,404,1117440,0.0-404.0,g7w9ueww,,Nothing,['Agent A'],,,,,
405,Nothing,,,video-keyboard-response,405,1120540,0.0-405.0,g7w9ueww,,Nothing,,Agent A,veridical,STIM_SET_2/1592150.bmp_pp77_L3_V1.0_veridical_freeview_isoTrue.mp4,,
406,Nothing,,,html-keyboard-response,406,1122042,0.0-406.0,g7w9ueww,,Nothing,['Agent B'],,,,,
407,Nothing,,,video-keyboard-response,407,1125141,0.0-407.0,g7w9ueww,,Nothing,,Agent B,scrambled,STIM_SET_2/1592150.bmp_pp77_L3_V1.0_scrambled_freeview_isoTrue.mp4,,
408,,,,call-function,408,1125142,0.0-408.0,g7w9ueww,,,,,,,,
409,2010.380000000120,"{""judgement"":0}",[0],survey-likert,409,1127153,0.0-409.0,g7w9ueww,,,,,,,0.0,1
410,1570.030000000030,"{""confidence"":2}",[0],survey-likert,410,1128724,0.0-410.0,g7w9ueww,,,,,,,,
411,,,,call-function,411,1128724,0.0-411.0,g7w9ueww,,,,,,,,
412,Nothing,,,html-keyboard-response,412,1130227,0.0-412.0,g7w9ueww,,Nothing,['Agent A'],,,,,
413,Nothing,,,video-keyboard-response,413,1133323,0.0-413.0,g7w9ueww,,Nothing,,Agent A,scrambled,STIM_SET_2/285684.bmp_pp80_L3_V1.0_scrambled_freeview_isoTrue.mp4,,
414,Nothing,,,html-keyboard-response,414,1134825,0.0-414.0,g7w9ueww,,Nothing,['Agent B'],,,,,
415,Nothing,,,video-keyboard-response,415,1137919,0.0-415.0,g7w9ueww,,Nothing,,Agent B,veridical,STIM_SET_2/285684.bmp_pp80_L3_V1.0_veridical_freeview_isoTrue.mp4,,
416,,,,call-function,416,1137919,0.0-416.0,g7w9ueww,,,,,,,,
417,1574.9249999998100,"{""judgement"":1}",[0],survey-likert,417,1139496,0.0-417.0,g7w9ueww,,,,,,,1.0,1
418,1089.5199999997900,"{""confidence"":2}",[0],survey-likert,418,1140586,0.0-418.0,g7w9ueww,,,,,,,,
419,4022.910000000150,,,instructions,419,1144610,0.0-419.0,g7w9ueww,"[{""page_index"":0,""viewing_time"":2266.195000000065},{""page_index"":1,""viewing_time"":788.4399999999441},{""page_index"":2,""viewing_time"":968.1200000001118}]",,,,,,,
420,2626.405000000030,,,instructions,420,1147236,0.0-420.0,g7w9ueww,"[{""page_index"":0,""viewing_time"":717.375},{""page_index"":1,""viewing_time"":1257.035000000149},{""page_index"":2,""viewing_time"":651.8850000000093}]",,,,,,,
421,,,,call-function,421,1147237,0.0-421.0,g7w9ueww,,,,,,,,
422,Nothing,,,html-keyboard-response,422,1148739,0.0-422.0,g7w9ueww,,Nothing,['Agent A'],,,,,
423,Nothing,,,video-keyboard-response,423,1151839,0.0-423.0,g7w9ueww,,Nothing,,Agent A,scrambled,STIM_SET_2/150277.bmp_pp65_L3_V1.0_scrambled_freeview_isoTrue.mp4,,
424,Nothing,,,html-keyboard-response,424,1153345,0.0-424.0,g7w9ueww,,Nothing,['Agent B'],,,,,
425,Nothing,,,video-keyboard-response,425,1156450,0.0-425.0,g7w9ueww,,Nothing,,Agent B,veridical,STIM_SET_2/150277.bmp_pp65_L3_V1.0_veridical_freeview_isoTrue.mp4,,
426,,,,call-function,426,1156451,0.0-426.0,g7w9ueww,,,,,,,,
427,2004.2350000001000,"{""judgement"":1}",[0],survey-likert,427,1158456,0.0-427.0,g7w9ueww,,,,,,,1.0,1
428,1696.5600000000600,"{""confidence"":0}",[0],survey-likert,428,1160154,0.0-428.0,g7w9ueww,,,,,,,,
429,,,,call-function,429,1160154,0.0-429.0,g7w9ueww,,,,,,,,
430,Nothing,,,html-keyboard-response,430,1161656,0.0-430.0,g7w9ueww,,Nothing,['Agent A'],,,,,
431,Nothing,,,video-keyboard-response,431,1164732,0.0-431.0,g7w9ueww,,Nothing,,Agent A,scrambled,STIM_SET_2/1592921.bmp_pp69_L3_V1.0_scrambled_freeview_isoTrue.mp4,,
432,Nothing,,,html-keyboard-response,432,1166233,0.0-432.0,g7w9ueww,,Nothing,['Agent B'],,,,,
433,Nothing,,,video-keyboard-response,433,1169308,0.0-433.0,g7w9ueww,,Nothing,,Agent B,veridical,STIM_SET_2/1592921.bmp_pp69_L3_V1.0_veridical_freeview_isoTrue.mp4,,
434,,,,call-function,434,1169308,0.0-434.0,g7w9ueww,,,,,,,,
435,4477.739999999990,"{""judgement"":1}",[0],survey-likert,435,1173787,0.0-435.0,g7w9ueww,,,,,,,1.0,1
436,1450.8100000000600,"{""confidence"":0}",[0],survey-likert,436,1175239,0.0-436.0,g7w9ueww,,,,,,,,
437,,,,call-function,437,1175239,0.0-437.0,g7w9ueww,,,,,,,,
438,Nothing,,,html-keyboard-response,438,1176743,0.0-438.0,g7w9ueww,,Nothing,['Agent A'],,,,,
439,Nothing,,,video-keyboard-response,439,1179816,0.0-439.0,g7w9ueww,,Nothing,,Agent A,veridical,STIM_SET_2/1592289.bmp_pp92_L3_V1.0_veridical_freeview_isoTrue.mp4,,
440,Nothing,,,html-keyboard-response,440,1181321,0.0-440.0,g7w9ueww,,Nothing,['Agent B'],,,,,
441,Nothing,,,video-keyboard-response,441,1184398,0.0-441.0,g7w9ueww,,Nothing,,Agent B,scrambled,STIM_SET_2/1592289.bmp_pp92_L3_V1.0_scrambled_freeview_isoTrue.mp4,,
442,,,,call-function,442,1184398,0.0-442.0,g7w9ueww,,,,,,,,
443,2460.380000000120,"{""judgement"":1}",[0],survey-likert,443,1186859,0.0-443.0,g7w9ueww,,,,,,,0.0,0
444,2039.630000000120,"{""confidence"":1}",[0],survey-likert,444,1188900,0.0-444.0,g7w9ueww,,,,,,,,
445,,,,call-function,445,1188900,0.0-445.0,g7w9ueww,,,,,,,,
446,Nothing,,,html-keyboard-response,446,1190405,0.0-446.0,g7w9ueww,,Nothing,['Agent A'],,,,,
447,Nothing,,,video-keyboard-response,447,1193516,0.0-447.0,g7w9ueww,,Nothing,,Agent A,veridical,STIM_SET_2/713742.bmp_pp91_L3_V1.0_veridical_freeview_isoTrue.mp4,,
448,Nothing,,,html-keyboard-response,448,1195022,0.0-448.0,g7w9ueww,,Nothing,['Agent B'],,,,,
449,Nothing,,,video-keyboard-response,449,1198134,0.0-449.0,g7w9ueww,,Nothing,,Agent B,scrambled,STIM_SET_2/713742.bmp_pp91_L3_V1.0_scrambled_freeview_isoTrue.mp4,,
450,,,,call-function,450,1198134,0.0-450.0,g7w9ueww,,,,,,,,
451,1830.6799999999300,"{""judgement"":0}",[0],survey-likert,451,1199966,0.0-451.0,g7w9ueww,,,,,,,0.0,1
452,1516.2700000000200,"{""confidence"":2}",[0],survey-likert,452,1201483,0.0-452.0,g7w9ueww,,,,,,,,
453,,,,call-function,453,1201484,0.0-453.0,g7w9ueww,,,,,,,,
454,Nothing,,,html-keyboard-response,454,1202988,0.0-454.0,g7w9ueww,,Nothing,['Agent A'],,,,,
455,Nothing,,,video-keyboard-response,455,1206086,0.0-455.0,g7w9ueww,,Nothing,,Agent A,scrambled,STIM_SET_2/1592044.bmp_pp94_L2_V1.0_scrambled_freeview_isoTrue.mp4,,
456,Nothing,,,html-keyboard-response,456,1207589,0.0-456.0,g7w9ueww,,Nothing,['Agent B'],,,,,
457,Nothing,,,video-keyboard-response,457,1210687,0.0-457.0,g7w9ueww,,Nothing,,Agent B,veridical,STIM_SET_2/1592044.bmp_pp94_L2_V1.0_veridical_freeview_isoTrue.mp4,,
458,,,,call-function,458,1210688,0.0-458.0,g7w9ueww,,,,,,,,
459,2969.4199999999300,"{""judgement"":1}",[0],survey-likert,459,1213658,0.0-459.0,g7w9ueww,,,,,,,1.0,1
460,1420.994999999880,"{""confidence"":1}",[0],survey-likert,460,1215080,0.0-460.0,g7w9ueww,,,,,,,,
461,,,,call-function,461,1215080,0.0-461.0,g7w9ueww,,,,,,,,
462,Nothing,,,html-keyboard-response,462,1216583,0.0-462.0,g7w9ueww,,Nothing,['Agent A'],,,,,
463,Nothing,,,video-keyboard-response,463,1219686,0.0-463.0,g7w9ueww,,Nothing,,Agent A,scrambled,STIM_SET_2/713689.bmp_pp153_L3_V1.0_scrambled_freeview_isoTrue.mp4,,
464,Nothing,,,html-keyboard-response,464,1221189,0.0-464.0,g7w9ueww,,Nothing,['Agent B'],,,,,
465,Nothing,,,video-keyboard-response,465,1224290,0.0-465.0,g7w9ueww,,Nothing,,Agent B,veridical,STIM_SET_2/713689.bmp_pp153_L3_V1.0_veridical_freeview_isoTrue.mp4,,
466,,,,call-function,466,1224291,0.0-466.0,g7w9ueww,,,,,,,,
467,2337.7299999999800,"{""judgement"":1}",[0],survey-likert,467,1226629,0.0-467.0,g7w9ueww,,,,,,,1.0,1
468,1427.0049999998900,"{""confidence"":1}",[0],survey-likert,468,1228057,0.0-468.0,g7w9ueww,,,,,,,,
469,,,,call-function,469,1228058,0.0-469.0,g7w9ueww,,,,,,,,
470,Nothing,,,html-keyboard-response,470,1229563,0.0-470.0,g7w9ueww,,Nothing,['Agent A'],,,,,
471,Nothing,,,video-keyboard-response,471,1232633,0.0-471.0,g7w9ueww,,Nothing,,Agent A,veridical,STIM_SET_2/713788.bmp_pp52_L1_V1.0_veridical_freeview_isoTrue.mp4,,
472,Nothing,,,html-keyboard-response,472,1234139,0.0-472.0,g7w9ueww,,Nothing,['Agent B'],,,,,
473,Nothing,,,video-keyboard-response,473,1237213,0.0-473.0,g7w9ueww,,Nothing,,Agent B,scrambled,STIM_SET_2/713788.bmp_pp52_L1_V1.0_scrambled_freeview_isoTrue.mp4,,
474,,,,call-function,474,1237214,0.0-474.0,g7w9ueww,,,,,,,,
475,5282.370000000110,"{""judgement"":1}",[0],survey-likert,475,1242499,0.0-475.0,g7w9ueww,,,,,,,0.0,0
476,2353.809999999820,"{""confidence"":1}",[0],survey-likert,476,1244854,0.0-476.0,g7w9ueww,,,,,,,,
477,,,,call-function,477,1244855,0.0-477.0,g7w9ueww,,,,,,,,
478,Nothing,,,html-keyboard-response,478,1246358,0.0-478.0,g7w9ueww,,Nothing,['Agent A'],,,,,
479,Nothing,,,video-keyboard-response,479,1249432,0.0-479.0,g7w9ueww,,Nothing,,Agent A,veridical,STIM_SET_2/1592350.bmp_pp55_L3_V1.0_veridical_freeview_isoTrue.mp4,,
480,Nothing,,,html-keyboard-response,480,1250937,0.0-480.0,g7w9ueww,,Nothing,['Agent B'],,,,,
481,Nothing,,,video-keyboard-response,481,1254015,0.0-481.0,g7w9ueww,,Nothing,,Agent B,scrambled,STIM_SET_2/1592350.bmp_pp55_L3_V1.0_scrambled_freeview_isoTrue.mp4,,
482,,,,call-function,482,1254015,0.0-482.0,g7w9ueww,,,,,,,,
483,3107.089999999850,"{""judgement"":1}",[0],survey-likert,483,1257123,0.0-483.0,g7w9ueww,,,,,,,0.0,0
484,2276.975000000090,"{""confidence"":1}",[0],survey-likert,484,1259401,0.0-484.0,g7w9ueww,,,,,,,,
485,,,,call-function,485,1259402,0.0-485.0,g7w9ueww,,,,,,,,
486,Nothing,,,html-keyboard-response,486,1260907,0.0-486.0,g7w9ueww,,Nothing,['Agent A'],,,,,
487,Nothing,,,video-keyboard-response,487,1263982,0.0-487.0,g7w9ueww,,Nothing,,Agent A,veridical,STIM_SET_2/1592025.bmp_pp68_L1_V1.0_veridical_freeview_isoTrue.mp4,,
488,Nothing,,,html-keyboard-response,488,1265485,0.0-488.0,g7w9ueww,,Nothing,['Agent B'],,,,,
489,Nothing,,,video-keyboard-response,489,1268559,0.0-489.0,g7w9ueww,,Nothing,,Agent B,scrambled,STIM_SET_2/1592025.bmp_pp68_L1_V1.0_scrambled_freeview_isoTrue.mp4,,
490,,,,call-function,490,1268559,0.0-490.0,g7w9ueww,,,,,,,,
491,1719.2450000001100,"{""judgement"":0}",[0],survey-likert,491,1270279,0.0-491.0,g7w9ueww,,,,,,,0.0,1
492,1758.6499999999100,"{""confidence"":2}",[0],survey-likert,492,1272039,0.0-492.0,g7w9ueww,,,,,,,,
493,,,,call-function,493,1272040,0.0-493.0,g7w9ueww,,,,,,,,
494,Nothing,,,html-keyboard-response,494,1273544,0.0-494.0,g7w9ueww,,Nothing,['Agent A'],,,,,
495,Nothing,,,video-keyboard-response,495,1276643,0.0-495.0,g7w9ueww,,Nothing,,Agent A,scrambled,STIM_SET_2/1159956.bmp_pp59_L3_V1.0_scrambled_freeview_isoTrue.mp4,,
496,Nothing,,,html-keyboard-response,496,1278150,0.0-496.0,g7w9ueww,,Nothing,['Agent B'],,,,,
497,Nothing,,,video-keyboard-response,497,1281245,0.0-497.0,g7w9ueww,,Nothing,,Agent B,veridical,STIM_SET_2/1159956.bmp_pp59_L3_V1.0_veridical_freeview_isoTrue.mp4,,
498,,,,call-function,498,1281246,0.0-498.0,g7w9ueww,,,,,,,,
499,1819.3349999999600,"{""judgement"":1}",[0],survey-likert,499,1283066,0.0-499.0,g7w9ueww,,,,,,,1.0,1
500,1479.8300000000700,"{""confidence"":1}",[0],survey-likert,500,1284547,0.0-500.0,g7w9ueww,,,,,,,,
501,1966.0849999999600,,,instructions,501,1286513,0.0-501.0,g7w9ueww,"[{""page_index"":0,""viewing_time"":1262.7050000000745},{""page_index"":1,""viewing_time"":477.5799999998417},{""page_index"":2,""viewing_time"":225.63000000012107}]",,,,,,,
502,1834.1149999999900,,,instructions,502,1288348,0.0-502.0,g7w9ueww,"[{""page_index"":0,""viewing_time"":460.4899999999907},{""page_index"":1,""viewing_time"":747.5799999998417},{""page_index"":2,""viewing_time"":625.9350000000559}]",,,,,,,
503,,,,call-function,503,1288348,0.0-503.0,g7w9ueww,,,,,,,,
504,Nothing,,,html-keyboard-response,504,1289849,0.0-504.0,g7w9ueww,,Nothing,['Agent A'],,,,,
505,Nothing,,,video-keyboard-response,505,1292949,0.0-505.0,g7w9ueww,,Nothing,,Agent A,scrambled,STIM_SET_2/1592747.bmp_pp53_L2_V1.0_scrambled_freeview_isoTrue.mp4,,
506,Nothing,,,html-keyboard-response,506,1294456,0.0-506.0,g7w9ueww,,Nothing,['Agent B'],,,,,
507,Nothing,,,video-keyboard-response,507,1297558,0.0-507.0,g7w9ueww,,Nothing,,Agent B,veridical,STIM_SET_2/1592747.bmp_pp53_L2_V1.0_veridical_freeview_isoTrue.mp4,,
508,,,,call-function,508,1297558,0.0-508.0,g7w9ueww,,,,,,,,
509,1628.7700000000200,"{""judgement"":1}",[0],survey-likert,509,1299188,0.0-509.0,g7w9ueww,,,,,,,1.0,1
510,1989.505000000120,"{""confidence"":1}",[0],survey-likert,510,1301179,0.0-510.0,g7w9ueww,,,,,,,,
511,,,,call-function,511,1301179,0.0-511.0,g7w9ueww,,,,,,,,
512,Nothing,,,html-keyboard-response,512,1302681,0.0-512.0,g7w9ueww,,Nothing,['Agent A'],,,,,
513,Nothing,,,video-keyboard-response,513,1305744,0.0-513.0,g7w9ueww,,Nothing,,Agent A,veridical,STIM_SET_2/61513.bmp_pp75_L1_V1.0_veridical_freeview_isoTrue.mp4,,
514,Nothing,,,html-keyboard-response,514,1307249,0.0-514.0,g7w9ueww,,Nothing,['Agent B'],,,,,
515,Nothing,,,video-keyboard-response,515,1310344,0.0-515.0,g7w9ueww,,Nothing,,Agent B,scrambled,STIM_SET_2/61513.bmp_pp75_L1_V1.0_scrambled_freeview_isoTrue.mp4,,
516,,,,call-function,516,1310344,0.0-516.0,g7w9ueww,,,,,,,,
517,4868.560000000060,"{""judgement"":0}",[0],survey-likert,517,1315214,0.0-517.0,g7w9ueww,,,,,,,0.0,1
518,1922.5799999998400,"{""confidence"":1}",[0],survey-likert,518,1317138,0.0-518.0,g7w9ueww,,,,,,,,
519,,,,call-function,519,1317138,0.0-519.0,g7w9ueww,,,,,,,,
520,Nothing,,,html-keyboard-response,520,1318644,0.0-520.0,g7w9ueww,,Nothing,['Agent A'],,,,,
521,Nothing,,,video-keyboard-response,521,1321721,0.0-521.0,g7w9ueww,,Nothing,,Agent A,veridical,STIM_SET_2/713770.bmp_pp89_L1_V1.0_veridical_freeview_isoTrue.mp4,,
522,Nothing,,,html-keyboard-response,522,1323223,0.0-522.0,g7w9ueww,,Nothing,['Agent B'],,,,,
523,Nothing,,,video-keyboard-response,523,1326299,0.0-523.0,g7w9ueww,,Nothing,,Agent B,scrambled,STIM_SET_2/713770.bmp_pp89_L1_V1.0_scrambled_freeview_isoTrue.mp4,,
524,,,,call-function,524,1326299,0.0-524.0,g7w9ueww,,,,,,,,
525,1556.8649999999900,"{""judgement"":1}",[0],survey-likert,525,1327857,0.0-525.0,g7w9ueww,,,,,,,0.0,0
526,1339.9300000001700,"{""confidence"":1}",[0],survey-likert,526,1329198,0.0-526.0,g7w9ueww,,,,,,,,
527,,,,call-function,527,1329198,0.0-527.0,g7w9ueww,,,,,,,,
528,Nothing,,,html-keyboard-response,528,1330701,0.0-528.0,g7w9ueww,,Nothing,['Agent A'],,,,,
529,Nothing,,,video-keyboard-response,529,1333773,0.0-529.0,g7w9ueww,,Nothing,,Agent A,veridical,STIM_SET_2/1159329.bmp_pp61_L2_V1.0_veridical_freeview_isoTrue.mp4,,
530,Nothing,,,html-keyboard-response,530,1335277,0.0-530.0,g7w9ueww,,Nothing,['Agent B'],,,,,
531,Nothing,,,video-keyboard-response,531,1338349,0.0-531.0,g7w9ueww,,Nothing,,Agent B,scrambled,STIM_SET_2/1159329.bmp_pp61_L2_V1.0_scrambled_freeview_isoTrue.mp4,,
532,,,,call-function,532,1338350,0.0-532.0,g7w9ueww,,,,,,,,
533,1420.7399999999900,"{""judgement"":0}",[0],survey-likert,533,1339771,0.0-533.0,g7w9ueww,,,,,,,0.0,1
534,2110.804999999940,"{""confidence"":1}",[0],survey-likert,534,1341883,0.0-534.0,g7w9ueww,,,,,,,,
535,,,,call-function,535,1341884,0.0-535.0,g7w9ueww,,,,,,,,
536,Nothing,,,html-keyboard-response,536,1343390,0.0-536.0,g7w9ueww,,Nothing,['Agent A'],,,,,
537,Nothing,,,video-keyboard-response,537,1346487,0.0-537.0,g7w9ueww,,Nothing,,Agent A,scrambled,STIM_SET_2/1591975.bmp_pp88_L2_V1.0_scrambled_freeview_isoTrue.mp4,,
538,Nothing,,,html-keyboard-response,538,1347994,0.0-538.0,g7w9ueww,,Nothing,['Agent B'],,,,,
539,Nothing,,,video-keyboard-response,539,1351091,0.0-539.0,g7w9ueww,,Nothing,,Agent B,veridical,STIM_SET_2/1591975.bmp_pp88_L2_V1.0_veridical_freeview_isoTrue.mp4,,
540,,,,call-function,540,1351091,0.0-540.0,g7w9ueww,,,,,,,,
541,2363.429999999940,"{""judgement"":1}",[0],survey-likert,541,1353456,0.0-541.0,g7w9ueww,,,,,,,1.0,1
542,1119.6099999998700,"{""confidence"":1}",[0],survey-likert,542,1354577,0.0-542.0,g7w9ueww,,,,,,,,
543,,,,call-function,543,1354577,0.0-543.0,g7w9ueww,,,,,,,,
544,Nothing,,,html-keyboard-response,544,1356080,0.0-544.0,g7w9ueww,,Nothing,['Agent A'],,,,,
545,Nothing,,,video-keyboard-response,545,1359181,0.0-545.0,g7w9ueww,,Nothing,,Agent A,scrambled,STIM_SET_2/498326.bmp_pp57_L1_V1.0_scrambled_freeview_isoTrue.mp4,,
546,Nothing,,,html-keyboard-response,546,1360687,0.0-546.0,g7w9ueww,,Nothing,['Agent B'],,,,,
547,Nothing,,,video-keyboard-response,547,1363785,0.0-547.0,g7w9ueww,,Nothing,,Agent B,veridical,STIM_SET_2/498326.bmp_pp57_L1_V1.0_veridical_freeview_isoTrue.mp4,,
548,,,,call-function,548,1363785,0.0-548.0,g7w9ueww,,,,,,,,
549,2488.469999999970,"{""judgement"":1}",[0],survey-likert,549,1366275,0.0-549.0,g7w9ueww,,,,,,,1.0,1
550,1521.9150000000400,"{""confidence"":1}",[0],survey-likert,550,1367798,0.0-550.0,g7w9ueww,,,,,,,,
551,,,,call-function,551,1367798,0.0-551.0,g7w9ueww,,,,,,,,
552,Nothing,,,html-keyboard-response,552,1369300,0.0-552.0,g7w9ueww,,Nothing,['Agent A'],,,,,
553,Nothing,,,video-keyboard-response,553,1372389,0.0-553.0,g7w9ueww,,Nothing,,Agent A,scrambled,STIM_SET_2/1592951.bmp_pp80_L3_V1.0_scrambled_freeview_isoTrue.mp4,,
554,Nothing,,,html-keyboard-response,554,1373894,0.0-554.0,g7w9ueww,,Nothing,['Agent B'],,,,,
555,Nothing,,,video-keyboard-response,555,1376978,0.0-555.0,g7w9ueww,,Nothing,,Agent B,veridical,STIM_SET_2/1592951.bmp_pp80_L3_V1.0_veridical_freeview_isoTrue.mp4,,
556,,,,call-function,556,1376979,0.0-556.0,g7w9ueww,,,,,,,,
557,5709.72499999986,"{""judgement"":0}",[0],survey-likert,557,1382691,0.0-557.0,g7w9ueww,,,,,,,1.0,0
558,1377.7050000000700,"{""confidence"":0}",[0],survey-likert,558,1384071,0.0-558.0,g7w9ueww,,,,,,,,
559,,,,call-function,559,1384071,0.0-559.0,g7w9ueww,,,,,,,,
560,Nothing,,,html-keyboard-response,560,1385575,0.0-560.0,g7w9ueww,,Nothing,['Agent A'],,,,,
561,Nothing,,,video-keyboard-response,561,1388644,0.0-561.0,g7w9ueww,,Nothing,,Agent A,veridical,STIM_SET_2/1592129.bmp_pp153_L3_V1.0_veridical_freeview_isoTrue.mp4,,
562,Nothing,,,html-keyboard-response,562,1390149,0.0-562.0,g7w9ueww,,Nothing,['Agent B'],,,,,
563,Nothing,,,video-keyboard-response,563,1393218,0.0-563.0,g7w9ueww,,Nothing,,Agent B,scrambled,STIM_SET_2/1592129.bmp_pp153_L3_V1.0_scrambled_freeview_isoTrue.mp4,,
564,,,,call-function,564,1393219,0.0-564.0,g7w9ueww,,,,,,,,
565,2214.0250000001400,"{""judgement"":0}",[0],survey-likert,565,1395434,0.0-565.0,g7w9ueww,,,,,,,0.0,1
566,1136.2100000002000,"{""confidence"":1}",[0],survey-likert,566,1396571,0.0-566.0,g7w9ueww,,,,,,,,
567,,,,call-function,567,1396572,0.0-567.0,g7w9ueww,,,,,,,,
568,Nothing,,,html-keyboard-response,568,1398074,0.0-568.0,g7w9ueww,,Nothing,['Agent A'],,,,,
569,Nothing,,,video-keyboard-response,569,1401142,0.0-569.0,g7w9ueww,,Nothing,,Agent A,scrambled,STIM_SET_2/285932.bmp_pp64_L1_V1.0_scrambled_freeview_isoTrue.mp4,,
570,Nothing,,,html-keyboard-response,570,1402645,0.0-570.0,g7w9ueww,,Nothing,['Agent B'],,,,,
571,Nothing,,,video-keyboard-response,571,1405741,0.0-571.0,g7w9ueww,,Nothing,,Agent B,veridical,STIM_SET_2/285932.bmp_pp64_L1_V1.0_veridical_freeview_isoTrue.mp4,,
572,,,,call-function,572,1405741,0.0-572.0,g7w9ueww,,,,,,,,
573,2322.779999999800,"{""judgement"":1}",[0],survey-likert,573,1408065,0.0-573.0,g7w9ueww,,,,,,,1.0,1
574,1679.469999999970,"{""confidence"":1}",[0],survey-likert,574,1409746,0.0-574.0,g7w9ueww,,,,,,,,
575,,,,call-function,575,1409746,0.0-575.0,g7w9ueww,,,,,,,,
576,Nothing,,,html-keyboard-response,576,1411251,0.0-576.0,g7w9ueww,,Nothing,['Agent A'],,,,,
577,Nothing,,,video-keyboard-response,577,1414354,0.0-577.0,g7w9ueww,,Nothing,,Agent A,veridical,STIM_SET_2/1159874.bmp_pp96_L2_V1.0_veridical_freeview_isoTrue.mp4,,
578,Nothing,,,html-keyboard-response,578,1415859,0.0-578.0,g7w9ueww,,Nothing,['Agent B'],,,,,
579,Nothing,,,video-keyboard-response,579,1418960,0.0-579.0,g7w9ueww,,Nothing,,Agent B,scrambled,STIM_SET_2/1159874.bmp_pp96_L2_V1.0_scrambled_freeview_isoTrue.mp4,,
580,,,,call-function,580,1418961,0.0-580.0,g7w9ueww,,,,,,,,
581,1365.2949999999300,"{""judgement"":0}",[0],survey-likert,581,1420327,0.0-581.0,g7w9ueww,,,,,,,0.0,1
582,2015.780000000030,"{""confidence"":2}",[0],survey-likert,582,1422344,0.0-582.0,g7w9ueww,,,,,,,,
583,2501.820000000070,,,instructions,583,1424846,0.0-583.0,g7w9ueww,"[{""page_index"":0,""viewing_time"":2501.6450000000186}]",,,,,,,
584,3140.399999999910,,,instructions,584,1427987,0.0-584.0,g7w9ueww,"[{""page_index"":0,""viewing_time"":3140.2949999999255}]",,,,,,,
585,43600.12000000010,"{""post-1"":1}",[0],survey-likert,585,1471589,0.0-585.0,g7w9ueww,,,,,,,,
586,28762.79500000020,"{""post-1"":0}",[0],survey-likert,586,1500353,0.0-586.0,g7w9ueww,,,,,,,,
587,32510.595000000000,"{""post-2"":0}",[0],survey-likert,587,1532865,0.0-587.0,g7w9ueww,,,,,,,,
588,15071.780000000000,"{""post-2"":0}",[0],survey-likert,588,1547939,0.0-588.0,g7w9ueww,,,,,,,,
589,21036.514999999900,"{""post-3"":1}",[0],survey-likert,589,1568977,0.0-589.0,g7w9ueww,,,,,,,,
590,11928.34999999990,"{""post-3"":0}",[0],survey-likert,590,1580907,0.0-590.0,g7w9ueww,,,,,,,,
591,20995.425000000000,"{""post-4"":0}",[0],survey-likert,591,1601904,0.0-591.0,g7w9ueww,,,,,,,,
592,11422.830000000100,"{""post-4"":0}",[0],survey-likert,592,1613328,0.0-592.0,g7w9ueww,,,,,,,,
593,18147.110000000100,"{""post-5"":2}",[0],survey-likert,593,1631477,0.0-593.0,g7w9ueww,,,,,,,,
594,24242.430000000200,"{""post-5"":3}",[0],survey-likert,594,1655721,0.0-594.0,g7w9ueww,,,,,,,,
595,218090.06000000000,"{""Q0"":""I found that it was hard to differentiate between the human and non-human attentions. Consequently, I had a very low confidence level for almost all of my responses. Also, the attention sequences moved so fast that I missed some of the sequences entirely and had to guess. ""}",,survey-text,595,1873818,0.0-595.0,g7w9ueww,,,,,,,,
596,223639.8950000000,"{""Q0"":""I found it easy to follow the dots; however, most of the time, I wasn't sure what to do with the patterns I obtained. So, I tried to sense what eye movements would be natural for me when looking at something. The ones that seemed the most natural I deemed the human. ""}",,survey-text,596,2097463,0.0-596.0,g7w9ueww,,,,,,,,
597,46043.64999999990,"{""Q0"":""The dots moved so fast that I often lost track of them, or accidentally confused Agent A and Agent B when it came time to decide which was human. ""}",,survey-text,597,2143510,0.0-597.0,g7w9ueww,,,,,,,,
598,1966.1049999999800,,,instructions,598,2145477,0.0-598.0,g7w9ueww,"[{""page_index"":0,""viewing_time"":1965.964999999851}]",,,,,,,
599,17138.744999999600,"{""Experimenter_end"":[""Printed ID# g7w9ueww on consent form"",""Given subject SONA credit or payment"",""Given the subject debrief form""]}",[0],survey-multi-select,599,2162618,0.0-599.0,g7w9ueww,,,,,,,,