"rt","responses","question_order","trial_type","trial_index","time_elapsed","internal_node_id","ID","view_history","stimulus","key_press","value","agent","condition","image","correct_answer"
"34390.445","{""Experimenter"":[""Confirmed subject's identity"",""Confirmed normal or corrected-to-normal vision"",""Obtained consent (signature and date)"",""Checked the test room lighting"",""Checked computer screen lighting"",""Checked distance from screen to chin rest (50cm)"",""Cleaned and adjusted chin rest"",""Counterbalanced the order of the tasks"",""Opened the experiment in Firefox"",""Made the experiment full screen"",""Encouraged subject to silence phone, put away distractors, etc.""]}","[0]","survey-multi-select","0","34400","0.0-0.0","q2nkmydt","","","","","","","",""
"11214.049999999996","","","instructions","1","45615","0.0-1.0","q2nkmydt","[{""page_index"":0,""viewing_time"":11213.894999999997}]","","","","","","",""
"8139.175000000003","{""Age"":1,""Sex"":0,""Gender"":0}","[0,1,2]","survey-likert","2","53756","0.0-2.0","q2nkmydt","","","","","","","",""
"14050.349999999999","","","instructions","3","67807","0.0-3.0","q2nkmydt","[{""page_index"":0,""viewing_time"":9426.36},{""page_index"":1,""viewing_time"":1398.9249999999956},{""page_index"":2,""viewing_time"":3224.949999999997}]","","","","","","",""
"2478.6100000000006","","","instructions","4","70286","0.0-4.0","q2nkmydt","[{""page_index"":0,""viewing_time"":2478.5100000000093}]","","","","","","",""
"null","","","video-keyboard-response","5","73359","0.0-5.0","q2nkmydt","","","null","","","","",""
"17316.339999999997","","","instructions","6","90676","0.0-6.0","q2nkmydt","[{""page_index"":0,""viewing_time"":6663.595000000001},{""page_index"":1,""viewing_time"":3317.524999999994},{""page_index"":2,""viewing_time"":7335.119999999995}]","","","","","","",""
"4256.485000000001","","","instructions","7","94932","0.0-7.0","q2nkmydt","[{""page_index"":0,""viewing_time"":4256.37000000001}]","","","","","","",""
"1008.6849999999977","","","instructions","8","95942","0.0-8.0","q2nkmydt","[{""page_index"":0,""viewing_time"":1008.4600000000064}]","","","","","","",""
"null","","","video-keyboard-response","9","99013","0.0-9.0","q2nkmydt","","","null","","","","",""
"11483","","","instructions","10","110497","0.0-10.0","q2nkmydt","[{""page_index"":0,""viewing_time"":1291.9949999999953},{""page_index"":1,""viewing_time"":2820.949999999997},{""page_index"":2,""viewing_time"":7369.919999999998}]","","","","","","",""
"3364.1900000000023","","","instructions","11","113861","0.0-11.0","q2nkmydt","[{""page_index"":0,""viewing_time"":3364.0800000000017}]","","","","","","",""
"","","","call-function","12","113862","0.0-12.0","q2nkmydt","","","","","","","",""
"null","","","html-keyboard-response","13","115365","0.0-13.0","q2nkmydt","","<span style=""color:Black; font-size:50px;"">Agent A","null","","","","",""
"null","","","video-keyboard-response","14","118170","0.0-14.0","q2nkmydt","","","null","","Agent A","scrambled","FOR_REV_MAP_BLOBBY_STIM/1591920.bmp_pp97_L3_V1.0_veridical_freeview_isoTrue_fps144_reversed_REAL.mp4",""
"null","","","html-keyboard-response","15","119676","0.0-15.0","q2nkmydt","","<span style=""color:Black; font-size:50px;"">Agent B","null","","","","",""
"null","","","video-keyboard-response","16","122482","0.0-16.0","q2nkmydt","","","null","","Agent B","veridical","FOR_REV_MAP_BLOBBY_STIM/1591920.bmp_pp97_L3_V1.0_veridical_freeview_isoTrue_fps144.mp4",""
"","","","call-function","17","122483","0.0-17.0","q2nkmydt","","","","","","","",""
"4603.690000000002","{""judgement"":0}","[0]","survey-likert","18","127088","0.0-18.0","q2nkmydt","","","","","","","","1"
"1266.0950000000012","{""confidence"":0}","[0]","survey-likert","19","128356","0.0-19.0","q2nkmydt","","","","","","","",""
"","","","call-function","20","128356","0.0-20.0","q2nkmydt","","","","","","","",""
"null","","","html-keyboard-response","21","129861","0.0-21.0","q2nkmydt","","<span style=""color:Black; font-size:50px;"">Agent A","null","","","","",""
"null","","","video-keyboard-response","22","132652","0.0-22.0","q2nkmydt","","","null","","Agent A","scrambled","FOR_REV_MAP_BLOBBY_STIM/1592305.bmp_pp65_L3_V1.0_veridical_freeview_isoTrue_fps144_reversed_REAL.mp4",""
"null","","","html-keyboard-response","23","134158","0.0-23.0","q2nkmydt","","<span style=""color:Black; font-size:50px;"">Agent B","null","","","","",""
"null","","","video-keyboard-response","24","136946","0.0-24.0","q2nkmydt","","","null","","Agent B","veridical","FOR_REV_MAP_BLOBBY_STIM/1592305.bmp_pp65_L3_V1.0_veridical_freeview_isoTrue_fps144.mp4",""
"","","","call-function","25","136947","0.0-25.0","q2nkmydt","","","","","","","",""
"2578.545000000013","{""judgement"":0}","[0]","survey-likert","26","139526","0.0-26.0","q2nkmydt","","","","","","","","1"
"1447.4400000000023","{""confidence"":0}","[0]","survey-likert","27","140976","0.0-27.0","q2nkmydt","","","","","","","",""
"","","","call-function","28","140977","0.0-28.0","q2nkmydt","","","","","","","",""
"null","","","html-keyboard-response","29","142481","0.0-29.0","q2nkmydt","","<span style=""color:Black; font-size:50px;"">Agent A","null","","","","",""
"null","","","video-keyboard-response","30","145168","0.0-30.0","q2nkmydt","","","null","","Agent A","veridical","FOR_REV_MAP_BLOBBY_STIM/1592350.bmp_pp55_L3_V1.0_veridical_freeview_isoTrue_fps144.mp4",""
"null","","","html-keyboard-response","31","146673","0.0-31.0","q2nkmydt","","<span style=""color:Black; font-size:50px;"">Agent B","null","","","","",""
"null","","","video-keyboard-response","32","149383","0.0-32.0","q2nkmydt","","","null","","Agent B","scrambled","FOR_REV_MAP_BLOBBY_STIM/1592350.bmp_pp55_L3_V1.0_veridical_freeview_isoTrue_fps144_reversed_REAL.mp4",""
"","","","call-function","33","149383","0.0-33.0","q2nkmydt","","","","","","","",""
"2206.3399999999965","{""judgement"":0}","[0]","survey-likert","34","151590","0.0-34.0","q2nkmydt","","","","","","","","0"
"1853.679999999993","{""confidence"":0}","[0]","survey-likert","35","153445","0.0-35.0","q2nkmydt","","","","","","","",""
"","","","call-function","36","153446","0.0-36.0","q2nkmydt","","","","","","","",""
"null","","","html-keyboard-response","37","154948","0.0-37.0","q2nkmydt","","<span style=""color:Black; font-size:50px;"">Agent A","null","","","","",""
"null","","","video-keyboard-response","38","157775","0.0-38.0","q2nkmydt","","","null","","Agent A","scrambled","FOR_REV_MAP_BLOBBY_STIM/1159508.bmp_pp151_L1_V1.0_veridical_freeview_isoTrue_fps144_reversed_REAL.mp4",""
"null","","","html-keyboard-response","39","159279","0.0-39.0","q2nkmydt","","<span style=""color:Black; font-size:50px;"">Agent B","null","","","","",""
"null","","","video-keyboard-response","40","162102","0.0-40.0","q2nkmydt","","","null","","Agent B","veridical","FOR_REV_MAP_BLOBBY_STIM/1159508.bmp_pp151_L1_V1.0_veridical_freeview_isoTrue_fps144.mp4",""
"","","","call-function","41","162103","0.0-41.0","q2nkmydt","","","","","","","",""
"1379.3850000000093","{""judgement"":1}","[0]","survey-likert","42","163483","0.0-42.0","q2nkmydt","","","","","","","","1"
"1191.2099999999919","{""confidence"":1}","[0]","survey-likert","43","164675","0.0-43.0","q2nkmydt","","","","","","","",""
"","","","call-function","44","164676","0.0-44.0","q2nkmydt","","","","","","","",""
"null","","","html-keyboard-response","45","166180","0.0-45.0","q2nkmydt","","<span style=""color:Black; font-size:50px;"">Agent A","null","","","","",""
"null","","","video-keyboard-response","46","169013","0.0-46.0","q2nkmydt","","","null","","Agent A","scrambled","FOR_REV_MAP_BLOBBY_STIM/107955.bmp_pp90_L2_V1.0_veridical_freeview_isoTrue_fps144_reversed_REAL.mp4",""
"null","","","html-keyboard-response","47","170520","0.0-47.0","q2nkmydt","","<span style=""color:Black; font-size:50px;"">Agent B","null","","","","",""
"null","","","video-keyboard-response","48","173353","0.0-48.0","q2nkmydt","","","null","","Agent B","veridical","FOR_REV_MAP_BLOBBY_STIM/107955.bmp_pp90_L2_V1.0_veridical_freeview_isoTrue_fps144.mp4",""
"","","","call-function","49","173353","0.0-49.0","q2nkmydt","","","","","","","",""
"2402.890000000014","{""judgement"":0}","[0]","survey-likert","50","175757","0.0-50.0","q2nkmydt","","","","","","","","1"
"1400.3349999999919","{""confidence"":0}","[0]","survey-likert","51","177158","0.0-51.0","q2nkmydt","","","","","","","",""
"","","","call-function","52","177159","0.0-52.0","q2nkmydt","","","","","","","",""
"null","","","html-keyboard-response","53","178661","0.0-53.0","q2nkmydt","","<span style=""color:Black; font-size:50px;"">Agent A","null","","","","",""
"null","","","video-keyboard-response","54","181436","0.0-54.0","q2nkmydt","","","null","","Agent A","veridical","FOR_REV_MAP_BLOBBY_STIM/150277.bmp_pp65_L3_V1.0_veridical_freeview_isoTrue_fps144.mp4",""
"null","","","html-keyboard-response","55","182938","0.0-55.0","q2nkmydt","","<span style=""color:Black; font-size:50px;"">Agent B","null","","","","",""
"null","","","video-keyboard-response","56","185699","0.0-56.0","q2nkmydt","","","null","","Agent B","scrambled","FOR_REV_MAP_BLOBBY_STIM/150277.bmp_pp65_L3_V1.0_veridical_freeview_isoTrue_fps144_reversed_REAL.mp4",""
"","","","call-function","57","185700","0.0-57.0","q2nkmydt","","","","","","","",""
"1189.1600000000035","{""judgement"":1}","[0]","survey-likert","58","186890","0.0-58.0","q2nkmydt","","","","","","","","0"
"1175.4199999999837","{""confidence"":1}","[0]","survey-likert","59","188066","0.0-59.0","q2nkmydt","","","","","","","",""
"","","","call-function","60","188067","0.0-60.0","q2nkmydt","","","","","","","",""
"null","","","html-keyboard-response","61","189569","0.0-61.0","q2nkmydt","","<span style=""color:Black; font-size:50px;"">Agent A","null","","","","",""
"null","","","video-keyboard-response","62","192302","0.0-62.0","q2nkmydt","","","null","","Agent A","scrambled","FOR_REV_MAP_BLOBBY_STIM/285715.bmp_pp67_L2_V1.0_veridical_freeview_isoTrue_fps144_reversed_REAL.mp4",""
"null","","","html-keyboard-response","63","193804","0.0-63.0","q2nkmydt","","<span style=""color:Black; font-size:50px;"">Agent B","null","","","","",""
"null","","","video-keyboard-response","64","196525","0.0-64.0","q2nkmydt","","","null","","Agent B","veridical","FOR_REV_MAP_BLOBBY_STIM/285715.bmp_pp67_L2_V1.0_veridical_freeview_isoTrue_fps144.mp4",""
"","","","call-function","65","196526","0.0-65.0","q2nkmydt","","","","","","","",""
"1910.8300000000163","{""judgement"":1}","[0]","survey-likert","66","198437","0.0-66.0","q2nkmydt","","","","","","","","1"
"1610.0750000000116","{""confidence"":1}","[0]","survey-likert","67","200048","0.0-67.0","q2nkmydt","","","","","","","",""
"","","","call-function","68","200049","0.0-68.0","q2nkmydt","","","","","","","",""
"null","","","html-keyboard-response","69","201554","0.0-69.0","q2nkmydt","","<span style=""color:Black; font-size:50px;"">Agent A","null","","","","",""
"null","","","video-keyboard-response","70","204392","0.0-70.0","q2nkmydt","","","null","","Agent A","veridical","FOR_REV_MAP_BLOBBY_STIM/498396.bmp_pp99_L2_V1.0_veridical_freeview_isoTrue_fps144.mp4",""
"null","","","html-keyboard-response","71","205893","0.0-71.0","q2nkmydt","","<span style=""color:Black; font-size:50px;"">Agent B","null","","","","",""
"null","","","video-keyboard-response","72","208733","0.0-72.0","q2nkmydt","","","null","","Agent B","scrambled","FOR_REV_MAP_BLOBBY_STIM/498396.bmp_pp99_L2_V1.0_veridical_freeview_isoTrue_fps144_reversed_REAL.mp4",""
"","","","call-function","73","208734","0.0-73.0","q2nkmydt","","","","","","","",""
"1742.0950000000012","{""judgement"":1}","[0]","survey-likert","74","210477","0.0-74.0","q2nkmydt","","","","","","","","0"
"1208.0800000000163","{""confidence"":0}","[0]","survey-likert","75","211686","0.0-75.0","q2nkmydt","","","","","","","",""
"","","","call-function","76","211687","0.0-76.0","q2nkmydt","","","","","","","",""
"null","","","html-keyboard-response","77","213191","0.0-77.0","q2nkmydt","","<span style=""color:Black; font-size:50px;"">Agent A","null","","","","",""
"null","","","video-keyboard-response","78","215963","0.0-78.0","q2nkmydt","","","null","","Agent A","veridical","FOR_REV_MAP_BLOBBY_STIM/1592129.bmp_pp153_L3_V1.0_veridical_freeview_isoTrue_fps144.mp4",""
"null","","","html-keyboard-response","79","217467","0.0-79.0","q2nkmydt","","<span style=""color:Black; font-size:50px;"">Agent B","null","","","","",""
"null","","","video-keyboard-response","80","220239","0.0-80.0","q2nkmydt","","","null","","Agent B","scrambled","FOR_REV_MAP_BLOBBY_STIM/1592129.bmp_pp153_L3_V1.0_veridical_freeview_isoTrue_fps144_reversed_REAL.mp4",""
"","","","call-function","81","220240","0.0-81.0","q2nkmydt","","","","","","","",""
"2231.459999999992","{""judgement"":0}","[0]","survey-likert","82","222473","0.0-82.0","q2nkmydt","","","","","","","","0"
"1251.6549999999988","{""confidence"":1}","[0]","survey-likert","83","223726","0.0-83.0","q2nkmydt","","","","","","","",""
"","","","call-function","84","223726","0.0-84.0","q2nkmydt","","","","","","","",""
"null","","","html-keyboard-response","85","225245","0.0-85.0","q2nkmydt","","<span style=""color:Black; font-size:50px;"">Agent A","null","","","","",""
"null","","","video-keyboard-response","86","227975","0.0-86.0","q2nkmydt","","","null","","Agent A","scrambled","FOR_REV_MAP_BLOBBY_STIM/1591975.bmp_pp88_L2_V1.0_veridical_freeview_isoTrue_fps144_reversed_REAL.mp4",""
"null","","","html-keyboard-response","87","229481","0.0-87.0","q2nkmydt","","<span style=""color:Black; font-size:50px;"">Agent B","null","","","","",""
"null","","","video-keyboard-response","88","232207","0.0-88.0","q2nkmydt","","","null","","Agent B","veridical","FOR_REV_MAP_BLOBBY_STIM/1591975.bmp_pp88_L2_V1.0_veridical_freeview_isoTrue_fps144.mp4",""
"","","","call-function","89","232208","0.0-89.0","q2nkmydt","","","","","","","",""
"1889.570000000007","{""judgement"":0}","[0]","survey-likert","90","234098","0.0-90.0","q2nkmydt","","","","","","","","1"
"1544.3649999999907","{""confidence"":2}","[0]","survey-likert","91","235644","0.0-91.0","q2nkmydt","","","","","","","",""
"12936.304999999993","","","instructions","92","248581","0.0-92.0","q2nkmydt","[{""page_index"":0,""viewing_time"":1432.1549999999988},{""page_index"":1,""viewing_time"":11000.875},{""page_index"":2,""viewing_time"":503.0799999999872}]","","","","","","",""
"1133.5899999999965","","","instructions","93","249715","0.0-93.0","q2nkmydt","[{""page_index"":0,""viewing_time"":284.4400000000023},{""page_index"":1,""viewing_time"":390.4349999999977},{""page_index"":2,""viewing_time"":458.61000000001513}]","","","","","","",""
"","","","call-function","94","249715","0.0-94.0","q2nkmydt","","","","","","","",""
"null","","","html-keyboard-response","95","251217","0.0-95.0","q2nkmydt","","<span style=""color:Black; font-size:50px;"">Agent A","null","","","","",""
"null","","","video-keyboard-response","96","253901","0.0-96.0","q2nkmydt","","","null","","Agent A","veridical","FOR_REV_MAP_BLOBBY_STIM/713858.bmp_pp57_L1_V1.0_veridical_freeview_isoTrue_fps144.mp4",""
"null","","","html-keyboard-response","97","255403","0.0-97.0","q2nkmydt","","<span style=""color:Black; font-size:50px;"">Agent B","null","","","","",""
"null","","","video-keyboard-response","98","258089","0.0-98.0","q2nkmydt","","","null","","Agent B","scrambled","FOR_REV_MAP_BLOBBY_STIM/713858.bmp_pp57_L1_V1.0_veridical_freeview_isoTrue_fps144_reversed_REAL.mp4",""
"","","","call-function","99","258089","0.0-99.0","q2nkmydt","","","","","","","",""
"2001.9200000000128","{""judgement"":0}","[0]","survey-likert","100","260092","0.0-100.0","q2nkmydt","","","","","","","","0"
"1118.6300000000047","{""confidence"":1}","[0]","survey-likert","101","261212","0.0-101.0","q2nkmydt","","","","","","","",""
"","","","call-function","102","261212","0.0-102.0","q2nkmydt","","","","","","","",""
"null","","","html-keyboard-response","103","262718","0.0-103.0","q2nkmydt","","<span style=""color:Black; font-size:50px;"">Agent A","null","","","","",""
"null","","","video-keyboard-response","104","265494","0.0-104.0","q2nkmydt","","","null","","Agent A","scrambled","FOR_REV_MAP_BLOBBY_STIM/1592047.bmp_pp51_L1_V1.0_veridical_freeview_isoTrue_fps144_reversed_REAL.mp4",""
"null","","","html-keyboard-response","105","266996","0.0-105.0","q2nkmydt","","<span style=""color:Black; font-size:50px;"">Agent B","null","","","","",""
"null","","","video-keyboard-response","106","269761","0.0-106.0","q2nkmydt","","","null","","Agent B","veridical","FOR_REV_MAP_BLOBBY_STIM/1592047.bmp_pp51_L1_V1.0_veridical_freeview_isoTrue_fps144.mp4",""
"","","","call-function","107","269761","0.0-107.0","q2nkmydt","","","","","","","",""
"1546.554999999993","{""judgement"":0}","[0]","survey-likert","108","271308","0.0-108.0","q2nkmydt","","","","","","","","1"
"1735.2150000000256","{""confidence"":2}","[0]","survey-likert","109","273045","0.0-109.0","q2nkmydt","","","","","","","",""
"","","","call-function","110","273045","0.0-110.0","q2nkmydt","","","","","","","",""
"null","","","html-keyboard-response","111","274547","0.0-111.0","q2nkmydt","","<span style=""color:Black; font-size:50px;"">Agent A","null","","","","",""
"null","","","video-keyboard-response","112","277354","0.0-112.0","q2nkmydt","","","null","","Agent A","scrambled","FOR_REV_MAP_BLOBBY_STIM/107909.bmp_pp95_L2_V1.0_veridical_freeview_isoTrue_fps144_reversed_REAL.mp4",""
"null","","","html-keyboard-response","113","278857","0.0-113.0","q2nkmydt","","<span style=""color:Black; font-size:50px;"">Agent B","null","","","","",""
"null","","","video-keyboard-response","114","281656","0.0-114.0","q2nkmydt","","","null","","Agent B","veridical","FOR_REV_MAP_BLOBBY_STIM/107909.bmp_pp95_L2_V1.0_veridical_freeview_isoTrue_fps144.mp4",""
"","","","call-function","115","281657","0.0-115.0","q2nkmydt","","","","","","","",""
"2021.7999999999884","{""judgement"":0}","[0]","survey-likert","116","283679","0.0-116.0","q2nkmydt","","","","","","","","1"
"1612.125","{""confidence"":0}","[0]","survey-likert","117","285292","0.0-117.0","q2nkmydt","","","","","","","",""
"","","","call-function","118","285293","0.0-118.0","q2nkmydt","","","","","","","",""
"null","","","html-keyboard-response","119","286798","0.0-119.0","q2nkmydt","","<span style=""color:Black; font-size:50px;"">Agent A","null","","","","",""
"null","","","video-keyboard-response","120","289626","0.0-120.0","q2nkmydt","","","null","","Agent A","veridical","FOR_REV_MAP_BLOBBY_STIM/1592857.bmp_pp52_L1_V1.0_veridical_freeview_isoTrue_fps144.mp4",""
"null","","","html-keyboard-response","121","291126","0.0-121.0","q2nkmydt","","<span style=""color:Black; font-size:50px;"">Agent B","null","","","","",""
"null","","","video-keyboard-response","122","293944","0.0-122.0","q2nkmydt","","","null","","Agent B","scrambled","FOR_REV_MAP_BLOBBY_STIM/1592857.bmp_pp52_L1_V1.0_veridical_freeview_isoTrue_fps144_reversed_REAL.mp4",""
"","","","call-function","123","293944","0.0-123.0","q2nkmydt","","","","","","","",""
"3136.0650000000023","{""judgement"":1}","[0]","survey-likert","124","297082","0.0-124.0","q2nkmydt","","","","","","","","0"
"2155.929999999993","{""confidence"":0}","[0]","survey-likert","125","299239","0.0-125.0","q2nkmydt","","","","","","","",""
"","","","call-function","126","299239","0.0-126.0","q2nkmydt","","","","","","","",""
"null","","","html-keyboard-response","127","300743","0.0-127.0","q2nkmydt","","<span style=""color:Black; font-size:50px;"">Agent A","null","","","","",""
"null","","","video-keyboard-response","128","303569","0.0-128.0","q2nkmydt","","","null","","Agent A","scrambled","FOR_REV_MAP_BLOBBY_STIM/713742.bmp_pp91_L3_V1.0_veridical_freeview_isoTrue_fps144_reversed_REAL.mp4",""
"null","","","html-keyboard-response","129","305071","0.0-129.0","q2nkmydt","","<span style=""color:Black; font-size:50px;"">Agent B","null","","","","",""
"null","","","video-keyboard-response","130","307909","0.0-130.0","q2nkmydt","","","null","","Agent B","veridical","FOR_REV_MAP_BLOBBY_STIM/713742.bmp_pp91_L3_V1.0_veridical_freeview_isoTrue_fps144.mp4",""
"","","","call-function","131","307910","0.0-131.0","q2nkmydt","","","","","","","",""
"3765.640000000014","{""judgement"":0}","[0]","survey-likert","132","311677","0.0-132.0","q2nkmydt","","","","","","","","1"
"1492.960000000021","{""confidence"":0}","[0]","survey-likert","133","313171","0.0-133.0","q2nkmydt","","","","","","","",""
"","","","call-function","134","313172","0.0-134.0","q2nkmydt","","","","","","","",""
"null","","","html-keyboard-response","135","314673","0.0-135.0","q2nkmydt","","<span style=""color:Black; font-size:50px;"">Agent A","null","","","","",""
"null","","","video-keyboard-response","136","317430","0.0-136.0","q2nkmydt","","","null","","Agent A","veridical","FOR_REV_MAP_BLOBBY_STIM/713328.bmp_pp86_L2_V1.0_veridical_freeview_isoTrue_fps144.mp4",""
"null","","","html-keyboard-response","137","318933","0.0-137.0","q2nkmydt","","<span style=""color:Black; font-size:50px;"">Agent B","null","","","","",""
"null","","","video-keyboard-response","138","321691","0.0-138.0","q2nkmydt","","","null","","Agent B","scrambled","FOR_REV_MAP_BLOBBY_STIM/713328.bmp_pp86_L2_V1.0_veridical_freeview_isoTrue_fps144_reversed_REAL.mp4",""
"","","","call-function","139","321692","0.0-139.0","q2nkmydt","","","","","","","",""
"3179.3800000000047","{""judgement"":1}","[0]","survey-likert","140","324873","0.0-140.0","q2nkmydt","","","","","","","","0"
"1800.2299999999814","{""confidence"":0}","[0]","survey-likert","141","326675","0.0-141.0","q2nkmydt","","","","","","","",""
"","","","call-function","142","326675","0.0-142.0","q2nkmydt","","","","","","","",""
"null","","","html-keyboard-response","143","328177","0.0-143.0","q2nkmydt","","<span style=""color:Black; font-size:50px;"">Agent A","null","","","","",""
"null","","","video-keyboard-response","144","330906","0.0-144.0","q2nkmydt","","","null","","Agent A","veridical","FOR_REV_MAP_BLOBBY_STIM/1159956.bmp_pp59_L3_V1.0_veridical_freeview_isoTrue_fps144.mp4",""
"null","","","html-keyboard-response","145","332409","0.0-145.0","q2nkmydt","","<span style=""color:Black; font-size:50px;"">Agent B","null","","","","",""
"null","","","video-keyboard-response","146","335133","0.0-146.0","q2nkmydt","","","null","","Agent B","scrambled","FOR_REV_MAP_BLOBBY_STIM/1159956.bmp_pp59_L3_V1.0_veridical_freeview_isoTrue_fps144_reversed_REAL.mp4",""
"","","","call-function","147","335134","0.0-147.0","q2nkmydt","","","","","","","",""
"1842.975000000035","{""judgement"":0}","[0]","survey-likert","148","336978","0.0-148.0","q2nkmydt","","","","","","","","0"
"1419.2200000000303","{""confidence"":1}","[0]","survey-likert","149","338398","0.0-149.0","q2nkmydt","","","","","","","",""
"","","","call-function","150","338399","0.0-150.0","q2nkmydt","","","","","","","",""
"null","","","html-keyboard-response","151","339900","0.0-151.0","q2nkmydt","","<span style=""color:Black; font-size:50px;"">Agent A","null","","","","",""
"null","","","video-keyboard-response","152","342816","0.0-152.0","q2nkmydt","","","null","","Agent A","scrambled","FOR_REV_MAP_BLOBBY_STIM/498025.bmp_pp81_L1_V1.0_veridical_freeview_isoTrue_fps144_reversed_REAL.mp4",""
"null","","","html-keyboard-response","153","344318","0.0-153.0","q2nkmydt","","<span style=""color:Black; font-size:50px;"">Agent B","null","","","","",""
"null","","","video-keyboard-response","154","347231","0.0-154.0","q2nkmydt","","","null","","Agent B","veridical","FOR_REV_MAP_BLOBBY_STIM/498025.bmp_pp81_L1_V1.0_veridical_freeview_isoTrue_fps144.mp4",""
"","","","call-function","155","347232","0.0-155.0","q2nkmydt","","","","","","","",""
"1747.649999999965","{""judgement"":0}","[0]","survey-likert","156","348980","0.0-156.0","q2nkmydt","","","","","","","","1"
"1145.0100000000093","{""confidence"":1}","[0]","survey-likert","157","350126","0.0-157.0","q2nkmydt","","","","","","","",""
"","","","call-function","158","350127","0.0-158.0","q2nkmydt","","","","","","","",""
"null","","","html-keyboard-response","159","351630","0.0-159.0","q2nkmydt","","<span style=""color:Black; font-size:50px;"">Agent A","null","","","","",""
"null","","","video-keyboard-response","160","354428","0.0-160.0","q2nkmydt","","","null","","Agent A","veridical","FOR_REV_MAP_BLOBBY_STIM/713790.bmp_pp100_L3_V1.0_veridical_freeview_isoTrue_fps144.mp4",""
"null","","","html-keyboard-response","161","355931","0.0-161.0","q2nkmydt","","<span style=""color:Black; font-size:50px;"">Agent B","null","","","","",""
"null","","","video-keyboard-response","162","358721","0.0-162.0","q2nkmydt","","","null","","Agent B","scrambled","FOR_REV_MAP_BLOBBY_STIM/713790.bmp_pp100_L3_V1.0_veridical_freeview_isoTrue_fps144_reversed_REAL.mp4",""
"","","","call-function","163","358721","0.0-163.0","q2nkmydt","","","","","","","",""
"3329.890000000014","{""judgement"":0}","[0]","survey-likert","164","362052","0.0-164.0","q2nkmydt","","","","","","","","0"
"1385.7849999999744","{""confidence"":1}","[0]","survey-likert","165","363439","0.0-165.0","q2nkmydt","","","","","","","",""
"","","","call-function","166","363439","0.0-166.0","q2nkmydt","","","","","","","",""
"null","","","html-keyboard-response","167","364941","0.0-167.0","q2nkmydt","","<span style=""color:Black; font-size:50px;"">Agent A","null","","","","",""
"null","","","video-keyboard-response","168","367745","0.0-168.0","q2nkmydt","","","null","","Agent A","veridical","FOR_REV_MAP_BLOBBY_STIM/1592150.bmp_pp77_L3_V1.0_veridical_freeview_isoTrue_fps144.mp4",""
"null","","","html-keyboard-response","169","369252","0.0-169.0","q2nkmydt","","<span style=""color:Black; font-size:50px;"">Agent B","null","","","","",""
"null","","","video-keyboard-response","170","372050","0.0-170.0","q2nkmydt","","","null","","Agent B","scrambled","FOR_REV_MAP_BLOBBY_STIM/1592150.bmp_pp77_L3_V1.0_veridical_freeview_isoTrue_fps144_reversed_REAL.mp4",""
"","","","call-function","171","372051","0.0-171.0","q2nkmydt","","","","","","","",""
"1130","{""judgement"":1}","[0]","survey-likert","172","373181","0.0-172.0","q2nkmydt","","","","","","","","0"
"1184.024999999965","{""confidence"":1}","[0]","survey-likert","173","374366","0.0-173.0","q2nkmydt","","","","","","","",""
"75530.51500000001","","","instructions","174","449898","0.0-174.0","q2nkmydt","[{""page_index"":0,""viewing_time"":73402.76000000001},{""page_index"":1,""viewing_time"":1162.0750000000116},{""page_index"":2,""viewing_time"":965.4649999999674}]","","","","","","",""
"5212.804999999993","","","instructions","175","455111","0.0-175.0","q2nkmydt","[{""page_index"":0,""viewing_time"":373.8299999999581},{""page_index"":1,""viewing_time"":4358.045000000042},{""page_index"":2,""viewing_time"":480.82499999995343}]","","","","","","",""
"","","","call-function","176","455111","0.0-176.0","q2nkmydt","","","","","","","",""
"null","","","html-keyboard-response","177","456614","0.0-177.0","q2nkmydt","","<span style=""color:Black; font-size:50px;"">Agent A","null","","","","",""
"null","","","video-keyboard-response","178","459444","0.0-178.0","q2nkmydt","","","null","","Agent A","veridical","FOR_REV_MAP_BLOBBY_STIM/498261.bmp_pp84_L3_V1.0_veridical_freeview_isoTrue_fps144.mp4",""
"null","","","html-keyboard-response","179","460950","0.0-179.0","q2nkmydt","","<span style=""color:Black; font-size:50px;"">Agent B","null","","","","",""
"null","","","video-keyboard-response","180","463783","0.0-180.0","q2nkmydt","","","null","","Agent B","scrambled","FOR_REV_MAP_BLOBBY_STIM/498261.bmp_pp84_L3_V1.0_veridical_freeview_isoTrue_fps144_reversed_REAL.mp4",""
"","","","call-function","181","463784","0.0-181.0","q2nkmydt","","","","","","","",""
"2635.530000000028","{""judgement"":1}","[0]","survey-likert","182","466421","0.0-182.0","q2nkmydt","","","","","","","","0"
"1409.9799999999814","{""confidence"":0}","[0]","survey-likert","183","467832","0.0-183.0","q2nkmydt","","","","","","","",""
"","","","call-function","184","467832","0.0-184.0","q2nkmydt","","","","","","","",""
"null","","","html-keyboard-response","185","469339","0.0-185.0","q2nkmydt","","<span style=""color:Black; font-size:50px;"">Agent A","null","","","","",""
"null","","","video-keyboard-response","186","472101","0.0-186.0","q2nkmydt","","","null","","Agent A","veridical","FOR_REV_MAP_BLOBBY_STIM/285684.bmp_pp80_L3_V1.0_veridical_freeview_isoTrue_fps144.mp4",""
"null","","","html-keyboard-response","187","473602","0.0-187.0","q2nkmydt","","<span style=""color:Black; font-size:50px;"">Agent B","null","","","","",""
"null","","","video-keyboard-response","188","476362","0.0-188.0","q2nkmydt","","","null","","Agent B","scrambled","FOR_REV_MAP_BLOBBY_STIM/285684.bmp_pp80_L3_V1.0_veridical_freeview_isoTrue_fps144_reversed_REAL.mp4",""
"","","","call-function","189","476363","0.0-189.0","q2nkmydt","","","","","","","",""
"2457.600000000035","{""judgement"":0}","[0]","survey-likert","190","478821","0.0-190.0","q2nkmydt","","","","","","","","0"
"1318.25","{""confidence"":2}","[0]","survey-likert","191","480141","0.0-191.0","q2nkmydt","","","","","","","",""
"","","","call-function","192","480141","0.0-192.0","q2nkmydt","","","","","","","",""
"null","","","html-keyboard-response","193","481642","0.0-193.0","q2nkmydt","","<span style=""color:Black; font-size:50px;"">Agent A","null","","","","",""
"null","","","video-keyboard-response","194","484430","0.0-194.0","q2nkmydt","","","null","","Agent A","veridical","FOR_REV_MAP_BLOBBY_STIM/1159329.bmp_pp61_L2_V1.0_veridical_freeview_isoTrue_fps144.mp4",""
"null","","","html-keyboard-response","195","485933","0.0-195.0","q2nkmydt","","<span style=""color:Black; font-size:50px;"">Agent B","null","","","","",""
"null","","","video-keyboard-response","196","488694","0.0-196.0","q2nkmydt","","","null","","Agent B","scrambled","FOR_REV_MAP_BLOBBY_STIM/1159329.bmp_pp61_L2_V1.0_veridical_freeview_isoTrue_fps144_reversed_REAL.mp4",""
"","","","call-function","197","488695","0.0-197.0","q2nkmydt","","","","","","","",""
"2555.4049999999697","{""judgement"":0}","[0]","survey-likert","198","491252","0.0-198.0","q2nkmydt","","","","","","","","0"
"1396.9650000000256","{""confidence"":1}","[0]","survey-likert","199","492651","0.0-199.0","q2nkmydt","","","","","","","",""
"","","","call-function","200","492652","0.0-200.0","q2nkmydt","","","","","","","",""
"null","","","html-keyboard-response","201","494154","0.0-201.0","q2nkmydt","","<span style=""color:Black; font-size:50px;"">Agent A","null","","","","",""
"null","","","video-keyboard-response","202","496946","0.0-202.0","q2nkmydt","","","null","","Agent A","scrambled","FOR_REV_MAP_BLOBBY_STIM/1159392.bmp_pp96_L2_V1.0_veridical_freeview_isoTrue_fps144_reversed_REAL.mp4",""
"null","","","html-keyboard-response","203","498448","0.0-203.0","q2nkmydt","","<span style=""color:Black; font-size:50px;"">Agent B","null","","","","",""
"null","","","video-keyboard-response","204","501237","0.0-204.0","q2nkmydt","","","null","","Agent B","veridical","FOR_REV_MAP_BLOBBY_STIM/1159392.bmp_pp96_L2_V1.0_veridical_freeview_isoTrue_fps144.mp4",""
"","","","call-function","205","501238","0.0-205.0","q2nkmydt","","","","","","","",""
"1236.2350000000442","{""judgement"":1}","[0]","survey-likert","206","502475","0.0-206.0","q2nkmydt","","","","","","","","1"
"2083.615000000049","{""confidence"":2}","[0]","survey-likert","207","504560","0.0-207.0","q2nkmydt","","","","","","","",""
"","","","call-function","208","504560","0.0-208.0","q2nkmydt","","","","","","","",""
"null","","","html-keyboard-response","209","506064","0.0-209.0","q2nkmydt","","<span style=""color:Black; font-size:50px;"">Agent A","null","","","","",""
"null","","","video-keyboard-response","210","508902","0.0-210.0","q2nkmydt","","","null","","Agent A","scrambled","FOR_REV_MAP_BLOBBY_STIM/498326.bmp_pp57_L1_V1.0_veridical_freeview_isoTrue_fps144_reversed_REAL.mp4",""
"null","","","html-keyboard-response","211","510405","0.0-211.0","q2nkmydt","","<span style=""color:Black; font-size:50px;"">Agent B","null","","","","",""
"null","","","video-keyboard-response","212","513242","0.0-212.0","q2nkmydt","","","null","","Agent B","veridical","FOR_REV_MAP_BLOBBY_STIM/498326.bmp_pp57_L1_V1.0_veridical_freeview_isoTrue_fps144.mp4",""
"","","","call-function","213","513243","0.0-213.0","q2nkmydt","","","","","","","",""
"1442.179999999993","{""judgement"":1}","[0]","survey-likert","214","514686","0.0-214.0","q2nkmydt","","","","","","","","1"
"1189.210000000021","{""confidence"":1}","[0]","survey-likert","215","515876","0.0-215.0","q2nkmydt","","","","","","","",""
"","","","call-function","216","515876","0.0-216.0","q2nkmydt","","","","","","","",""
"null","","","html-keyboard-response","217","517379","0.0-217.0","q2nkmydt","","<span style=""color:Black; font-size:50px;"">Agent A","null","","","","",""
"null","","","video-keyboard-response","218","519284","0.0-218.0","q2nkmydt","","","null","","Agent A","veridical","FOR_REV_MAP_BLOBBY_STIM/285946.bmp_pp79_L2_V1.0_veridical_freeview_isoTrue_fps144.mp4",""
"null","","","html-keyboard-response","219","520786","0.0-219.0","q2nkmydt","","<span style=""color:Black; font-size:50px;"">Agent B","null","","","","",""
"null","","","video-keyboard-response","220","522676","0.0-220.0","q2nkmydt","","","null","","Agent B","scrambled","FOR_REV_MAP_BLOBBY_STIM/285946.bmp_pp79_L2_V1.0_veridical_freeview_isoTrue_fps144_reversed_REAL.mp4",""
"","","","call-function","221","522677","0.0-221.0","q2nkmydt","","","","","","","",""
"1835.125","{""judgement"":0}","[0]","survey-likert","222","524513","0.0-222.0","q2nkmydt","","","","","","","","0"
"2223.25","{""confidence"":1}","[0]","survey-likert","223","526737","0.0-223.0","q2nkmydt","","","","","","","",""
"","","","call-function","224","526738","0.0-224.0","q2nkmydt","","","","","","","",""
"null","","","html-keyboard-response","225","528239","0.0-225.0","q2nkmydt","","<span style=""color:Black; font-size:50px;"">Agent A","null","","","","",""
"null","","","video-keyboard-response","226","531001","0.0-226.0","q2nkmydt","","","null","","Agent A","veridical","FOR_REV_MAP_BLOBBY_STIM/1159325.bmp_pp67_L2_V1.0_veridical_freeview_isoTrue_fps144.mp4",""
"null","","","html-keyboard-response","227","532503","0.0-227.0","q2nkmydt","","<span style=""color:Black; font-size:50px;"">Agent B","null","","","","",""
"null","","","video-keyboard-response","228","535266","0.0-228.0","q2nkmydt","","","null","","Agent B","scrambled","FOR_REV_MAP_BLOBBY_STIM/1159325.bmp_pp67_L2_V1.0_veridical_freeview_isoTrue_fps144_reversed_REAL.mp4",""
"","","","call-function","229","535266","0.0-229.0","q2nkmydt","","","","","","","",""
"1891.2149999999674","{""judgement"":0}","[0]","survey-likert","230","537158","0.0-230.0","q2nkmydt","","","","","","","","0"
"1277.7299999999814","{""confidence"":0}","[0]","survey-likert","231","538437","0.0-231.0","q2nkmydt","","","","","","","",""
"","","","call-function","232","538438","0.0-232.0","q2nkmydt","","","","","","","",""
"null","","","html-keyboard-response","233","539939","0.0-233.0","q2nkmydt","","<span style=""color:Black; font-size:50px;"">Agent A","null","","","","",""
"null","","","video-keyboard-response","234","542751","0.0-234.0","q2nkmydt","","","null","","Agent A","veridical","FOR_REV_MAP_BLOBBY_STIM/713689.bmp_pp153_L3_V1.0_veridical_freeview_isoTrue_fps144.mp4",""
"null","","","html-keyboard-response","235","544257","0.0-235.0","q2nkmydt","","<span style=""color:Black; font-size:50px;"">Agent B","null","","","","",""
"null","","","video-keyboard-response","236","547069","0.0-236.0","q2nkmydt","","","null","","Agent B","scrambled","FOR_REV_MAP_BLOBBY_STIM/713689.bmp_pp153_L3_V1.0_veridical_freeview_isoTrue_fps144_reversed_REAL.mp4",""
"","","","call-function","237","547069","0.0-237.0","q2nkmydt","","","","","","","",""
"2409.6300000000047","{""judgement"":1}","[0]","survey-likert","238","549480","0.0-238.0","q2nkmydt","","","","","","","","0"
"1244.4649999999674","{""confidence"":0}","[0]","survey-likert","239","550725","0.0-239.0","q2nkmydt","","","","","","","",""
"","","","call-function","240","550726","0.0-240.0","q2nkmydt","","","","","","","",""
"null","","","html-keyboard-response","241","552230","0.0-241.0","q2nkmydt","","<span style=""color:Black; font-size:50px;"">Agent A","null","","","","",""
"null","","","video-keyboard-response","242","555041","0.0-242.0","q2nkmydt","","","null","","Agent A","scrambled","FOR_REV_MAP_BLOBBY_STIM/1592530.bmp_pp75_L1_V1.0_veridical_freeview_isoTrue_fps144_reversed_REAL.mp4",""
"null","","","html-keyboard-response","243","556546","0.0-243.0","q2nkmydt","","<span style=""color:Black; font-size:50px;"">Agent B","null","","","","",""
"null","","","video-keyboard-response","244","559359","0.0-244.0","q2nkmydt","","","null","","Agent B","veridical","FOR_REV_MAP_BLOBBY_STIM/1592530.bmp_pp75_L1_V1.0_veridical_freeview_isoTrue_fps144.mp4",""
"","","","call-function","245","559359","0.0-245.0","q2nkmydt","","","","","","","",""
"1907.1900000000605","{""judgement"":1}","[0]","survey-likert","246","561267","0.0-246.0","q2nkmydt","","","","","","","","1"
"1584.6900000000605","{""confidence"":1}","[0]","survey-likert","247","562853","0.0-247.0","q2nkmydt","","","","","","","",""
"","","","call-function","248","562853","0.0-248.0","q2nkmydt","","","","","","","",""
"null","","","html-keyboard-response","249","564354","0.0-249.0","q2nkmydt","","<span style=""color:Black; font-size:50px;"">Agent A","null","","","","",""
"null","","","video-keyboard-response","250","567118","0.0-250.0","q2nkmydt","","","null","","Agent A","veridical","FOR_REV_MAP_BLOBBY_STIM/150463.bmp_pp55_L3_V1.0_veridical_freeview_isoTrue_fps144.mp4",""
"null","","","html-keyboard-response","251","568619","0.0-251.0","q2nkmydt","","<span style=""color:Black; font-size:50px;"">Agent B","null","","","","",""
"null","","","video-keyboard-response","252","571379","0.0-252.0","q2nkmydt","","","null","","Agent B","scrambled","FOR_REV_MAP_BLOBBY_STIM/150463.bmp_pp55_L3_V1.0_veridical_freeview_isoTrue_fps144_reversed_REAL.mp4",""
"","","","call-function","253","571381","0.0-253.0","q2nkmydt","","","","","","","",""
"1426.2149999999674","{""judgement"":0}","[0]","survey-likert","254","572808","0.0-254.0","q2nkmydt","","","","","","","","0"
"1393.0100000000093","{""confidence"":1}","[0]","survey-likert","255","574202","0.0-255.0","q2nkmydt","","","","","","","",""
"32970.94000000006","","","instructions","256","607174","0.0-256.0","q2nkmydt","[{""page_index"":0,""viewing_time"":2596.6199999999953},{""page_index"":1,""viewing_time"":28947.14500000002},{""page_index"":2,""viewing_time"":1427.0250000000233}]","","","","","","",""
"4028.460000000079","","","instructions","257","611204","0.0-257.0","q2nkmydt","[{""page_index"":0,""viewing_time"":912.2750000000233},{""page_index"":1,""viewing_time"":2401.9799999999814},{""page_index"":2,""viewing_time"":714.1049999999814}]","","","","","","",""
"","","","call-function","258","611205","0.0-258.0","q2nkmydt","","","","","","","",""
"null","","","html-keyboard-response","259","612707","0.0-259.0","q2nkmydt","","<span style=""color:Black; font-size:50px;"">Agent A","null","","","","",""
"null","","","video-keyboard-response","260","615489","0.0-260.0","q2nkmydt","","","null","","Agent A","scrambled","FOR_REV_MAP_BLOBBY_STIM/286034.bmp_pp69_L3_V1.0_veridical_freeview_isoTrue_fps144_reversed_REAL.mp4",""
"null","","","html-keyboard-response","261","616993","0.0-261.0","q2nkmydt","","<span style=""color:Black; font-size:50px;"">Agent B","null","","","","",""
"null","","","video-keyboard-response","262","619776","0.0-262.0","q2nkmydt","","","null","","Agent B","veridical","FOR_REV_MAP_BLOBBY_STIM/286034.bmp_pp69_L3_V1.0_veridical_freeview_isoTrue_fps144.mp4",""
"","","","call-function","263","619776","0.0-263.0","q2nkmydt","","","","","","","",""
"1623.25","{""judgement"":1}","[0]","survey-likert","264","621400","0.0-264.0","q2nkmydt","","","","","","","","1"
"1133.2250000000931","{""confidence"":2}","[0]","survey-likert","265","622535","0.0-265.0","q2nkmydt","","","","","","","",""
"","","","call-function","266","622536","0.0-266.0","q2nkmydt","","","","","","","",""
"null","","","html-keyboard-response","267","624040","0.0-267.0","q2nkmydt","","<span style=""color:Black; font-size:50px;"">Agent A","null","","","","",""
"null","","","video-keyboard-response","268","626810","0.0-268.0","q2nkmydt","","","null","","Agent A","veridical","FOR_REV_MAP_BLOBBY_STIM/498372.bmp_pp95_L2_V1.0_veridical_freeview_isoTrue_fps144.mp4",""
"null","","","html-keyboard-response","269","628313","0.0-269.0","q2nkmydt","","<span style=""color:Black; font-size:50px;"">Agent B","null","","","","",""
"null","","","video-keyboard-response","270","631084","0.0-270.0","q2nkmydt","","","null","","Agent B","scrambled","FOR_REV_MAP_BLOBBY_STIM/498372.bmp_pp95_L2_V1.0_veridical_freeview_isoTrue_fps144_reversed_REAL.mp4",""
"","","","call-function","271","631085","0.0-271.0","q2nkmydt","","","","","","","",""
"1908.8699999999953","{""judgement"":0}","[0]","survey-likert","272","632994","0.0-272.0","q2nkmydt","","","","","","","","0"
"1827.7749999999069","{""confidence"":0}","[0]","survey-likert","273","634823","0.0-273.0","q2nkmydt","","","","","","","",""
"","","","call-function","274","634824","0.0-274.0","q2nkmydt","","","","","","","",""
"null","","","html-keyboard-response","275","636325","0.0-275.0","q2nkmydt","","<span style=""color:Black; font-size:50px;"">Agent A","null","","","","",""
"null","","","video-keyboard-response","276","639178","0.0-276.0","q2nkmydt","","","null","","Agent A","scrambled","FOR_REV_MAP_BLOBBY_STIM/713829.bmp_pp60_L3_V1.0_veridical_freeview_isoTrue_fps144_reversed_REAL.mp4",""
"null","","","html-keyboard-response","277","640683","0.0-277.0","q2nkmydt","","<span style=""color:Black; font-size:50px;"">Agent B","null","","","","",""
"null","","","video-keyboard-response","278","643519","0.0-278.0","q2nkmydt","","","null","","Agent B","veridical","FOR_REV_MAP_BLOBBY_STIM/713829.bmp_pp60_L3_V1.0_veridical_freeview_isoTrue_fps144.mp4",""
"","","","call-function","279","643519","0.0-279.0","q2nkmydt","","","","","","","",""
"1462.5600000000559","{""judgement"":0}","[0]","survey-likert","280","644983","0.0-280.0","q2nkmydt","","","","","","","","1"
"1731.6999999999534","{""confidence"":2}","[0]","survey-likert","281","646716","0.0-281.0","q2nkmydt","","","","","","","",""
"","","","call-function","282","646716","0.0-282.0","q2nkmydt","","","","","","","",""
"null","","","html-keyboard-response","283","648218","0.0-283.0","q2nkmydt","","<span style=""color:Black; font-size:50px;"">Agent A","null","","","","",""
"null","","","video-keyboard-response","284","650795","0.0-284.0","q2nkmydt","","","null","","Agent A","veridical","FOR_REV_MAP_BLOBBY_STIM/498398.bmp_pp81_L1_V1.0_veridical_freeview_isoTrue_fps144.mp4",""
"null","","","html-keyboard-response","285","652295","0.0-285.0","q2nkmydt","","<span style=""color:Black; font-size:50px;"">Agent B","null","","","","",""
"null","","","video-keyboard-response","286","654870","0.0-286.0","q2nkmydt","","","null","","Agent B","scrambled","FOR_REV_MAP_BLOBBY_STIM/498398.bmp_pp81_L1_V1.0_veridical_freeview_isoTrue_fps144_reversed_REAL.mp4",""
"","","","call-function","287","654870","0.0-287.0","q2nkmydt","","","","","","","",""
"1649.655000000028","{""judgement"":0}","[0]","survey-likert","288","656521","0.0-288.0","q2nkmydt","","","","","","","","0"
"1203.920000000042","{""confidence"":1}","[0]","survey-likert","289","657726","0.0-289.0","q2nkmydt","","","","","","","",""
"","","","call-function","290","657726","0.0-290.0","q2nkmydt","","","","","","","",""
"null","","","html-keyboard-response","291","659232","0.0-291.0","q2nkmydt","","<span style=""color:Black; font-size:50px;"">Agent A","null","","","","",""
"null","","","video-keyboard-response","292","661658","0.0-292.0","q2nkmydt","","","null","","Agent A","veridical","FOR_REV_MAP_BLOBBY_STIM/1592951.bmp_pp80_L3_V1.0_veridical_freeview_isoTrue_fps144.mp4",""
"null","","","html-keyboard-response","293","663163","0.0-293.0","q2nkmydt","","<span style=""color:Black; font-size:50px;"">Agent B","null","","","","",""
"null","","","video-keyboard-response","294","665590","0.0-294.0","q2nkmydt","","","null","","Agent B","scrambled","FOR_REV_MAP_BLOBBY_STIM/1592951.bmp_pp80_L3_V1.0_veridical_freeview_isoTrue_fps144_reversed_REAL.mp4",""
"","","","call-function","295","665591","0.0-295.0","q2nkmydt","","","","","","","",""
"1859.5350000000326","{""judgement"":1}","[0]","survey-likert","296","667451","0.0-296.0","q2nkmydt","","","","","","","","0"
"1050.9749999999767","{""confidence"":1}","[0]","survey-likert","297","668503","0.0-297.0","q2nkmydt","","","","","","","",""
"","","","call-function","298","668504","0.0-298.0","q2nkmydt","","","","","","","",""
"null","","","html-keyboard-response","299","670006","0.0-299.0","q2nkmydt","","<span style=""color:Black; font-size:50px;"">Agent A","null","","","","",""
"null","","","video-keyboard-response","300","672836","0.0-300.0","q2nkmydt","","","null","","Agent A","veridical","FOR_REV_MAP_BLOBBY_STIM/713381.bmp_pp82_L2_V1.0_veridical_freeview_isoTrue_fps144.mp4",""
"null","","","html-keyboard-response","301","674337","0.0-301.0","q2nkmydt","","<span style=""color:Black; font-size:50px;"">Agent B","null","","","","",""
"null","","","video-keyboard-response","302","677187","0.0-302.0","q2nkmydt","","","null","","Agent B","scrambled","FOR_REV_MAP_BLOBBY_STIM/713381.bmp_pp82_L2_V1.0_veridical_freeview_isoTrue_fps144_reversed_REAL.mp4",""
"","","","call-function","303","677188","0.0-303.0","q2nkmydt","","","","","","","",""
"1252.7399999999907","{""judgement"":1}","[0]","survey-likert","304","678442","0.0-304.0","q2nkmydt","","","","","","","","0"
"2719.2900000000373","{""confidence"":0}","[0]","survey-likert","305","681163","0.0-305.0","q2nkmydt","","","","","","","",""
"","","","call-function","306","681164","0.0-306.0","q2nkmydt","","","","","","","",""
"null","","","html-keyboard-response","307","682665","0.0-307.0","q2nkmydt","","<span style=""color:Black; font-size:50px;"">Agent A","null","","","","",""
"null","","","video-keyboard-response","308","684755","0.0-308.0","q2nkmydt","","","null","","Agent A","veridical","FOR_REV_MAP_BLOBBY_STIM/1159973.bmp_pp98_L1_V1.0_veridical_freeview_isoTrue_fps144.mp4",""
"null","","","html-keyboard-response","309","686258","0.0-309.0","q2nkmydt","","<span style=""color:Black; font-size:50px;"">Agent B","null","","","","",""
"null","","","video-keyboard-response","310","688344","0.0-310.0","q2nkmydt","","","null","","Agent B","scrambled","FOR_REV_MAP_BLOBBY_STIM/1159973.bmp_pp98_L1_V1.0_veridical_freeview_isoTrue_fps144_reversed_REAL.mp4",""
"","","","call-function","311","688345","0.0-311.0","q2nkmydt","","","","","","","",""
"1656.0400000000373","{""judgement"":0}","[0]","survey-likert","312","690002","0.0-312.0","q2nkmydt","","","","","","","","0"
"1447.2550000000047","{""confidence"":2}","[0]","survey-likert","313","691450","0.0-313.0","q2nkmydt","","","","","","","",""
"","","","call-function","314","691451","0.0-314.0","q2nkmydt","","","","","","","",""
"null","","","html-keyboard-response","315","692953","0.0-315.0","q2nkmydt","","<span style=""color:Black; font-size:50px;"">Agent A","null","","","","",""
"null","","","video-keyboard-response","316","695758","0.0-316.0","q2nkmydt","","","null","","Agent A","veridical","FOR_REV_MAP_BLOBBY_STIM/713770.bmp_pp89_L1_V1.0_veridical_freeview_isoTrue_fps144.mp4",""
"null","","","html-keyboard-response","317","697260","0.0-317.0","q2nkmydt","","<span style=""color:Black; font-size:50px;"">Agent B","null","","","","",""
"null","","","video-keyboard-response","318","700063","0.0-318.0","q2nkmydt","","","null","","Agent B","scrambled","FOR_REV_MAP_BLOBBY_STIM/713770.bmp_pp89_L1_V1.0_veridical_freeview_isoTrue_fps144_reversed_REAL.mp4",""
"","","","call-function","319","700064","0.0-319.0","q2nkmydt","","","","","","","",""
"1774.8499999999767","{""judgement"":1}","[0]","survey-likert","320","701839","0.0-320.0","q2nkmydt","","","","","","","","0"
"1004.8150000000605","{""confidence"":1}","[0]","survey-likert","321","702845","0.0-321.0","q2nkmydt","","","","","","","",""
"","","","call-function","322","702846","0.0-322.0","q2nkmydt","","","","","","","",""
"null","","","html-keyboard-response","323","704351","0.0-323.0","q2nkmydt","","<span style=""color:Black; font-size:50px;"">Agent A","null","","","","",""
"null","","","video-keyboard-response","324","707119","0.0-324.0","q2nkmydt","","","null","","Agent A","scrambled","FOR_REV_MAP_BLOBBY_STIM/1592168.bmp_pp71_L1_V1.0_veridical_freeview_isoTrue_fps144_reversed_REAL.mp4",""
"null","","","html-keyboard-response","325","708623","0.0-325.0","q2nkmydt","","<span style=""color:Black; font-size:50px;"">Agent B","null","","","","",""
"null","","","video-keyboard-response","326","711382","0.0-326.0","q2nkmydt","","","null","","Agent B","veridical","FOR_REV_MAP_BLOBBY_STIM/1592168.bmp_pp71_L1_V1.0_veridical_freeview_isoTrue_fps144.mp4",""
"","","","call-function","327","711382","0.0-327.0","q2nkmydt","","","","","","","",""
"1449.1450000000186","{""judgement"":0}","[0]","survey-likert","328","712832","0.0-328.0","q2nkmydt","","","","","","","","1"
"1098.8099999999395","{""confidence"":1}","[0]","survey-likert","329","713932","0.0-329.0","q2nkmydt","","","","","","","",""
"","","","call-function","330","713933","0.0-330.0","q2nkmydt","","","","","","","",""
"null","","","html-keyboard-response","331","715434","0.0-331.0","q2nkmydt","","<span style=""color:Black; font-size:50px;"">Agent A","null","","","","",""
"null","","","video-keyboard-response","332","718218","0.0-332.0","q2nkmydt","","","null","","Agent A","scrambled","FOR_REV_MAP_BLOBBY_STIM/1159860.bmp_pp152_L2_V1.0_veridical_freeview_isoTrue_fps144_reversed_REAL.mp4",""
"null","","","html-keyboard-response","333","719720","0.0-333.0","q2nkmydt","","<span style=""color:Black; font-size:50px;"">Agent B","null","","","","",""
"null","","","video-keyboard-response","334","722499","0.0-334.0","q2nkmydt","","","null","","Agent B","veridical","FOR_REV_MAP_BLOBBY_STIM/1159860.bmp_pp152_L2_V1.0_veridical_freeview_isoTrue_fps144.mp4",""
"","","","call-function","335","722499","0.0-335.0","q2nkmydt","","","","","","","",""
"3167.1199999999953","{""judgement"":1}","[0]","survey-likert","336","725667","0.0-336.0","q2nkmydt","","","","","","","","1"
"2307.2399999999907","{""confidence"":0}","[0]","survey-likert","337","727975","0.0-337.0","q2nkmydt","","","","","","","",""
"51747.72499999998","","","instructions","338","779724","0.0-338.0","q2nkmydt","[{""page_index"":0,""viewing_time"":1992.6350000000093},{""page_index"":1,""viewing_time"":49258},{""page_index"":2,""viewing_time"":496.93499999993946}]","","","","","","",""
"1357.515000000014","","","instructions","339","781082","0.0-339.0","q2nkmydt","[{""page_index"":0,""viewing_time"":341.4649999999674},{""page_index"":1,""viewing_time"":368.0700000000652},{""page_index"":2,""viewing_time"":647.875}]","","","","","","",""
"","","","call-function","340","781082","0.0-340.0","q2nkmydt","","","","","","","",""
"null","","","html-keyboard-response","341","782583","0.0-341.0","q2nkmydt","","<span style=""color:Black; font-size:50px;"">Agent A","null","","","","",""
"null","","","video-keyboard-response","342","785316","0.0-342.0","q2nkmydt","","","null","","Agent A","scrambled","FOR_REV_MAP_BLOBBY_STIM/1159819.bmp_pp151_L1_V1.0_veridical_freeview_isoTrue_fps144_reversed_REAL.mp4",""
"null","","","html-keyboard-response","343","786822","0.0-343.0","q2nkmydt","","<span style=""color:Black; font-size:50px;"">Agent B","null","","","","",""
"null","","","video-keyboard-response","344","789556","0.0-344.0","q2nkmydt","","","null","","Agent B","veridical","FOR_REV_MAP_BLOBBY_STIM/1159819.bmp_pp151_L1_V1.0_veridical_freeview_isoTrue_fps144.mp4",""
"","","","call-function","345","789556","0.0-345.0","q2nkmydt","","","","","","","",""
"3547.7850000000326","{""judgement"":0}","[0]","survey-likert","346","793105","0.0-346.0","q2nkmydt","","","","","","","","1"
"1559.3399999999674","{""confidence"":0}","[0]","survey-likert","347","794665","0.0-347.0","q2nkmydt","","","","","","","",""
"","","","call-function","348","794666","0.0-348.0","q2nkmydt","","","","","","","",""
"null","","","html-keyboard-response","349","796170","0.0-349.0","q2nkmydt","","<span style=""color:Black; font-size:50px;"">Agent A","null","","","","",""
"null","","","video-keyboard-response","350","798960","0.0-350.0","q2nkmydt","","","null","","Agent A","scrambled","FOR_REV_MAP_BLOBBY_STIM/1591781.bmp_pp63_L1_V1.0_veridical_freeview_isoTrue_fps144_reversed_REAL.mp4",""
"null","","","html-keyboard-response","351","800461","0.0-351.0","q2nkmydt","","<span style=""color:Black; font-size:50px;"">Agent B","null","","","","",""
"null","","","video-keyboard-response","352","803250","0.0-352.0","q2nkmydt","","","null","","Agent B","veridical","FOR_REV_MAP_BLOBBY_STIM/1591781.bmp_pp63_L1_V1.0_veridical_freeview_isoTrue_fps144.mp4",""
"","","","call-function","353","803250","0.0-353.0","q2nkmydt","","","","","","","",""
"2260.194999999949","{""judgement"":1}","[0]","survey-likert","354","805511","0.0-354.0","q2nkmydt","","","","","","","","1"
"1122.7949999999255","{""confidence"":1}","[0]","survey-likert","355","806635","0.0-355.0","q2nkmydt","","","","","","","",""
"","","","call-function","356","806636","0.0-356.0","q2nkmydt","","","","","","","",""
"null","","","html-keyboard-response","357","808138","0.0-357.0","q2nkmydt","","<span style=""color:Black; font-size:50px;"">Agent A","null","","","","",""
"null","","","video-keyboard-response","358","810962","0.0-358.0","q2nkmydt","","","null","","Agent A","scrambled","FOR_REV_MAP_BLOBBY_STIM/1592314.bmp_pp100_L3_V1.0_veridical_freeview_isoTrue_fps144_reversed_REAL.mp4",""
"null","","","html-keyboard-response","359","812468","0.0-359.0","q2nkmydt","","<span style=""color:Black; font-size:50px;"">Agent B","null","","","","",""
"null","","","video-keyboard-response","360","815271","0.0-360.0","q2nkmydt","","","null","","Agent B","veridical","FOR_REV_MAP_BLOBBY_STIM/1592314.bmp_pp100_L3_V1.0_veridical_freeview_isoTrue_fps144.mp4",""
"","","","call-function","361","815272","0.0-361.0","q2nkmydt","","","","","","","",""
"2044.1149999999907","{""judgement"":1}","[0]","survey-likert","362","817318","0.0-362.0","q2nkmydt","","","","","","","","1"
"1167.3200000000652","{""confidence"":1}","[0]","survey-likert","363","818487","0.0-363.0","q2nkmydt","","","","","","","",""
"","","","call-function","364","818488","0.0-364.0","q2nkmydt","","","","","","","",""
"null","","","html-keyboard-response","365","819994","0.0-365.0","q2nkmydt","","<span style=""color:Black; font-size:50px;"">Agent A","null","","","","",""
"null","","","video-keyboard-response","366","822848","0.0-366.0","q2nkmydt","","","null","","Agent A","scrambled","FOR_REV_MAP_BLOBBY_STIM/1160189.bmp_pp64_L1_V1.0_veridical_freeview_isoTrue_fps144_reversed_REAL.mp4",""
"null","","","html-keyboard-response","367","824349","0.0-367.0","q2nkmydt","","<span style=""color:Black; font-size:50px;"">Agent B","null","","","","",""
"null","","","video-keyboard-response","368","827201","0.0-368.0","q2nkmydt","","","null","","Agent B","veridical","FOR_REV_MAP_BLOBBY_STIM/1160189.bmp_pp64_L1_V1.0_veridical_freeview_isoTrue_fps144.mp4",""
"","","","call-function","369","827202","0.0-369.0","q2nkmydt","","","","","","","",""
"2486.3499999999767","{""judgement"":1}","[0]","survey-likert","370","829690","0.0-370.0","q2nkmydt","","","","","","","","1"
"1955.6850000000559","{""confidence"":2}","[0]","survey-likert","371","831647","0.0-371.0","q2nkmydt","","","","","","","",""
"","","","call-function","372","831647","0.0-372.0","q2nkmydt","","","","","","","",""
"null","","","html-keyboard-response","373","833151","0.0-373.0","q2nkmydt","","<span style=""color:Black; font-size:50px;"">Agent A","null","","","","",""
"null","","","video-keyboard-response","374","835909","0.0-374.0","q2nkmydt","","","null","","Agent A","scrambled","FOR_REV_MAP_BLOBBY_STIM/1592298.bmp_pp56_L3_V1.0_veridical_freeview_isoTrue_fps144_reversed_REAL.mp4",""
"null","","","html-keyboard-response","375","837410","0.0-375.0","q2nkmydt","","<span style=""color:Black; font-size:50px;"">Agent B","null","","","","",""
"null","","","video-keyboard-response","376","840163","0.0-376.0","q2nkmydt","","","null","","Agent B","veridical","FOR_REV_MAP_BLOBBY_STIM/1592298.bmp_pp56_L3_V1.0_veridical_freeview_isoTrue_fps144.mp4",""
"","","","call-function","377","840163","0.0-377.0","q2nkmydt","","","","","","","",""
"2249.9100000000326","{""judgement"":1}","[0]","survey-likert","378","842414","0.0-378.0","q2nkmydt","","","","","","","","1"
"1701.329999999958","{""confidence"":2}","[0]","survey-likert","379","844117","0.0-379.0","q2nkmydt","","","","","","","",""
"","","","call-function","380","844117","0.0-380.0","q2nkmydt","","","","","","","",""
"null","","","html-keyboard-response","381","845620","0.0-381.0","q2nkmydt","","<span style=""color:Black; font-size:50px;"">Agent A","null","","","","",""
"null","","","video-keyboard-response","382","848437","0.0-382.0","q2nkmydt","","","null","","Agent A","scrambled","FOR_REV_MAP_BLOBBY_STIM/498258.bmp_pp51_L1_V1.0_veridical_freeview_isoTrue_fps144_reversed_REAL.mp4",""
"null","","","html-keyboard-response","383","849939","0.0-383.0","q2nkmydt","","<span style=""color:Black; font-size:50px;"">Agent B","null","","","","",""
"null","","","video-keyboard-response","384","852745","0.0-384.0","q2nkmydt","","","null","","Agent B","veridical","FOR_REV_MAP_BLOBBY_STIM/498258.bmp_pp51_L1_V1.0_veridical_freeview_isoTrue_fps144.mp4",""
"","","","call-function","385","852746","0.0-385.0","q2nkmydt","","","","","","","",""
"2234.365000000107","{""judgement"":1}","[0]","survey-likert","386","854982","0.0-386.0","q2nkmydt","","","","","","","","1"
"1462.1350000000093","{""confidence"":2}","[0]","survey-likert","387","856445","0.0-387.0","q2nkmydt","","","","","","","",""
"","","","call-function","388","856446","0.0-388.0","q2nkmydt","","","","","","","",""
"null","","","html-keyboard-response","389","857951","0.0-389.0","q2nkmydt","","<span style=""color:Black; font-size:50px;"">Agent A","null","","","","",""
"null","","","video-keyboard-response","390","860775","0.0-390.0","q2nkmydt","","","null","","Agent A","veridical","FOR_REV_MAP_BLOBBY_STIM/713920.bmp_pp76_L1_V1.0_veridical_freeview_isoTrue_fps144.mp4",""
"null","","","html-keyboard-response","391","862279","0.0-391.0","q2nkmydt","","<span style=""color:Black; font-size:50px;"">Agent B","null","","","","",""
"null","","","video-keyboard-response","392","865101","0.0-392.0","q2nkmydt","","","null","","Agent B","scrambled","FOR_REV_MAP_BLOBBY_STIM/713920.bmp_pp76_L1_V1.0_veridical_freeview_isoTrue_fps144_reversed_REAL.mp4",""
"","","","call-function","393","865101","0.0-393.0","q2nkmydt","","","","","","","",""
"1784.1300000000047","{""judgement"":0}","[0]","survey-likert","394","866886","0.0-394.0","q2nkmydt","","","","","","","","0"
"2018.1049999999814","{""confidence"":2}","[0]","survey-likert","395","868906","0.0-395.0","q2nkmydt","","","","","","","",""
"","","","call-function","396","868906","0.0-396.0","q2nkmydt","","","","","","","",""
"null","","","html-keyboard-response","397","870408","0.0-397.0","q2nkmydt","","<span style=""color:Black; font-size:50px;"">Agent A","null","","","","",""
"null","","","video-keyboard-response","398","873153","0.0-398.0","q2nkmydt","","","null","","Agent A","scrambled","FOR_REV_MAP_BLOBBY_STIM/285959.bmp_pp93_L1_V1.0_veridical_freeview_isoTrue_fps144_reversed_REAL.mp4",""
"null","","","html-keyboard-response","399","874655","0.0-399.0","q2nkmydt","","<span style=""color:Black; font-size:50px;"">Agent B","null","","","","",""
"null","","","video-keyboard-response","400","877393","0.0-400.0","q2nkmydt","","","null","","Agent B","veridical","FOR_REV_MAP_BLOBBY_STIM/285959.bmp_pp93_L1_V1.0_veridical_freeview_isoTrue_fps144.mp4",""
"","","","call-function","401","877394","0.0-401.0","q2nkmydt","","","","","","","",""
"1469.420000000042","{""judgement"":1}","[0]","survey-likert","402","878864","0.0-402.0","q2nkmydt","","","","","","","","1"
"861.3150000000605","{""confidence"":1}","[0]","survey-likert","403","879726","0.0-403.0","q2nkmydt","","","","","","","",""
"","","","call-function","404","879727","0.0-404.0","q2nkmydt","","","","","","","",""
"null","","","html-keyboard-response","405","881233","0.0-405.0","q2nkmydt","","<span style=""color:Black; font-size:50px;"">Agent A","null","","","","",""
"null","","","video-keyboard-response","406","884005","0.0-406.0","q2nkmydt","","","null","","Agent A","scrambled","FOR_REV_MAP_BLOBBY_STIM/1592747.bmp_pp53_L2_V1.0_veridical_freeview_isoTrue_fps144_reversed_REAL.mp4",""
"null","","","html-keyboard-response","407","885513","0.0-407.0","q2nkmydt","","<span style=""color:Black; font-size:50px;"">Agent B","null","","","","",""
"null","","","video-keyboard-response","408","888269","0.0-408.0","q2nkmydt","","","null","","Agent B","veridical","FOR_REV_MAP_BLOBBY_STIM/1592747.bmp_pp53_L2_V1.0_veridical_freeview_isoTrue_fps144.mp4",""
"","","","call-function","409","888270","0.0-409.0","q2nkmydt","","","","","","","",""
"3869.359999999986","{""judgement"":0}","[0]","survey-likert","410","892141","0.0-410.0","q2nkmydt","","","","","","","","1"
"1404.9399999999441","{""confidence"":0}","[0]","survey-likert","411","893547","0.0-411.0","q2nkmydt","","","","","","","",""
"","","","call-function","412","893548","0.0-412.0","q2nkmydt","","","","","","","",""
"null","","","html-keyboard-response","413","895049","0.0-413.0","q2nkmydt","","<span style=""color:Black; font-size:50px;"">Agent A","null","","","","",""
"null","","","video-keyboard-response","414","897722","0.0-414.0","q2nkmydt","","","null","","Agent A","scrambled","FOR_REV_MAP_BLOBBY_STIM/713788.bmp_pp52_L1_V1.0_veridical_freeview_isoTrue_fps144_reversed_REAL.mp4",""
"null","","","html-keyboard-response","415","899225","0.0-415.0","q2nkmydt","","<span style=""color:Black; font-size:50px;"">Agent B","null","","","","",""
"null","","","video-keyboard-response","416","901897","0.0-416.0","q2nkmydt","","","null","","Agent B","veridical","FOR_REV_MAP_BLOBBY_STIM/713788.bmp_pp52_L1_V1.0_veridical_freeview_isoTrue_fps144.mp4",""
"","","","call-function","417","901898","0.0-417.0","q2nkmydt","","","","","","","",""
"2659.0250000000233","{""judgement"":0}","[0]","survey-likert","418","904558","0.0-418.0","q2nkmydt","","","","","","","","1"
"1282.0849999999627","{""confidence"":0}","[0]","survey-likert","419","905841","0.0-419.0","q2nkmydt","","","","","","","",""
"72573.7250000001","","","instructions","420","978415","0.0-420.0","q2nkmydt","[{""page_index"":0,""viewing_time"":71710.40500000003},{""page_index"":1,""viewing_time"":471.98499999998603},{""page_index"":2,""viewing_time"":391.1800000000512}]","","","","","","",""
"1108.3149999999441","","","instructions","421","979524","0.0-421.0","q2nkmydt","[{""page_index"":0,""viewing_time"":306.17499999993015},{""page_index"":1,""viewing_time"":370.32500000006985},{""page_index"":2,""viewing_time"":431.69999999995343}]","","","","","","",""
"","","","call-function","422","979524","0.0-422.0","q2nkmydt","","","","","","","",""
"null","","","html-keyboard-response","423","981025","0.0-423.0","q2nkmydt","","<span style=""color:Black; font-size:50px;"">Agent A","null","","","","",""
"null","","","video-keyboard-response","424","983780","0.0-424.0","q2nkmydt","","","null","","Agent A","veridical","FOR_REV_MAP_BLOBBY_STIM/1592017.bmp_pp154_L1_V1.0_veridical_freeview_isoTrue_fps144.mp4",""
"null","","","html-keyboard-response","425","985285","0.0-425.0","q2nkmydt","","<span style=""color:Black; font-size:50px;"">Agent B","null","","","","",""
"null","","","video-keyboard-response","426","988042","0.0-426.0","q2nkmydt","","","null","","Agent B","scrambled","FOR_REV_MAP_BLOBBY_STIM/1592017.bmp_pp154_L1_V1.0_veridical_freeview_isoTrue_fps144_reversed_REAL.mp4",""
"","","","call-function","427","988042","0.0-427.0","q2nkmydt","","","","","","","",""
"1947.375","{""judgement"":1}","[0]","survey-likert","428","989990","0.0-428.0","q2nkmydt","","","","","","","","0"
"942.5300000000279","{""confidence"":1}","[0]","survey-likert","429","990934","0.0-429.0","q2nkmydt","","","","","","","",""
"","","","call-function","430","990935","0.0-430.0","q2nkmydt","","","","","","","",""
"null","","","html-keyboard-response","431","992437","0.0-431.0","q2nkmydt","","<span style=""color:Black; font-size:50px;"">Agent A","null","","","","",""
"null","","","video-keyboard-response","432","995236","0.0-432.0","q2nkmydt","","","null","","Agent A","veridical","FOR_REV_MAP_BLOBBY_STIM/1592921.bmp_pp69_L3_V1.0_veridical_freeview_isoTrue_fps144.mp4",""
"null","","","html-keyboard-response","433","996737","0.0-433.0","q2nkmydt","","<span style=""color:Black; font-size:50px;"">Agent B","null","","","","",""
"null","","","video-keyboard-response","434","999533","0.0-434.0","q2nkmydt","","","null","","Agent B","scrambled","FOR_REV_MAP_BLOBBY_STIM/1592921.bmp_pp69_L3_V1.0_veridical_freeview_isoTrue_fps144_reversed_REAL.mp4",""
"","","","call-function","435","999534","0.0-435.0","q2nkmydt","","","","","","","",""
"1325.0399999999208","{""judgement"":0}","[0]","survey-likert","436","1000860","0.0-436.0","q2nkmydt","","","","","","","","0"
"907.7800000000279","{""confidence"":1}","[0]","survey-likert","437","1001769","0.0-437.0","q2nkmydt","","","","","","","",""
"","","","call-function","438","1001769","0.0-438.0","q2nkmydt","","","","","","","",""
"null","","","html-keyboard-response","439","1003276","0.0-439.0","q2nkmydt","","<span style=""color:Black; font-size:50px;"">Agent A","null","","","","",""
"null","","","video-keyboard-response","440","1006095","0.0-440.0","q2nkmydt","","","null","","Agent A","veridical","FOR_REV_MAP_BLOBBY_STIM/713652.bmp_pp89_L1_V1.0_veridical_freeview_isoTrue_fps144.mp4",""
"null","","","html-keyboard-response","441","1007598","0.0-441.0","q2nkmydt","","<span style=""color:Black; font-size:50px;"">Agent B","null","","","","",""
"null","","","video-keyboard-response","442","1010405","0.0-442.0","q2nkmydt","","","null","","Agent B","scrambled","FOR_REV_MAP_BLOBBY_STIM/713652.bmp_pp89_L1_V1.0_veridical_freeview_isoTrue_fps144_reversed_REAL.mp4",""
"","","","call-function","443","1010405","0.0-443.0","q2nkmydt","","","","","","","",""
"1393.280000000028","{""judgement"":0}","[0]","survey-likert","444","1011800","0.0-444.0","q2nkmydt","","","","","","","","0"
"1329.7100000000792","{""confidence"":1}","[0]","survey-likert","445","1013130","0.0-445.0","q2nkmydt","","","","","","","",""
"","","","call-function","446","1013131","0.0-446.0","q2nkmydt","","","","","","","",""
"null","","","html-keyboard-response","447","1014637","0.0-447.0","q2nkmydt","","<span style=""color:Black; font-size:50px;"">Agent A","null","","","","",""
"null","","","video-keyboard-response","448","1017424","0.0-448.0","q2nkmydt","","","null","","Agent A","veridical","FOR_REV_MAP_BLOBBY_STIM/1592567.bmp_pp70_L2_V1.0_veridical_freeview_isoTrue_fps144.mp4",""
"null","","","html-keyboard-response","449","1018928","0.0-449.0","q2nkmydt","","<span style=""color:Black; font-size:50px;"">Agent B","null","","","","",""
"null","","","video-keyboard-response","450","1021716","0.0-450.0","q2nkmydt","","","null","","Agent B","scrambled","FOR_REV_MAP_BLOBBY_STIM/1592567.bmp_pp70_L2_V1.0_veridical_freeview_isoTrue_fps144_reversed_REAL.mp4",""
"","","","call-function","451","1021717","0.0-451.0","q2nkmydt","","","","","","","",""
"1560.1600000000326","{""judgement"":0}","[0]","survey-likert","452","1023278","0.0-452.0","q2nkmydt","","","","","","","","0"
"1476.9949999999953","{""confidence"":2}","[0]","survey-likert","453","1024756","0.0-453.0","q2nkmydt","","","","","","","",""
"","","","call-function","454","1024756","0.0-454.0","q2nkmydt","","","","","","","",""
"null","","","html-keyboard-response","455","1026262","0.0-455.0","q2nkmydt","","<span style=""color:Black; font-size:50px;"">Agent A","null","","","","",""
"null","","","video-keyboard-response","456","1028974","0.0-456.0","q2nkmydt","","","null","","Agent A","scrambled","FOR_REV_MAP_BLOBBY_STIM/1159427.bmp_pp98_L1_V1.0_veridical_freeview_isoTrue_fps144_reversed_REAL.mp4",""
"null","","","html-keyboard-response","457","1030476","0.0-457.0","q2nkmydt","","<span style=""color:Black; font-size:50px;"">Agent B","null","","","","",""
"null","","","video-keyboard-response","458","1033188","0.0-458.0","q2nkmydt","","","null","","Agent B","veridical","FOR_REV_MAP_BLOBBY_STIM/1159427.bmp_pp98_L1_V1.0_veridical_freeview_isoTrue_fps144.mp4",""
"","","","call-function","459","1033189","0.0-459.0","q2nkmydt","","","","","","","",""
"1622.8850000000093","{""judgement"":1}","[0]","survey-likert","460","1034812","0.0-460.0","q2nkmydt","","","","","","","","1"
"1073.2850000000326","{""confidence"":2}","[0]","survey-likert","461","1035887","0.0-461.0","q2nkmydt","","","","","","","",""
"","","","call-function","462","1035887","0.0-462.0","q2nkmydt","","","","","","","",""
"null","","","html-keyboard-response","463","1037394","0.0-463.0","q2nkmydt","","<span style=""color:Black; font-size:50px;"">Agent A","null","","","","",""
"null","","","video-keyboard-response","464","1040084","0.0-464.0","q2nkmydt","","","null","","Agent A","scrambled","FOR_REV_MAP_BLOBBY_STIM/1592038.bmp_pp79_L2_V1.0_veridical_freeview_isoTrue_fps144_reversed_REAL.mp4",""
"null","","","html-keyboard-response","465","1041588","0.0-465.0","q2nkmydt","","<span style=""color:Black; font-size:50px;"">Agent B","null","","","","",""
"null","","","video-keyboard-response","466","1044280","0.0-466.0","q2nkmydt","","","null","","Agent B","veridical","FOR_REV_MAP_BLOBBY_STIM/1592038.bmp_pp79_L2_V1.0_veridical_freeview_isoTrue_fps144.mp4",""
"","","","call-function","467","1044282","0.0-467.0","q2nkmydt","","","","","","","",""
"2473.060000000056","{""judgement"":0}","[0]","survey-likert","468","1046756","0.0-468.0","q2nkmydt","","","","","","","","1"
"1084.2750000000233","{""confidence"":2}","[0]","survey-likert","469","1047842","0.0-469.0","q2nkmydt","","","","","","","",""
"","","","call-function","470","1047843","0.0-470.0","q2nkmydt","","","","","","","",""
"null","","","html-keyboard-response","471","1049350","0.0-471.0","q2nkmydt","","<span style=""color:Black; font-size:50px;"">Agent A","null","","","","",""
"null","","","video-keyboard-response","472","1052196","0.0-472.0","q2nkmydt","","","null","","Agent A","veridical","FOR_REV_MAP_BLOBBY_STIM/1592201.bmp_pp97_L3_V1.0_veridical_freeview_isoTrue_fps144.mp4",""
"null","","","html-keyboard-response","473","1053702","0.0-473.0","q2nkmydt","","<span style=""color:Black; font-size:50px;"">Agent B","null","","","","",""
"null","","","video-keyboard-response","474","1056547","0.0-474.0","q2nkmydt","","","null","","Agent B","scrambled","FOR_REV_MAP_BLOBBY_STIM/1592201.bmp_pp97_L3_V1.0_veridical_freeview_isoTrue_fps144_reversed_REAL.mp4",""
"","","","call-function","475","1056548","0.0-475.0","q2nkmydt","","","","","","","",""
"1716.2249999998603","{""judgement"":0}","[0]","survey-likert","476","1058265","0.0-476.0","q2nkmydt","","","","","","","","0"
"2220.815000000177","{""confidence"":2}","[0]","survey-likert","477","1060487","0.0-477.0","q2nkmydt","","","","","","","",""
"","","","call-function","478","1060488","0.0-478.0","q2nkmydt","","","","","","","",""
"null","","","html-keyboard-response","479","1061989","0.0-479.0","q2nkmydt","","<span style=""color:Black; font-size:50px;"">Agent A","null","","","","",""
"null","","","video-keyboard-response","480","1064579","0.0-480.0","q2nkmydt","","","null","","Agent A","veridical","FOR_REV_MAP_BLOBBY_STIM/713633.bmp_pp58_L1_V1.0_veridical_freeview_isoTrue_fps144.mp4",""
"null","","","html-keyboard-response","481","1066083","0.0-481.0","q2nkmydt","","<span style=""color:Black; font-size:50px;"">Agent B","null","","","","",""
"null","","","video-keyboard-response","482","1068671","0.0-482.0","q2nkmydt","","","null","","Agent B","scrambled","FOR_REV_MAP_BLOBBY_STIM/713633.bmp_pp58_L1_V1.0_veridical_freeview_isoTrue_fps144_reversed_REAL.mp4",""
"","","","call-function","483","1068672","0.0-483.0","q2nkmydt","","","","","","","",""
"3980.8950000000186","{""judgement"":0}","[0]","survey-likert","484","1072654","0.0-484.0","q2nkmydt","","","","","","","","0"
"1362.1699999999255","{""confidence"":1}","[0]","survey-likert","485","1074017","0.0-485.0","q2nkmydt","","","","","","","",""
"","","","call-function","486","1074018","0.0-486.0","q2nkmydt","","","","","","","",""
"null","","","html-keyboard-response","487","1075518","0.0-487.0","q2nkmydt","","<span style=""color:Black; font-size:50px;"">Agent A","null","","","","",""
"null","","","video-keyboard-response","488","1078368","0.0-488.0","q2nkmydt","","","null","","Agent A","veridical","FOR_REV_MAP_BLOBBY_STIM/1160204.bmp_pp54_L2_V1.0_veridical_freeview_isoTrue_fps144.mp4",""
"null","","","html-keyboard-response","489","1079871","0.0-489.0","q2nkmydt","","<span style=""color:Black; font-size:50px;"">Agent B","null","","","","",""
"null","","","video-keyboard-response","490","1082708","0.0-490.0","q2nkmydt","","","null","","Agent B","scrambled","FOR_REV_MAP_BLOBBY_STIM/1160204.bmp_pp54_L2_V1.0_veridical_freeview_isoTrue_fps144_reversed_REAL.mp4",""
"","","","call-function","491","1082708","0.0-491.0","q2nkmydt","","","","","","","",""
"1718.625","{""judgement"":0}","[0]","survey-likert","492","1084428","0.0-492.0","q2nkmydt","","","","","","","","0"
"1345.8649999999907","{""confidence"":2}","[0]","survey-likert","493","1085775","0.0-493.0","q2nkmydt","","","","","","","",""
"","","","call-function","494","1085775","0.0-494.0","q2nkmydt","","","","","","","",""
"null","","","html-keyboard-response","495","1087279","0.0-495.0","q2nkmydt","","<span style=""color:Black; font-size:50px;"">Agent A","null","","","","",""
"null","","","video-keyboard-response","496","1090055","0.0-496.0","q2nkmydt","","","null","","Agent A","veridical","FOR_REV_MAP_BLOBBY_STIM/1592044.bmp_pp94_L2_V1.0_veridical_freeview_isoTrue_fps144.mp4",""
"null","","","html-keyboard-response","497","1091558","0.0-497.0","q2nkmydt","","<span style=""color:Black; font-size:50px;"">Agent B","null","","","","",""
"null","","","video-keyboard-response","498","1094334","0.0-498.0","q2nkmydt","","","null","","Agent B","scrambled","FOR_REV_MAP_BLOBBY_STIM/1592044.bmp_pp94_L2_V1.0_veridical_freeview_isoTrue_fps144_reversed_REAL.mp4",""
"","","","call-function","499","1094335","0.0-499.0","q2nkmydt","","","","","","","",""
"1739.8799999998882","{""judgement"":0}","[0]","survey-likert","500","1096076","0.0-500.0","q2nkmydt","","","","","","","","0"
"1461.1749999998137","{""confidence"":1}","[0]","survey-likert","501","1097538","0.0-501.0","q2nkmydt","","","","","","","",""
"3122.8799999998882","","","instructions","502","1100662","0.0-502.0","q2nkmydt","[{""page_index"":0,""viewing_time"":2557.445000000065},{""page_index"":1,""viewing_time"":391.96999999997206},{""page_index"":2,""viewing_time"":173.29999999981374}]","","","","","","",""
"1161.0849999999627","","","instructions","503","1101823","0.0-503.0","q2nkmydt","[{""page_index"":0,""viewing_time"":289.8149999999441},{""page_index"":1,""viewing_time"":419.0800000000745},{""page_index"":2,""viewing_time"":452.08499999996275}]","","","","","","",""
"","","","call-function","504","1101824","0.0-504.0","q2nkmydt","","","","","","","",""
"null","","","html-keyboard-response","505","1103328","0.0-505.0","q2nkmydt","","<span style=""color:Black; font-size:50px;"">Agent A","null","","","","",""
"null","","","video-keyboard-response","506","1106117","0.0-506.0","q2nkmydt","","","null","","Agent A","veridical","FOR_REV_MAP_BLOBBY_STIM/1592289.bmp_pp92_L3_V1.0_veridical_freeview_isoTrue_fps144.mp4",""
"null","","","html-keyboard-response","507","1107620","0.0-507.0","q2nkmydt","","<span style=""color:Black; font-size:50px;"">Agent B","null","","","","",""
"null","","","video-keyboard-response","508","1110410","0.0-508.0","q2nkmydt","","","null","","Agent B","scrambled","FOR_REV_MAP_BLOBBY_STIM/1592289.bmp_pp92_L3_V1.0_veridical_freeview_isoTrue_fps144_reversed_REAL.mp4",""
"","","","call-function","509","1110411","0.0-509.0","q2nkmydt","","","","","","","",""
"2436.6450000000186","{""judgement"":1}","[0]","survey-likert","510","1112848","0.0-510.0","q2nkmydt","","","","","","","","0"
"1609.6799999999348","{""confidence"":1}","[0]","survey-likert","511","1114459","0.0-511.0","q2nkmydt","","","","","","","",""
"","","","call-function","512","1114460","0.0-512.0","q2nkmydt","","","","","","","",""
"null","","","html-keyboard-response","513","1115966","0.0-513.0","q2nkmydt","","<span style=""color:Black; font-size:50px;"">Agent A","null","","","","",""
"null","","","video-keyboard-response","514","1118569","0.0-514.0","q2nkmydt","","","null","","Agent A","veridical","FOR_REV_MAP_BLOBBY_STIM/1159874.bmp_pp96_L2_V1.0_veridical_freeview_isoTrue_fps144.mp4",""
"null","","","html-keyboard-response","515","1120070","0.0-515.0","q2nkmydt","","<span style=""color:Black; font-size:50px;"">Agent B","null","","","","",""
"null","","","video-keyboard-response","516","1122671","0.0-516.0","q2nkmydt","","","null","","Agent B","scrambled","FOR_REV_MAP_BLOBBY_STIM/1159874.bmp_pp96_L2_V1.0_veridical_freeview_isoTrue_fps144_reversed_REAL.mp4",""
"","","","call-function","517","1122672","0.0-517.0","q2nkmydt","","","","","","","",""
"2478.375","{""judgement"":0}","[0]","survey-likert","518","1125151","0.0-518.0","q2nkmydt","","","","","","","","0"
"1529.7250000000931","{""confidence"":2}","[0]","survey-likert","519","1126682","0.0-519.0","q2nkmydt","","","","","","","",""
"","","","call-function","520","1126682","0.0-520.0","q2nkmydt","","","","","","","",""
"null","","","html-keyboard-response","521","1128188","0.0-521.0","q2nkmydt","","<span style=""color:Black; font-size:50px;"">Agent A","null","","","","",""
"null","","","video-keyboard-response","522","1130956","0.0-522.0","q2nkmydt","","","null","","Agent A","scrambled","FOR_REV_MAP_BLOBBY_STIM/1160049.bmp_pp53_L2_V1.0_veridical_freeview_isoTrue_fps144_reversed_REAL.mp4",""
"null","","","html-keyboard-response","523","1132458","0.0-523.0","q2nkmydt","","<span style=""color:Black; font-size:50px;"">Agent B","null","","","","",""
"null","","","video-keyboard-response","524","1135224","0.0-524.0","q2nkmydt","","","null","","Agent B","veridical","FOR_REV_MAP_BLOBBY_STIM/1160049.bmp_pp53_L2_V1.0_veridical_freeview_isoTrue_fps144.mp4",""
"","","","call-function","525","1135225","0.0-525.0","q2nkmydt","","","","","","","",""
"1193.5200000000186","{""judgement"":0}","[0]","survey-likert","526","1136420","0.0-526.0","q2nkmydt","","","","","","","","1"
"1490.969999999972","{""confidence"":2}","[0]","survey-likert","527","1137912","0.0-527.0","q2nkmydt","","","","","","","",""
"","","","call-function","528","1137913","0.0-528.0","q2nkmydt","","","","","","","",""
"null","","","html-keyboard-response","529","1139417","0.0-529.0","q2nkmydt","","<span style=""color:Black; font-size:50px;"">Agent A","null","","","","",""
"null","","","video-keyboard-response","530","1142206","0.0-530.0","q2nkmydt","","","null","","Agent A","veridical","FOR_REV_MAP_BLOBBY_STIM/285932.bmp_pp64_L1_V1.0_veridical_freeview_isoTrue_fps144.mp4",""
"null","","","html-keyboard-response","531","1143710","0.0-531.0","q2nkmydt","","<span style=""color:Black; font-size:50px;"">Agent B","null","","","","",""
"null","","","video-keyboard-response","532","1146490","0.0-532.0","q2nkmydt","","","null","","Agent B","scrambled","FOR_REV_MAP_BLOBBY_STIM/285932.bmp_pp64_L1_V1.0_veridical_freeview_isoTrue_fps144_reversed_REAL.mp4",""
"","","","call-function","533","1146491","0.0-533.0","q2nkmydt","","","","","","","",""
"1229.9350000000559","{""judgement"":0}","[0]","survey-likert","534","1147722","0.0-534.0","q2nkmydt","","","","","","","","0"
"1636.1749999998137","{""confidence"":1}","[0]","survey-likert","535","1149359","0.0-535.0","q2nkmydt","","","","","","","",""
"","","","call-function","536","1149360","0.0-536.0","q2nkmydt","","","","","","","",""
"null","","","html-keyboard-response","537","1150861","0.0-537.0","q2nkmydt","","<span style=""color:Black; font-size:50px;"">Agent A","null","","","","",""
"null","","","video-keyboard-response","538","1153795","0.0-538.0","q2nkmydt","","","null","","Agent A","scrambled","FOR_REV_MAP_BLOBBY_STIM/1592568.bmp_pp71_L1_V1.0_veridical_freeview_isoTrue_fps144_reversed_REAL.mp4",""
"null","","","html-keyboard-response","539","1155297","0.0-539.0","q2nkmydt","","<span style=""color:Black; font-size:50px;"">Agent B","null","","","","",""
"null","","","video-keyboard-response","540","1158229","0.0-540.0","q2nkmydt","","","null","","Agent B","veridical","FOR_REV_MAP_BLOBBY_STIM/1592568.bmp_pp71_L1_V1.0_veridical_freeview_isoTrue_fps144.mp4",""
"","","","call-function","541","1158229","0.0-541.0","q2nkmydt","","","","","","","",""
"1429.7299999999814","{""judgement"":1}","[0]","survey-likert","542","1159660","0.0-542.0","q2nkmydt","","","","","","","","1"
"1261.9799999999814","{""confidence"":1}","[0]","survey-likert","543","1160923","0.0-543.0","q2nkmydt","","","","","","","",""
"","","","call-function","544","1160924","0.0-544.0","q2nkmydt","","","","","","","",""
"null","","","html-keyboard-response","545","1162429","0.0-545.0","q2nkmydt","","<span style=""color:Black; font-size:50px;"">Agent A","null","","","","",""
"null","","","video-keyboard-response","546","1165188","0.0-546.0","q2nkmydt","","","null","","Agent A","veridical","FOR_REV_MAP_BLOBBY_STIM/1160247.bmp_pp54_L2_V1.0_veridical_freeview_isoTrue_fps144.mp4",""
"null","","","html-keyboard-response","547","1166693","0.0-547.0","q2nkmydt","","<span style=""color:Black; font-size:50px;"">Agent B","null","","","","",""
"null","","","video-keyboard-response","548","1169463","0.0-548.0","q2nkmydt","","","null","","Agent B","scrambled","FOR_REV_MAP_BLOBBY_STIM/1160247.bmp_pp54_L2_V1.0_veridical_freeview_isoTrue_fps144_reversed_REAL.mp4",""
"","","","call-function","549","1169465","0.0-549.0","q2nkmydt","","","","","","","",""
"2320.8950000000186","{""judgement"":0}","[0]","survey-likert","550","1171788","0.0-550.0","q2nkmydt","","","","","","","","0"
"1150.1350000000093","{""confidence"":0}","[0]","survey-likert","551","1172939","0.0-551.0","q2nkmydt","","","","","","","",""
"","","","call-function","552","1172940","0.0-552.0","q2nkmydt","","","","","","","",""
"null","","","html-keyboard-response","553","1174442","0.0-553.0","q2nkmydt","","<span style=""color:Black; font-size:50px;"">Agent A","null","","","","",""
"null","","","video-keyboard-response","554","1177162","0.0-554.0","q2nkmydt","","","null","","Agent A","scrambled","FOR_REV_MAP_BLOBBY_STIM/1159592.bmp_pp91_L3_V1.0_veridical_freeview_isoTrue_fps144_reversed_REAL.mp4",""
"null","","","html-keyboard-response","555","1178664","0.0-555.0","q2nkmydt","","<span style=""color:Black; font-size:50px;"">Agent B","null","","","","",""
"null","","","video-keyboard-response","556","1181384","0.0-556.0","q2nkmydt","","","null","","Agent B","veridical","FOR_REV_MAP_BLOBBY_STIM/1159592.bmp_pp91_L3_V1.0_veridical_freeview_isoTrue_fps144.mp4",""
"","","","call-function","557","1181385","0.0-557.0","q2nkmydt","","","","","","","",""
"1396.6299999998882","{""judgement"":0}","[0]","survey-likert","558","1182782","0.0-558.0","q2nkmydt","","","","","","","","1"
"1353.9850000001024","{""confidence"":0}","[0]","survey-likert","559","1184138","0.0-559.0","q2nkmydt","","","","","","","",""
"","","","call-function","560","1184139","0.0-560.0","q2nkmydt","","","","","","","",""
"null","","","html-keyboard-response","561","1185642","0.0-561.0","q2nkmydt","","<span style=""color:Black; font-size:50px;"">Agent A","null","","","","",""
"null","","","video-keyboard-response","562","1188430","0.0-562.0","q2nkmydt","","","null","","Agent A","veridical","FOR_REV_MAP_BLOBBY_STIM/713274.bmp_pp73_L3_V1.0_veridical_freeview_isoTrue_fps144.mp4",""
"null","","","html-keyboard-response","563","1189931","0.0-563.0","q2nkmydt","","<span style=""color:Black; font-size:50px;"">Agent B","null","","","","",""
"null","","","video-keyboard-response","564","1192723","0.0-564.0","q2nkmydt","","","null","","Agent B","scrambled","FOR_REV_MAP_BLOBBY_STIM/713274.bmp_pp73_L3_V1.0_veridical_freeview_isoTrue_fps144_reversed_REAL.mp4",""
"","","","call-function","565","1192723","0.0-565.0","q2nkmydt","","","","","","","",""
"2272.7450000001118","{""judgement"":1}","[0]","survey-likert","566","1194997","0.0-566.0","q2nkmydt","","","","","","","","0"
"869.9199999999255","{""confidence"":1}","[0]","survey-likert","567","1195868","0.0-567.0","q2nkmydt","","","","","","","",""
"","","","call-function","568","1195869","0.0-568.0","q2nkmydt","","","","","","","",""
"null","","","html-keyboard-response","569","1197371","0.0-569.0","q2nkmydt","","<span style=""color:Black; font-size:50px;"">Agent A","null","","","","",""
"null","","","video-keyboard-response","570","1200057","0.0-570.0","q2nkmydt","","","null","","Agent A","scrambled","FOR_REV_MAP_BLOBBY_STIM/61513.bmp_pp75_L1_V1.0_veridical_freeview_isoTrue_fps144_reversed_REAL.mp4",""
"null","","","html-keyboard-response","571","1201558","0.0-571.0","q2nkmydt","","<span style=""color:Black; font-size:50px;"">Agent B","null","","","","",""
"null","","","video-keyboard-response","572","1204236","0.0-572.0","q2nkmydt","","","null","","Agent B","veridical","FOR_REV_MAP_BLOBBY_STIM/61513.bmp_pp75_L1_V1.0_veridical_freeview_isoTrue_fps144.mp4",""
"","","","call-function","573","1204237","0.0-573.0","q2nkmydt","","","","","","","",""
"4506.814999999944","{""judgement"":0}","[0]","survey-likert","574","1208745","0.0-574.0","q2nkmydt","","","","","","","","1"
"2312.4250000000466","{""confidence"":1}","[0]","survey-likert","575","1211058","0.0-575.0","q2nkmydt","","","","","","","",""
"","","","call-function","576","1211059","0.0-576.0","q2nkmydt","","","","","","","",""
"null","","","html-keyboard-response","577","1212559","0.0-577.0","q2nkmydt","","<span style=""color:Black; font-size:50px;"">Agent A","null","","","","",""
"null","","","video-keyboard-response","578","1215392","0.0-578.0","q2nkmydt","","","null","","Agent A","veridical","FOR_REV_MAP_BLOBBY_STIM/1592025.bmp_pp68_L1_V1.0_veridical_freeview_isoTrue_fps144.mp4",""
"null","","","html-keyboard-response","579","1216894","0.0-579.0","q2nkmydt","","<span style=""color:Black; font-size:50px;"">Agent B","null","","","","",""
"null","","","video-keyboard-response","580","1219726","0.0-580.0","q2nkmydt","","","null","","Agent B","scrambled","FOR_REV_MAP_BLOBBY_STIM/1592025.bmp_pp68_L1_V1.0_veridical_freeview_isoTrue_fps144_reversed_REAL.mp4",""
"","","","call-function","581","1219727","0.0-581.0","q2nkmydt","","","","","","","",""
"4310.079999999842","{""judgement"":1}","[0]","survey-likert","582","1224038","0.0-582.0","q2nkmydt","","","","","","","","0"
"1757.9350000000559","{""confidence"":0}","[0]","survey-likert","583","1225797","0.0-583.0","q2nkmydt","","","","","","","",""
"66549.27000000002","","","instructions","584","1292347","0.0-584.0","q2nkmydt","[{""page_index"":0,""viewing_time"":66549.13000000012}]","","","","","","",""
"1818.4799999999814","","","instructions","585","1294167","0.0-585.0","q2nkmydt","[{""page_index"":0,""viewing_time"":1818.3049999999348}]","","","","","","",""
"7335.6699999999255","{""post-1"":0}","[0]","survey-likert","586","1301503","0.0-586.0","q2nkmydt","","","","","","","",""
"2672.0999999998603","{""post-1"":0}","[0]","survey-likert","587","1304177","0.0-587.0","q2nkmydt","","","","","","","",""
"6569.630000000121","{""post-2"":1}","[0]","survey-likert","588","1310748","0.0-588.0","q2nkmydt","","","","","","","",""
"2732.190000000177","{""post-2"":1}","[0]","survey-likert","589","1313482","0.0-589.0","q2nkmydt","","","","","","","",""
"4008.4150000000373","{""post-3"":1}","[0]","survey-likert","590","1317493","0.0-590.0","q2nkmydt","","","","","","","",""
"2106.6399999998976","{""post-3"":1}","[0]","survey-likert","591","1319601","0.0-591.0","q2nkmydt","","","","","","","",""
"2701.439999999944","{""post-4"":0}","[0]","survey-likert","592","1322303","0.0-592.0","q2nkmydt","","","","","","","",""
"1489.0800000000745","{""post-4"":0}","[0]","survey-likert","593","1323794","0.0-593.0","q2nkmydt","","","","","","","",""
"3578.0100000000093","{""post-5"":2}","[0]","survey-likert","594","1327373","0.0-594.0","q2nkmydt","","","","","","","",""
"2000.755000000121","{""post-5"":1}","[0]","survey-likert","595","1329375","0.0-595.0","q2nkmydt","","","","","","","",""
"104386.4149999998","{""Q0"":""I found myself often assuming that the subject of the image was in the middle area. I also found myself often assuming an agent was human when they focused on a particular area a few times (a few hotspots around the general area. The reason I assumed this was because I believe this was the agent focusing on the subject of the image.""}","","survey-text","596","1433767","0.0-596.0","q2nkmydt","","","","","","","",""
"99267.88500000001","{""Q0"":""This experiment was much more difficult than the previous, but as mentioned, the particular strategy I used was choosing the agent that had a continuous number of hotspots around the same area, especially their first few hotspots. This is because I believe it is the agent focusing on the subject of the image. ""}","","survey-text","597","1533039","0.0-597.0","q2nkmydt","","","","","","","",""
"102624.96999999997","{""Q0"":""The fact that I in actuality had no idea where the subjects of the images were, and therefore I had no idea what the agent hotspots were focusing on. I just had to make my best assumption of what and where those subjects and point of focuses were.  ""}","","survey-text","598","1635668","0.0-598.0","q2nkmydt","","","","","","","",""
"36278.35999999987","","","instructions","599","1671948","0.0-599.0","q2nkmydt","[{""page_index"":0,""viewing_time"":36278.22500000009}]","","","","","","",""
"16230.395000000019","{""Experimenter_end"":[""Printed ID# q2nkmydt on consent form"",""Given subject SONA credit or payment"",""Given the subject debrief form""]}","[0]","survey-multi-select","600","1688181","0.0-600.0","q2nkmydt","","","","","","","",""
