"rt","responses","question_order","trial_type","trial_index","time_elapsed","internal_node_id","ID","view_history","stimulus","key_press","value","agent","condition","image","correct_answer"
"32747.045000000002","{""Experimenter"":[""Confirmed subject's identity"",""Confirmed normal or corrected-to-normal vision"",""Obtained consent (signature and date)"",""Checked the test room lighting"",""Checked computer screen lighting"",""Checked distance from screen to chin rest (50cm)"",""Cleaned and adjusted chin rest"",""Counterbalanced the order of the tasks"",""Opened the experiment in Firefox"",""Made the experiment full screen"",""Encouraged subject to silence phone, put away distractors, etc.""]}","[0]","survey-multi-select","0","32756","0.0-0.0","qfh1j7q9","","","","","","","",""
"34714.765","","","instructions","1","67473","0.0-1.0","qfh1j7q9","[{""page_index"":0,""viewing_time"":34714.56}]","","","","","","",""
"9675.725000000006","","","instructions","2","77149","0.0-2.0","qfh1j7q9","[{""page_index"":0,""viewing_time"":4739.820000000007},{""page_index"":1,""viewing_time"":864.7700000000041},{""page_index"":2,""viewing_time"":4071.0149999999994}]","","","","","","",""
"7934.299999999988","","","instructions","3","85084","0.0-3.0","qfh1j7q9","[{""page_index"":0,""viewing_time"":7934.194999999992}]","","","","","","",""
"null","","","video-keyboard-response","4","88162","0.0-4.0","qfh1j7q9","","","null","","","","",""
"11942.675000000003","","","instructions","5","100105","0.0-5.0","qfh1j7q9","[{""page_index"":0,""viewing_time"":2123.570000000007},{""page_index"":1,""viewing_time"":2102.4199999999983},{""page_index"":0,""viewing_time"":753.7050000000017},{""page_index"":1,""viewing_time"":1517.9400000000023},{""page_index"":2,""viewing_time"":5444.934999999998}]","","","","","","",""
"4102.470000000001","","","instructions","6","104208","0.0-6.0","qfh1j7q9","[{""page_index"":0,""viewing_time"":4102.354999999996}]","","","","","","",""
"1019.5349999999889","","","instructions","7","105228","0.0-7.0","qfh1j7q9","[{""page_index"":0,""viewing_time"":1019.3450000000012}]","","","","","","",""
"null","","","video-keyboard-response","8","108302","0.0-8.0","qfh1j7q9","","","null","","","","",""
"10754.099999999991","","","instructions","9","119056","0.0-9.0","qfh1j7q9","[{""page_index"":0,""viewing_time"":1594.229999999996},{""page_index"":1,""viewing_time"":3695.9149999999936},{""page_index"":2,""viewing_time"":5463.820000000007}]","","","","","","",""
"1901.3600000000006","","","instructions","10","120959","0.0-10.0","qfh1j7q9","[{""page_index"":0,""viewing_time"":1901.2449999999953}]","","","","","","",""
"","","","call-function","11","120960","0.0-11.0","qfh1j7q9","","","","","","","",""
"null","","","html-keyboard-response","12","122461","0.0-12.0","qfh1j7q9","","<span style=""color:Black; font-size:50px;"">Agent A","null","","","","",""
"null","","","video-keyboard-response","13","125540","0.0-13.0","qfh1j7q9","","","null","","Agent A","scrambled","STIM_SET_5/713770.bmp_pp89_L1_V1.0_veridical_freeview_isoTrue_Hflip_fps144.mp4",""
"null","","","html-keyboard-response","14","127042","0.0-14.0","qfh1j7q9","","<span style=""color:Black; font-size:50px;"">Agent B","null","","","","",""
"null","","","video-keyboard-response","15","130122","0.0-15.0","qfh1j7q9","","","null","","Agent B","veridical","STIM_SET_2_144/713770.bmp_pp89_L1_V1.0_veridical_freeview_isoTrue_fps144.mp4",""
"","","","call-function","16","130122","0.0-16.0","qfh1j7q9","","","","","","","",""
"4242.849999999991","{""judgement"":0}","[0]","survey-likert","17","134366","0.0-17.0","qfh1j7q9","","","","","","","","1"
"3556.389999999985","{""confidence"":0}","[0]","survey-likert","18","137924","0.0-18.0","qfh1j7q9","","","","","","","",""
"","","","call-function","19","137925","0.0-19.0","qfh1j7q9","","","","","","","",""
"null","","","html-keyboard-response","20","139429","0.0-20.0","qfh1j7q9","","<span style=""color:Black; font-size:50px;"">Agent A","null","","","","",""
"null","","","video-keyboard-response","21","142524","0.0-21.0","qfh1j7q9","","","null","","Agent A","scrambled","STIM_SET_5/1591781.bmp_pp63_L1_V1.0_veridical_freeview_isoTrue_Hflip_fps144.mp4",""
"null","","","html-keyboard-response","22","144028","0.0-22.0","qfh1j7q9","","<span style=""color:Black; font-size:50px;"">Agent B","null","","","","",""
"null","","","video-keyboard-response","23","147121","0.0-23.0","qfh1j7q9","","","null","","Agent B","veridical","STIM_SET_2_144/1591781.bmp_pp63_L1_V1.0_veridical_freeview_isoTrue_fps144.mp4",""
"","","","call-function","24","147122","0.0-24.0","qfh1j7q9","","","","","","","",""
"1973.460000000021","{""judgement"":0}","[0]","survey-likert","25","149096","0.0-25.0","qfh1j7q9","","","","","","","","1"
"2234.0650000000023","{""confidence"":2}","[0]","survey-likert","26","151331","0.0-26.0","qfh1j7q9","","","","","","","",""
"","","","call-function","27","151332","0.0-27.0","qfh1j7q9","","","","","","","",""
"null","","","html-keyboard-response","28","152835","0.0-28.0","qfh1j7q9","","<span style=""color:Black; font-size:50px;"">Agent A","null","","","","",""
"null","","","video-keyboard-response","29","155906","0.0-29.0","qfh1j7q9","","","null","","Agent A","scrambled","STIM_SET_5/713381.bmp_pp82_L2_V1.0_veridical_freeview_isoTrue_Hflip_fps144.mp4",""
"null","","","html-keyboard-response","30","157411","0.0-30.0","qfh1j7q9","","<span style=""color:Black; font-size:50px;"">Agent B","null","","","","",""
"null","","","video-keyboard-response","31","160503","0.0-31.0","qfh1j7q9","","","null","","Agent B","veridical","STIM_SET_2_144/713381.bmp_pp82_L2_V1.0_veridical_freeview_isoTrue_fps144.mp4",""
"","","","call-function","32","160504","0.0-32.0","qfh1j7q9","","","","","","","",""
"4350.100000000006","{""judgement"":0}","[0]","survey-likert","33","164855","0.0-33.0","qfh1j7q9","","","","","","","","1"
"1311.4350000000268","{""confidence"":2}","[0]","survey-likert","34","166167","0.0-34.0","qfh1j7q9","","","","","","","",""
"","","","call-function","35","166168","0.0-35.0","qfh1j7q9","","","","","","","",""
"null","","","html-keyboard-response","36","167673","0.0-36.0","qfh1j7q9","","<span style=""color:Black; font-size:50px;"">Agent A","null","","","","",""
"null","","","video-keyboard-response","37","170752","0.0-37.0","qfh1j7q9","","","null","","Agent A","veridical","STIM_SET_2_144/713689.bmp_pp153_L3_V1.0_veridical_freeview_isoTrue_fps144.mp4",""
"null","","","html-keyboard-response","38","172256","0.0-38.0","qfh1j7q9","","<span style=""color:Black; font-size:50px;"">Agent B","null","","","","",""
"null","","","video-keyboard-response","39","175316","0.0-39.0","qfh1j7q9","","","null","","Agent B","scrambled","STIM_SET_5/713689.bmp_pp153_L3_V1.0_veridical_freeview_isoTrue_Hflip_fps144.mp4",""
"","","","call-function","40","175317","0.0-40.0","qfh1j7q9","","","","","","","",""
"4198.7850000000035","{""judgement"":0}","[0]","survey-likert","41","179518","0.0-41.0","qfh1j7q9","","","","","","","","0"
"1184.6499999999942","{""confidence"":2}","[0]","survey-likert","42","180704","0.0-42.0","qfh1j7q9","","","","","","","",""
"","","","call-function","43","180705","0.0-43.0","qfh1j7q9","","","","","","","",""
"null","","","html-keyboard-response","44","182209","0.0-44.0","qfh1j7q9","","<span style=""color:Black; font-size:50px;"">Agent A","null","","","","",""
"null","","","video-keyboard-response","45","185279","0.0-45.0","qfh1j7q9","","","null","","Agent A","scrambled","STIM_SET_5/713920.bmp_pp76_L1_V1.0_veridical_freeview_isoTrue_Hflip_fps144.mp4",""
"null","","","html-keyboard-response","46","186781","0.0-46.0","qfh1j7q9","","<span style=""color:Black; font-size:50px;"">Agent B","null","","","","",""
"null","","","video-keyboard-response","47","189853","0.0-47.0","qfh1j7q9","","","null","","Agent B","veridical","STIM_SET_2_144/713920.bmp_pp76_L1_V1.0_veridical_freeview_isoTrue_fps144.mp4",""
"","","","call-function","48","189854","0.0-48.0","qfh1j7q9","","","","","","","",""
"2441.6600000000035","{""judgement"":1}","[0]","survey-likert","49","192297","0.0-49.0","qfh1j7q9","","","","","","","","1"
"1159.359999999986","{""confidence"":1}","[0]","survey-likert","50","193457","0.0-50.0","qfh1j7q9","","","","","","","",""
"","","","call-function","51","193458","0.0-51.0","qfh1j7q9","","","","","","","",""
"null","","","html-keyboard-response","52","194959","0.0-52.0","qfh1j7q9","","<span style=""color:Black; font-size:50px;"">Agent A","null","","","","",""
"null","","","video-keyboard-response","53","198029","0.0-53.0","qfh1j7q9","","","null","","Agent A","scrambled","STIM_SET_5/498258.bmp_pp51_L1_V1.0_veridical_freeview_isoTrue_Hflip_fps144.mp4",""
"null","","","html-keyboard-response","54","199534","0.0-54.0","qfh1j7q9","","<span style=""color:Black; font-size:50px;"">Agent B","null","","","","",""
"null","","","video-keyboard-response","55","202606","0.0-55.0","qfh1j7q9","","","null","","Agent B","veridical","STIM_SET_2_144/498258.bmp_pp51_L1_V1.0_veridical_freeview_isoTrue_fps144.mp4",""
"","","","call-function","56","202606","0.0-56.0","qfh1j7q9","","","","","","","",""
"1743.0250000000233","{""judgement"":0}","[0]","survey-likert","57","204350","0.0-57.0","qfh1j7q9","","","","","","","","1"
"2399.5250000000233","{""confidence"":1}","[0]","survey-likert","58","206751","0.0-58.0","qfh1j7q9","","","","","","","",""
"","","","call-function","59","206751","0.0-59.0","qfh1j7q9","","","","","","","",""
"null","","","html-keyboard-response","60","208256","0.0-60.0","qfh1j7q9","","<span style=""color:Black; font-size:50px;"">Agent A","null","","","","",""
"null","","","video-keyboard-response","61","211348","0.0-61.0","qfh1j7q9","","","null","","Agent A","veridical","STIM_SET_2_144/1160247.bmp_pp54_L2_V1.0_veridical_freeview_isoTrue_fps144.mp4",""
"null","","","html-keyboard-response","62","212850","0.0-62.0","qfh1j7q9","","<span style=""color:Black; font-size:50px;"">Agent B","null","","","","",""
"null","","","video-keyboard-response","63","215940","0.0-63.0","qfh1j7q9","","","null","","Agent B","scrambled","STIM_SET_5/1160247.bmp_pp54_L2_V1.0_veridical_freeview_isoTrue_Hflip_fps144.mp4",""
"","","","call-function","64","215941","0.0-64.0","qfh1j7q9","","","","","","","",""
"5537.570000000007","{""judgement"":0}","[0]","survey-likert","65","221479","0.0-65.0","qfh1j7q9","","","","","","","","0"
"1134.195000000007","{""confidence"":0}","[0]","survey-likert","66","222614","0.0-66.0","qfh1j7q9","","","","","","","",""
"","","","call-function","67","222615","0.0-67.0","qfh1j7q9","","","","","","","",""
"null","","","html-keyboard-response","68","224118","0.0-68.0","qfh1j7q9","","<span style=""color:Black; font-size:50px;"">Agent A","null","","","","",""
"null","","","video-keyboard-response","69","227204","0.0-69.0","qfh1j7q9","","","null","","Agent A","veridical","STIM_SET_2_144/61513.bmp_pp75_L1_V1.0_veridical_freeview_isoTrue_fps144.mp4",""
"null","","","html-keyboard-response","70","228706","0.0-70.0","qfh1j7q9","","<span style=""color:Black; font-size:50px;"">Agent B","null","","","","",""
"null","","","video-keyboard-response","71","231787","0.0-71.0","qfh1j7q9","","","null","","Agent B","scrambled","STIM_SET_5/61513.bmp_pp75_L1_V1.0_veridical_freeview_isoTrue_Hflip_fps144.mp4",""
"","","","call-function","72","231788","0.0-72.0","qfh1j7q9","","","","","","","",""
"1689.6699999999837","{""judgement"":0}","[0]","survey-likert","73","233478","0.0-73.0","qfh1j7q9","","","","","","","","0"
"2108.904999999999","{""confidence"":2}","[0]","survey-likert","74","235588","0.0-74.0","qfh1j7q9","","","","","","","",""
"","","","call-function","75","235589","0.0-75.0","qfh1j7q9","","","","","","","",""
"null","","","html-keyboard-response","76","237090","0.0-76.0","qfh1j7q9","","<span style=""color:Black; font-size:50px;"">Agent A","null","","","","",""
"null","","","video-keyboard-response","77","240177","0.0-77.0","qfh1j7q9","","","null","","Agent A","veridical","STIM_SET_2_144/1592038.bmp_pp79_L2_V1.0_veridical_freeview_isoTrue_fps144.mp4",""
"null","","","html-keyboard-response","78","241680","0.0-78.0","qfh1j7q9","","<span style=""color:Black; font-size:50px;"">Agent B","null","","","","",""
"null","","","video-keyboard-response","79","244770","0.0-79.0","qfh1j7q9","","","null","","Agent B","scrambled","STIM_SET_5/1592038.bmp_pp79_L2_V1.0_veridical_freeview_isoTrue_Hflip_fps144.mp4",""
"","","","call-function","80","244770","0.0-80.0","qfh1j7q9","","","","","","","",""
"2961.4100000000035","{""judgement"":1}","[0]","survey-likert","81","247733","0.0-81.0","qfh1j7q9","","","","","","","","0"
"842.2649999999849","{""confidence"":1}","[0]","survey-likert","82","248576","0.0-82.0","qfh1j7q9","","","","","","","",""
"","","","call-function","83","248577","0.0-83.0","qfh1j7q9","","","","","","","",""
"null","","","html-keyboard-response","84","250083","0.0-84.0","qfh1j7q9","","<span style=""color:Black; font-size:50px;"">Agent A","null","","","","",""
"null","","","video-keyboard-response","85","253143","0.0-85.0","qfh1j7q9","","","null","","Agent A","veridical","STIM_SET_2_144/498398.bmp_pp81_L1_V1.0_veridical_freeview_isoTrue_fps144.mp4",""
"null","","","html-keyboard-response","86","254648","0.0-86.0","qfh1j7q9","","<span style=""color:Black; font-size:50px;"">Agent B","null","","","","",""
"null","","","video-keyboard-response","87","257714","0.0-87.0","qfh1j7q9","","","null","","Agent B","scrambled","STIM_SET_5/498398.bmp_pp81_L1_V1.0_veridical_freeview_isoTrue_Hflip_fps144.mp4",""
"","","","call-function","88","257714","0.0-88.0","qfh1j7q9","","","","","","","",""
"4299.794999999984","{""judgement"":0}","[0]","survey-likert","89","262015","0.0-89.0","qfh1j7q9","","","","","","","","0"
"1338.9000000000233","{""confidence"":0}","[0]","survey-likert","90","263355","0.0-90.0","qfh1j7q9","","","","","","","",""
"3579.2550000000047","","","instructions","91","266935","0.0-91.0","qfh1j7q9","[{""page_index"":0,""viewing_time"":1978.054999999993},{""page_index"":1,""viewing_time"":1031.954999999958},{""page_index"":2,""viewing_time"":569.0300000000279}]","","","","","","",""
"3023.8499999999767","","","instructions","92","269960","0.0-92.0","qfh1j7q9","[{""page_index"":0,""viewing_time"":770.8999999999651},{""page_index"":1,""viewing_time"":1701.320000000007},{""page_index"":2,""viewing_time"":551.5300000000279}]","","","","","","",""
"","","","call-function","93","269960","0.0-93.0","qfh1j7q9","","","","","","","",""
"null","","","html-keyboard-response","94","271463","0.0-94.0","qfh1j7q9","","<span style=""color:Black; font-size:50px;"">Agent A","null","","","","",""
"null","","","video-keyboard-response","95","274525","0.0-95.0","qfh1j7q9","","","null","","Agent A","scrambled","STIM_SET_5/1592951.bmp_pp80_L3_V1.0_veridical_freeview_isoTrue_Hflip_fps144.mp4",""
"null","","","html-keyboard-response","96","276030","0.0-96.0","qfh1j7q9","","<span style=""color:Black; font-size:50px;"">Agent B","null","","","","",""
"null","","","video-keyboard-response","97","279093","0.0-97.0","qfh1j7q9","","","null","","Agent B","veridical","STIM_SET_2_144/1592951.bmp_pp80_L3_V1.0_veridical_freeview_isoTrue_fps144.mp4",""
"","","","call-function","98","279093","0.0-98.0","qfh1j7q9","","","","","","","",""
"7052.074999999953","{""judgement"":1}","[0]","survey-likert","99","286146","0.0-99.0","qfh1j7q9","","","","","","","","1"
"1691.6399999999558","{""confidence"":1}","[0]","survey-likert","100","287839","0.0-100.0","qfh1j7q9","","","","","","","",""
"","","","call-function","101","287840","0.0-101.0","qfh1j7q9","","","","","","","",""
"null","","","html-keyboard-response","102","289344","0.0-102.0","qfh1j7q9","","<span style=""color:Black; font-size:50px;"">Agent A","null","","","","",""
"null","","","video-keyboard-response","103","292429","0.0-103.0","qfh1j7q9","","","null","","Agent A","veridical","STIM_SET_2_144/1592201.bmp_pp97_L3_V1.0_veridical_freeview_isoTrue_fps144.mp4",""
"null","","","html-keyboard-response","104","293931","0.0-104.0","qfh1j7q9","","<span style=""color:Black; font-size:50px;"">Agent B","null","","","","",""
"null","","","video-keyboard-response","105","297018","0.0-105.0","qfh1j7q9","","","null","","Agent B","scrambled","STIM_SET_5/1592201.bmp_pp97_L3_V1.0_veridical_freeview_isoTrue_Hflip_fps144.mp4",""
"","","","call-function","106","297019","0.0-106.0","qfh1j7q9","","","","","","","",""
"9016.149999999965","{""judgement"":1}","[0]","survey-likert","107","306036","0.0-107.0","qfh1j7q9","","","","","","","","0"
"1226.7550000000047","{""confidence"":2}","[0]","survey-likert","108","307264","0.0-108.0","qfh1j7q9","","","","","","","",""
"","","","call-function","109","307264","0.0-109.0","qfh1j7q9","","","","","","","",""
"null","","","html-keyboard-response","110","308767","0.0-110.0","qfh1j7q9","","<span style=""color:Black; font-size:50px;"">Agent A","null","","","","",""
"null","","","video-keyboard-response","111","311862","0.0-111.0","qfh1j7q9","","","null","","Agent A","scrambled","STIM_SET_5/713790.bmp_pp100_L3_V1_veridical_freeview_isoTrue_Hflip_fps144.mp4",""
"null","","","html-keyboard-response","112","313364","0.0-112.0","qfh1j7q9","","<span style=""color:Black; font-size:50px;"">Agent B","null","","","","",""
"null","","","video-keyboard-response","113","316440","0.0-113.0","qfh1j7q9","","","null","","Agent B","veridical","STIM_SET_2_144/713790.bmp_pp100_L3_V1_veridical_freeview_isoTrue_fps144.mp4",""
"","","","call-function","114","316441","0.0-114.0","qfh1j7q9","","","","","","","",""
"12433.539999999979","{""judgement"":1}","[0]","survey-likert","115","328876","0.0-115.0","qfh1j7q9","","","","","","","","1"
"1017.125","{""confidence"":1}","[0]","survey-likert","116","329896","0.0-116.0","qfh1j7q9","","","","","","","",""
"","","","call-function","117","329897","0.0-117.0","qfh1j7q9","","","","","","","",""
"null","","","html-keyboard-response","118","331403","0.0-118.0","qfh1j7q9","","<span style=""color:Black; font-size:50px;"">Agent A","null","","","","",""
"null","","","video-keyboard-response","119","334463","0.0-119.0","qfh1j7q9","","","null","","Agent A","scrambled","STIM_SET_5/1591920.bmp_pp97_L3_V1_veridical_freeview_isoTrue_Hflip_fps144.mp4",""
"null","","","html-keyboard-response","120","335968","0.0-120.0","qfh1j7q9","","<span style=""color:Black; font-size:50px;"">Agent B","null","","","","",""
"null","","","video-keyboard-response","121","339030","0.0-121.0","qfh1j7q9","","","null","","Agent B","veridical","STIM_SET_2_144/1591920.bmp_pp97_L3_V1_veridical_freeview_isoTrue_fps144.mp4",""
"","","","call-function","122","339031","0.0-122.0","qfh1j7q9","","","","","","","",""
"9174.804999999993","{""judgement"":1}","[0]","survey-likert","123","348207","0.0-123.0","qfh1j7q9","","","","","","","","1"
"1978.859999999986","{""confidence"":1}","[0]","survey-likert","124","350187","0.0-124.0","qfh1j7q9","","","","","","","",""
"","","","call-function","125","350188","0.0-125.0","qfh1j7q9","","","","","","","",""
"null","","","html-keyboard-response","126","351693","0.0-126.0","qfh1j7q9","","<span style=""color:Black; font-size:50px;"">Agent A","null","","","","",""
"null","","","video-keyboard-response","127","354760","0.0-127.0","qfh1j7q9","","","null","","Agent A","scrambled","STIM_SET_5/498261.bmp_pp84_L3_V1.0_veridical_freeview_isoTrue_Hflip_fps144.mp4",""
"null","","","html-keyboard-response","128","356264","0.0-128.0","qfh1j7q9","","<span style=""color:Black; font-size:50px;"">Agent B","null","","","","",""
"null","","","video-keyboard-response","129","359333","0.0-129.0","qfh1j7q9","","","null","","Agent B","veridical","STIM_SET_2_144/498261.bmp_pp84_L3_V1.0_veridical_freeview_isoTrue_fps144.mp4",""
"","","","call-function","130","359334","0.0-130.0","qfh1j7q9","","","","","","","",""
"3929.2999999999884","{""judgement"":0}","[0]","survey-likert","131","363264","0.0-131.0","qfh1j7q9","","","","","","","","1"
"2124.454999999958","{""confidence"":1}","[0]","survey-likert","132","365390","0.0-132.0","qfh1j7q9","","","","","","","",""
"","","","call-function","133","365391","0.0-133.0","qfh1j7q9","","","","","","","",""
"null","","","html-keyboard-response","134","366896","0.0-134.0","qfh1j7q9","","<span style=""color:Black; font-size:50px;"">Agent A","null","","","","",""
"null","","","video-keyboard-response","135","369971","0.0-135.0","qfh1j7q9","","","null","","Agent A","scrambled","STIM_SET_5/1159860.bmp_pp152_L2_V1.0_veridical_freeview_isoTrue_Hflip_fps144.mp4",""
"null","","","html-keyboard-response","136","371478","0.0-136.0","qfh1j7q9","","<span style=""color:Black; font-size:50px;"">Agent B","null","","","","",""
"null","","","video-keyboard-response","137","374555","0.0-137.0","qfh1j7q9","","","null","","Agent B","veridical","STIM_SET_2_144/1159860.bmp_pp152_L2_V1.0_veridical_freeview_isoTrue_fps144.mp4",""
"","","","call-function","138","374555","0.0-138.0","qfh1j7q9","","","","","","","",""
"4711.454999999958","{""judgement"":1}","[0]","survey-likert","139","379268","0.0-139.0","qfh1j7q9","","","","","","","","1"
"2028.4550000000163","{""confidence"":0}","[0]","survey-likert","140","381297","0.0-140.0","qfh1j7q9","","","","","","","",""
"","","","call-function","141","381298","0.0-141.0","qfh1j7q9","","","","","","","",""
"null","","","html-keyboard-response","142","382803","0.0-142.0","qfh1j7q9","","<span style=""color:Black; font-size:50px;"">Agent A","null","","","","",""
"null","","","video-keyboard-response","143","385886","0.0-143.0","qfh1j7q9","","","null","","Agent A","scrambled","STIM_SET_5/713274.bmp_pp73_L3_V1.0_veridical_freeview_isoTrue_Hflip_fps144.mp4",""
"null","","","html-keyboard-response","144","387388","0.0-144.0","qfh1j7q9","","<span style=""color:Black; font-size:50px;"">Agent B","null","","","","",""
"null","","","video-keyboard-response","145","390469","0.0-145.0","qfh1j7q9","","","null","","Agent B","veridical","STIM_SET_2_144/713274.bmp_pp73_L3_V1.0_veridical_freeview_isoTrue_fps144.mp4",""
"","","","call-function","146","390470","0.0-146.0","qfh1j7q9","","","","","","","",""
"3108.25","{""judgement"":1}","[0]","survey-likert","147","393579","0.0-147.0","qfh1j7q9","","","","","","","","1"
"2413.5999999999767","{""confidence"":2}","[0]","survey-likert","148","395993","0.0-148.0","qfh1j7q9","","","","","","","",""
"","","","call-function","149","395994","0.0-149.0","qfh1j7q9","","","","","","","",""
"null","","","html-keyboard-response","150","397497","0.0-150.0","qfh1j7q9","","<span style=""color:Black; font-size:50px;"">Agent A","null","","","","",""
"null","","","video-keyboard-response","151","400558","0.0-151.0","qfh1j7q9","","","null","","Agent A","scrambled","STIM_SET_5/1592314.bmp_pp100_L3_V1.0_veridical_freeview_isoTrue_Hflip_fps144.mp4",""
"null","","","html-keyboard-response","152","402061","0.0-152.0","qfh1j7q9","","<span style=""color:Black; font-size:50px;"">Agent B","null","","","","",""
"null","","","video-keyboard-response","153","405123","0.0-153.0","qfh1j7q9","","","null","","Agent B","veridical","STIM_SET_2_144/1592314.bmp_pp100_L3_V1.0_veridical_freeview_isoTrue_fps144.mp4",""
"","","","call-function","154","405123","0.0-154.0","qfh1j7q9","","","","","","","",""
"5993.244999999995","{""judgement"":0}","[0]","survey-likert","155","411117","0.0-155.0","qfh1j7q9","","","","","","","","1"
"1047.3150000000023","{""confidence"":2}","[0]","survey-likert","156","412166","0.0-156.0","qfh1j7q9","","","","","","","",""
"","","","call-function","157","412166","0.0-157.0","qfh1j7q9","","","","","","","",""
"null","","","html-keyboard-response","158","413672","0.0-158.0","qfh1j7q9","","<span style=""color:Black; font-size:50px;"">Agent A","null","","","","",""
"null","","","video-keyboard-response","159","416748","0.0-159.0","qfh1j7q9","","","null","","Agent A","scrambled","STIM_SET_5/285932.bmp_pp64_L1_V1.0_veridical_freeview_isoTrue_Hflip_fps144.mp4",""
"null","","","html-keyboard-response","160","418255","0.0-160.0","qfh1j7q9","","<span style=""color:Black; font-size:50px;"">Agent B","null","","","","",""
"null","","","video-keyboard-response","161","421315","0.0-161.0","qfh1j7q9","","","null","","Agent B","veridical","STIM_SET_2_144/285932.bmp_pp64_L1_V1.0_veridical_freeview_isoTrue_fps144.mp4",""
"","","","call-function","162","421316","0.0-162.0","qfh1j7q9","","","","","","","",""
"3448.420000000042","{""judgement"":0}","[0]","survey-likert","163","424765","0.0-163.0","qfh1j7q9","","","","","","","","1"
"1783.6300000000047","{""confidence"":2}","[0]","survey-likert","164","426550","0.0-164.0","qfh1j7q9","","","","","","","",""
"","","","call-function","165","426550","0.0-165.0","qfh1j7q9","","","","","","","",""
"null","","","html-keyboard-response","166","428056","0.0-166.0","qfh1j7q9","","<span style=""color:Black; font-size:50px;"">Agent A","null","","","","",""
"null","","","video-keyboard-response","167","431119","0.0-167.0","qfh1j7q9","","","null","","Agent A","veridical","STIM_SET_2_144/1592129.bmp_pp153_L3_V1.0_veridical_freeview_isoTrue_fps144.mp4",""
"null","","","html-keyboard-response","168","432623","0.0-168.0","qfh1j7q9","","<span style=""color:Black; font-size:50px;"">Agent B","null","","","","",""
"null","","","video-keyboard-response","169","435696","0.0-169.0","qfh1j7q9","","","null","","Agent B","scrambled","STIM_SET_5/1592129.bmp_pp153_L3_V1.0_veridical_freeview_isoTrue_Hflip_fps144.mp4",""
"","","","call-function","170","435697","0.0-170.0","qfh1j7q9","","","","","","","",""
"2823.100000000035","{""judgement"":0}","[0]","survey-likert","171","438521","0.0-171.0","qfh1j7q9","","","","","","","","0"
"2304.8949999999604","{""confidence"":1}","[0]","survey-likert","172","440827","0.0-172.0","qfh1j7q9","","","","","","","",""
"2825.5750000000116","","","instructions","173","443653","0.0-173.0","qfh1j7q9","[{""page_index"":0,""viewing_time"":1566.804999999993},{""page_index"":1,""viewing_time"":613.085000000021},{""page_index"":2,""viewing_time"":645.4799999999814}]","","","","","","",""
"3002.570000000007","","","instructions","174","446657","0.0-174.0","qfh1j7q9","[{""page_index"":0,""viewing_time"":1031.6599999999744},{""page_index"":1,""viewing_time"":1513.2399999999907},{""page_index"":2,""viewing_time"":457.46000000002095}]","","","","","","",""
"","","","call-function","175","446658","0.0-175.0","qfh1j7q9","","","","","","","",""
"null","","","html-keyboard-response","176","448163","0.0-176.0","qfh1j7q9","","<span style=""color:Black; font-size:50px;"">Agent A","null","","","","",""
"null","","","video-keyboard-response","177","451237","0.0-177.0","qfh1j7q9","","","null","","Agent A","scrambled","STIM_SET_5/1592168.bmp_pp71_L1_V1.0_veridical_freeview_isoTrue_Hflip_fps144.mp4",""
"null","","","html-keyboard-response","178","452742","0.0-178.0","qfh1j7q9","","<span style=""color:Black; font-size:50px;"">Agent B","null","","","","",""
"null","","","video-keyboard-response","179","455818","0.0-179.0","qfh1j7q9","","","null","","Agent B","veridical","STIM_SET_2_144/1592168.bmp_pp71_L1_V1.0_veridical_freeview_isoTrue_fps144.mp4",""
"","","","call-function","180","455819","0.0-180.0","qfh1j7q9","","","","","","","",""
"1822.3400000000256","{""judgement"":0}","[0]","survey-likert","181","457642","0.0-181.0","qfh1j7q9","","","","","","","","1"
"1727.5899999999674","{""confidence"":3}","[0]","survey-likert","182","459371","0.0-182.0","qfh1j7q9","","","","","","","",""
"","","","call-function","183","459372","0.0-183.0","qfh1j7q9","","","","","","","",""
"null","","","html-keyboard-response","184","460874","0.0-184.0","qfh1j7q9","","<span style=""color:Black; font-size:50px;"">Agent A","null","","","","",""
"null","","","video-keyboard-response","185","463938","0.0-185.0","qfh1j7q9","","","null","","Agent A","scrambled","STIM_SET_5/286034.bmp_pp69_L3_V1.0_veridical_freeview_isoTrue_Hflip_fps144.mp4",""
"null","","","html-keyboard-response","186","465440","0.0-186.0","qfh1j7q9","","<span style=""color:Black; font-size:50px;"">Agent B","null","","","","",""
"null","","","video-keyboard-response","187","468505","0.0-187.0","qfh1j7q9","","","null","","Agent B","veridical","STIM_SET_2_144/286034.bmp_pp69_L3_V1.0_veridical_freeview_isoTrue_fps144.mp4",""
"","","","call-function","188","468506","0.0-188.0","qfh1j7q9","","","","","","","",""
"1535.0750000000116","{""judgement"":1}","[0]","survey-likert","189","470041","0.0-189.0","qfh1j7q9","","","","","","","","1"
"1167.725000000035","{""confidence"":2}","[0]","survey-likert","190","471210","0.0-190.0","qfh1j7q9","","","","","","","",""
"","","","call-function","191","471211","0.0-191.0","qfh1j7q9","","","","","","","",""
"null","","","html-keyboard-response","192","472713","0.0-192.0","qfh1j7q9","","<span style=""color:Black; font-size:50px;"">Agent A","null","","","","",""
"null","","","video-keyboard-response","193","475797","0.0-193.0","qfh1j7q9","","","null","","Agent A","scrambled","STIM_SET_5/1159973.bmp_pp98_L1_V1.0_veridical_freeview_isoTrue_Hflip_fps144.mp4",""
"null","","","html-keyboard-response","194","477300","0.0-194.0","qfh1j7q9","","<span style=""color:Black; font-size:50px;"">Agent B","null","","","","",""
"null","","","video-keyboard-response","195","480383","0.0-195.0","qfh1j7q9","","","null","","Agent B","veridical","STIM_SET_2_144/1159973.bmp_pp98_L1_V1.0_veridical_freeview_isoTrue_fps144.mp4",""
"","","","call-function","196","480384","0.0-196.0","qfh1j7q9","","","","","","","",""
"3330.6900000000023","{""judgement"":0}","[0]","survey-likert","197","483715","0.0-197.0","qfh1j7q9","","","","","","","","1"
"713.8450000000303","{""confidence"":1}","[0]","survey-likert","198","484431","0.0-198.0","qfh1j7q9","","","","","","","",""
"","","","call-function","199","484432","0.0-199.0","qfh1j7q9","","","","","","","",""
"null","","","html-keyboard-response","200","485934","0.0-200.0","qfh1j7q9","","<span style=""color:Black; font-size:50px;"">Agent A","null","","","","",""
"null","","","video-keyboard-response","201","489010","0.0-201.0","qfh1j7q9","","","null","","Agent A","scrambled","STIM_SET_5/1592857.bmp_pp52_L1_V1_veridical_freeview_isoTrue_Hflip_fps144.mp4",""
"null","","","html-keyboard-response","202","490515","0.0-202.0","qfh1j7q9","","<span style=""color:Black; font-size:50px;"">Agent B","null","","","","",""
"null","","","video-keyboard-response","203","493593","0.0-203.0","qfh1j7q9","","","null","","Agent B","veridical","STIM_SET_2_144/1592857.bmp_pp52_L1_V1_veridical_freeview_isoTrue_fps144.mp4",""
"","","","call-function","204","493593","0.0-204.0","qfh1j7q9","","","","","","","",""
"2243.0250000000233","{""judgement"":0}","[0]","survey-likert","205","495837","0.0-205.0","qfh1j7q9","","","","","","","","1"
"1393.585000000021","{""confidence"":1}","[0]","survey-likert","206","497232","0.0-206.0","qfh1j7q9","","","","","","","",""
"","","","call-function","207","497233","0.0-207.0","qfh1j7q9","","","","","","","",""
"null","","","html-keyboard-response","208","498736","0.0-208.0","qfh1j7q9","","<span style=""color:Black; font-size:50px;"">Agent A","null","","","","",""
"null","","","video-keyboard-response","209","501820","0.0-209.0","qfh1j7q9","","","null","","Agent A","veridical","STIM_SET_2_144/1159508.bmp_pp151_L1_V1.0_veridical_freeview_isoTrue_fps144.mp4",""
"null","","","html-keyboard-response","210","503326","0.0-210.0","qfh1j7q9","","<span style=""color:Black; font-size:50px;"">Agent B","null","","","","",""
"null","","","video-keyboard-response","211","506413","0.0-211.0","qfh1j7q9","","","null","","Agent B","scrambled","STIM_SET_5/1159508.bmp_pp151_L1_V1.0_veridical_freeview_isoTrue_Hflip_fps144.mp4",""
"","","","call-function","212","506414","0.0-212.0","qfh1j7q9","","","","","","","",""
"2696.820000000007","{""judgement"":0}","[0]","survey-likert","213","509112","0.0-213.0","qfh1j7q9","","","","","","","","0"
"1639.2999999999884","{""confidence"":2}","[0]","survey-likert","214","510752","0.0-214.0","qfh1j7q9","","","","","","","",""
"","","","call-function","215","510753","0.0-215.0","qfh1j7q9","","","","","","","",""
"null","","","html-keyboard-response","216","512256","0.0-216.0","qfh1j7q9","","<span style=""color:Black; font-size:50px;"">Agent A","null","","","","",""
"null","","","video-keyboard-response","217","515323","0.0-217.0","qfh1j7q9","","","null","","Agent A","veridical","STIM_SET_2_144/498396.bmp_pp99_L2_V1.0_veridical_freeview_isoTrue_fps144.mp4",""
"null","","","html-keyboard-response","218","516827","0.0-218.0","qfh1j7q9","","<span style=""color:Black; font-size:50px;"">Agent B","null","","","","",""
"null","","","video-keyboard-response","219","519895","0.0-219.0","qfh1j7q9","","","null","","Agent B","scrambled","STIM_SET_5/498396.bmp_pp99_L2_V1.0_veridical_freeview_isoTrue_Hflip_fps144.mp4",""
"","","","call-function","220","519896","0.0-220.0","qfh1j7q9","","","","","","","",""
"2063.890000000014","{""judgement"":1}","[0]","survey-likert","221","521961","0.0-221.0","qfh1j7q9","","","","","","","","0"
"1256.1849999999977","{""confidence"":2}","[0]","survey-likert","222","523218","0.0-222.0","qfh1j7q9","","","","","","","",""
"","","","call-function","223","523219","0.0-223.0","qfh1j7q9","","","","","","","",""
"null","","","html-keyboard-response","224","524721","0.0-224.0","qfh1j7q9","","<span style=""color:Black; font-size:50px;"">Agent A","null","","","","",""
"null","","","video-keyboard-response","225","527793","0.0-225.0","qfh1j7q9","","","null","","Agent A","scrambled","STIM_SET_5/1592289.bmp_pp92_L3_V1.0_veridical_freeview_isoTrue_Hflip_fps144.mp4",""
"null","","","html-keyboard-response","226","529297","0.0-226.0","qfh1j7q9","","<span style=""color:Black; font-size:50px;"">Agent B","null","","","","",""
"null","","","video-keyboard-response","227","532367","0.0-227.0","qfh1j7q9","","","null","","Agent B","veridical","STIM_SET_2_144/1592289.bmp_pp92_L3_V1.0_veridical_freeview_isoTrue_fps144.mp4",""
"","","","call-function","228","532368","0.0-228.0","qfh1j7q9","","","","","","","",""
"6774.314999999944","{""judgement"":1}","[0]","survey-likert","229","539143","0.0-229.0","qfh1j7q9","","","","","","","","1"
"1457.234999999986","{""confidence"":1}","[0]","survey-likert","230","540601","0.0-230.0","qfh1j7q9","","","","","","","",""
"","","","call-function","231","540602","0.0-231.0","qfh1j7q9","","","","","","","",""
"null","","","html-keyboard-response","232","542108","0.0-232.0","qfh1j7q9","","<span style=""color:Black; font-size:50px;"">Agent A","null","","","","",""
"null","","","video-keyboard-response","233","545190","0.0-233.0","qfh1j7q9","","","null","","Agent A","scrambled","STIM_SET_5/1591975.bmp_pp88_L2_V1.0_veridical_freeview_isoTrue_Hflip_fps144.mp4",""
"null","","","html-keyboard-response","234","546691","0.0-234.0","qfh1j7q9","","<span style=""color:Black; font-size:50px;"">Agent B","null","","","","",""
"null","","","video-keyboard-response","235","549766","0.0-235.0","qfh1j7q9","","","null","","Agent B","veridical","STIM_SET_2_144/1591975.bmp_pp88_L2_V1.0_veridical_freeview_isoTrue_fps144.mp4",""
"","","","call-function","236","549768","0.0-236.0","qfh1j7q9","","","","","","","",""
"2995.554999999935","{""judgement"":0}","[0]","survey-likert","237","552764","0.0-237.0","qfh1j7q9","","","","","","","","1"
"1520.7000000000698","{""confidence"":1}","[0]","survey-likert","238","554286","0.0-238.0","qfh1j7q9","","","","","","","",""
"","","","call-function","239","554287","0.0-239.0","qfh1j7q9","","","","","","","",""
"null","","","html-keyboard-response","240","555789","0.0-240.0","qfh1j7q9","","<span style=""color:Black; font-size:50px;"">Agent A","null","","","","",""
"null","","","video-keyboard-response","241","558876","0.0-241.0","qfh1j7q9","","","null","","Agent A","veridical","STIM_SET_2_144/1592350.bmp_pp55_L3_V1.0_veridical_freeview_isoTrue_fps144.mp4",""
"null","","","html-keyboard-response","242","560381","0.0-242.0","qfh1j7q9","","<span style=""color:Black; font-size:50px;"">Agent B","null","","","","",""
"null","","","video-keyboard-response","243","563468","0.0-243.0","qfh1j7q9","","","null","","Agent B","scrambled","STIM_SET_5/1592350.bmp_pp55_L3_V1.0_veridical_freeview_isoTrue_Hflip_fps144.mp4",""
"","","","call-function","244","563469","0.0-244.0","qfh1j7q9","","","","","","","",""
"3649.6350000000093","{""judgement"":1}","[0]","survey-likert","245","567119","0.0-245.0","qfh1j7q9","","","","","","","","0"
"1153.734999999986","{""confidence"":0}","[0]","survey-likert","246","568274","0.0-246.0","qfh1j7q9","","","","","","","",""
"","","","call-function","247","568275","0.0-247.0","qfh1j7q9","","","","","","","",""
"null","","","html-keyboard-response","248","569781","0.0-248.0","qfh1j7q9","","<span style=""color:Black; font-size:50px;"">Agent A","null","","","","",""
"null","","","video-keyboard-response","249","572860","0.0-249.0","qfh1j7q9","","","null","","Agent A","scrambled","STIM_SET_5/107955.bmp_pp90_L2_V1.0_veridical_freeview_isoTrue_Hflip_fps144.mp4",""
"null","","","html-keyboard-response","250","574364","0.0-250.0","qfh1j7q9","","<span style=""color:Black; font-size:50px;"">Agent B","null","","","","",""
"null","","","video-keyboard-response","251","577439","0.0-251.0","qfh1j7q9","","","null","","Agent B","veridical","STIM_SET_2_144/107955.bmp_pp90_L2_V1.0_veridical_freeview_isoTrue_fps144.mp4",""
"","","","call-function","252","577439","0.0-252.0","qfh1j7q9","","","","","","","",""
"3043.3150000000605","{""judgement"":1}","[0]","survey-likert","253","580483","0.0-253.0","qfh1j7q9","","","","","","","","1"
"1717.6300000000047","{""confidence"":1}","[0]","survey-likert","254","582202","0.0-254.0","qfh1j7q9","","","","","","","",""
"3544.8000000000466","","","instructions","255","585748","0.0-255.0","qfh1j7q9","[{""page_index"":0,""viewing_time"":1874.7449999999953},{""page_index"":1,""viewing_time"":798.0200000000186},{""page_index"":2,""viewing_time"":871.8300000000745}]","","","","","","",""
"1673.5200000000186","","","instructions","256","587423","0.0-256.0","qfh1j7q9","[{""page_index"":0,""viewing_time"":372.1149999999907},{""page_index"":1,""viewing_time"":903.0849999999627},{""page_index"":2,""viewing_time"":398.20000000006985}]","","","","","","",""
"","","","call-function","257","587424","0.0-257.0","qfh1j7q9","","","","","","","",""
"null","","","html-keyboard-response","258","588930","0.0-258.0","qfh1j7q9","","<span style=""color:Black; font-size:50px;"">Agent A","null","","","","",""
"null","","","video-keyboard-response","259","591996","0.0-259.0","qfh1j7q9","","","null","","Agent A","scrambled","STIM_SET_5/1592150.bmp_pp77_L3_V1.0_veridical_freeview_isoTrue_Hflip_fps144.mp4",""
"null","","","html-keyboard-response","260","593499","0.0-260.0","qfh1j7q9","","<span style=""color:Black; font-size:50px;"">Agent B","null","","","","",""
"null","","","video-keyboard-response","261","596561","0.0-261.0","qfh1j7q9","","","null","","Agent B","veridical","STIM_SET_2_144/1592150.bmp_pp77_L3_V1.0_veridical_freeview_isoTrue_fps144.mp4",""
"","","","call-function","262","596562","0.0-262.0","qfh1j7q9","","","","","","","",""
"4888.604999999981","{""judgement"":0}","[0]","survey-likert","263","601452","0.0-263.0","qfh1j7q9","","","","","","","","1"
"1192.734999999986","{""confidence"":2}","[0]","survey-likert","264","602646","0.0-264.0","qfh1j7q9","","","","","","","",""
"","","","call-function","265","602647","0.0-265.0","qfh1j7q9","","","","","","","",""
"null","","","html-keyboard-response","266","604153","0.0-266.0","qfh1j7q9","","<span style=""color:Black; font-size:50px;"">Agent A","null","","","","",""
"null","","","video-keyboard-response","267","607229","0.0-267.0","qfh1j7q9","","","null","","Agent A","veridical","STIM_SET_2_144/1592568.bmp_pp71_L1_V1.0_veridical_freeview_isoTrue_fps144.mp4",""
"null","","","html-keyboard-response","268","608733","0.0-268.0","qfh1j7q9","","<span style=""color:Black; font-size:50px;"">Agent B","null","","","","",""
"null","","","video-keyboard-response","269","611812","0.0-269.0","qfh1j7q9","","","null","","Agent B","scrambled","STIM_SET_5/1592568.bmp_pp71_L1_V1.0_veridical_freeview_isoTrue_Hflip_fps144.mp4",""
"","","","call-function","270","611813","0.0-270.0","qfh1j7q9","","","","","","","",""
"9217.775000000023","{""judgement"":0}","[0]","survey-likert","271","621033","0.0-271.0","qfh1j7q9","","","","","","","","0"
"891.9350000000559","{""confidence"":0}","[0]","survey-likert","272","621926","0.0-272.0","qfh1j7q9","","","","","","","",""
"","","","call-function","273","621927","0.0-273.0","qfh1j7q9","","","","","","","",""
"null","","","html-keyboard-response","274","623431","0.0-274.0","qfh1j7q9","","<span style=""color:Black; font-size:50px;"">Agent A","null","","","","",""
"null","","","video-keyboard-response","275","626515","0.0-275.0","qfh1j7q9","","","null","","Agent A","veridical","STIM_SET_2_144/1159956.bmp_pp59_L3_V1.0_veridical_freeview_isoTrue_fps144.mp4",""
"null","","","html-keyboard-response","276","628018","0.0-276.0","qfh1j7q9","","<span style=""color:Black; font-size:50px;"">Agent B","null","","","","",""
"null","","","video-keyboard-response","277","631098","0.0-277.0","qfh1j7q9","","","null","","Agent B","scrambled","STIM_SET_5/1159956.bmp_pp59_L3_V1.0_veridical_freeview_isoTrue_Hflip_fps144.mp4",""
"","","","call-function","278","631098","0.0-278.0","qfh1j7q9","","","","","","","",""
"3414.2449999999953","{""judgement"":1}","[0]","survey-likert","279","634514","0.0-279.0","qfh1j7q9","","","","","","","","0"
"2029.1199999999953","{""confidence"":2}","[0]","survey-likert","280","636544","0.0-280.0","qfh1j7q9","","","","","","","",""
"","","","call-function","281","636544","0.0-281.0","qfh1j7q9","","","","","","","",""
"null","","","html-keyboard-response","282","638050","0.0-282.0","qfh1j7q9","","<span style=""color:Black; font-size:50px;"">Agent A","null","","","","",""
"null","","","video-keyboard-response","283","641130","0.0-283.0","qfh1j7q9","","","null","","Agent A","scrambled","STIM_SET_5/1159427.bmp_pp98_L1_V1.0_veridical_freeview_isoTrue_Hflip_fps144.mp4",""
"null","","","html-keyboard-response","284","642632","0.0-284.0","qfh1j7q9","","<span style=""color:Black; font-size:50px;"">Agent B","null","","","","",""
"null","","","video-keyboard-response","285","645708","0.0-285.0","qfh1j7q9","","","null","","Agent B","veridical","STIM_SET_2_144/1159427.bmp_pp98_L1_V1.0_veridical_freeview_isoTrue_fps144.mp4",""
"","","","call-function","286","645708","0.0-286.0","qfh1j7q9","","","","","","","",""
"2058.320000000065","{""judgement"":1}","[0]","survey-likert","287","647767","0.0-287.0","qfh1j7q9","","","","","","","","1"
"1973.4600000000792","{""confidence"":2}","[0]","survey-likert","288","649742","0.0-288.0","qfh1j7q9","","","","","","","",""
"","","","call-function","289","649743","0.0-289.0","qfh1j7q9","","","","","","","",""
"null","","","html-keyboard-response","290","651246","0.0-290.0","qfh1j7q9","","<span style=""color:Black; font-size:50px;"">Agent A","null","","","","",""
"null","","","video-keyboard-response","291","654339","0.0-291.0","qfh1j7q9","","","null","","Agent A","veridical","STIM_SET_2_144/107909.bmp_pp95_L2_V1.0_veridical_freeview_isoTrue_fps144.mp4",""
"null","","","html-keyboard-response","292","655843","0.0-292.0","qfh1j7q9","","<span style=""color:Black; font-size:50px;"">Agent B","null","","","","",""
"null","","","video-keyboard-response","293","658916","0.0-293.0","qfh1j7q9","","","null","","Agent B","scrambled","STIM_SET_5/107909.bmp_pp95_L2_V1.0_veridical_freeview_isoTrue_Hflip_fps144.mp4",""
"","","","call-function","294","658916","0.0-294.0","qfh1j7q9","","","","","","","",""
"6986.769999999902","{""judgement"":0}","[0]","survey-likert","295","665904","0.0-295.0","qfh1j7q9","","","","","","","","0"
"3007.560000000056","{""confidence"":1}","[0]","survey-likert","296","668913","0.0-296.0","qfh1j7q9","","","","","","","",""
"","","","call-function","297","668913","0.0-297.0","qfh1j7q9","","","","","","","",""
"null","","","html-keyboard-response","298","670419","0.0-298.0","qfh1j7q9","","<span style=""color:Black; font-size:50px;"">Agent A","null","","","","",""
"null","","","video-keyboard-response","299","673496","0.0-299.0","qfh1j7q9","","","null","","Agent A","veridical","STIM_SET_2_144/713633.bmp_pp58_L1_V1.0_veridical_freeview_isoTrue_fps144.mp4",""
"null","","","html-keyboard-response","300","674998","0.0-300.0","qfh1j7q9","","<span style=""color:Black; font-size:50px;"">Agent B","null","","","","",""
"null","","","video-keyboard-response","301","678076","0.0-301.0","qfh1j7q9","","","null","","Agent B","scrambled","STIM_SET_5/713633.bmp_pp58_L1_V1.0_veridical_freeview_isoTrue_Hflip_fps144.mp4",""
"","","","call-function","302","678076","0.0-302.0","qfh1j7q9","","","","","","","",""
"2584.6350000000093","{""judgement"":1}","[0]","survey-likert","303","680662","0.0-303.0","qfh1j7q9","","","","","","","","0"
"1396.4099999999162","{""confidence"":1}","[0]","survey-likert","304","682059","0.0-304.0","qfh1j7q9","","","","","","","",""
"","","","call-function","305","682060","0.0-305.0","qfh1j7q9","","","","","","","",""
"null","","","html-keyboard-response","306","683565","0.0-306.0","qfh1j7q9","","<span style=""color:Black; font-size:50px;"">Agent A","null","","","","",""
"null","","","video-keyboard-response","307","686626","0.0-307.0","qfh1j7q9","","","null","","Agent A","veridical","STIM_SET_2_144/1592017.bmp_pp154_L1_V1.0_veridical_freeview_isoTrue_fps144.mp4",""
"null","","","html-keyboard-response","308","688130","0.0-308.0","qfh1j7q9","","<span style=""color:Black; font-size:50px;"">Agent B","null","","","","",""
"null","","","video-keyboard-response","309","691203","0.0-309.0","qfh1j7q9","","","null","","Agent B","scrambled","STIM_SET_5/1592017.bmp_pp154_L1_V1.0_veridical_freeview_isoTrue_Hflip_fps144.mp4",""
"","","","call-function","310","691204","0.0-310.0","qfh1j7q9","","","","","","","",""
"4285.0599999999395","{""judgement"":0}","[0]","survey-likert","311","695490","0.0-311.0","qfh1j7q9","","","","","","","","0"
"1536.7799999999115","{""confidence"":2}","[0]","survey-likert","312","697028","0.0-312.0","qfh1j7q9","","","","","","","",""
"","","","call-function","313","697028","0.0-313.0","qfh1j7q9","","","","","","","",""
"null","","","html-keyboard-response","314","698532","0.0-314.0","qfh1j7q9","","<span style=""color:Black; font-size:50px;"">Agent A","null","","","","",""
"null","","","video-keyboard-response","315","701624","0.0-315.0","qfh1j7q9","","","null","","Agent A","scrambled","STIM_SET_5/1159592.bmp_pp91_L3_V1.0_veridical_freeview_isoTrue_Hflip_fps144.mp4",""
"null","","","html-keyboard-response","316","703128","0.0-316.0","qfh1j7q9","","<span style=""color:Black; font-size:50px;"">Agent B","null","","","","",""
"null","","","video-keyboard-response","317","706220","0.0-317.0","qfh1j7q9","","","null","","Agent B","veridical","STIM_SET_2_144/1159592.bmp_pp91_L3_V1.0_veridical_freeview_isoTrue_fps144.mp4",""
"","","","call-function","318","706221","0.0-318.0","qfh1j7q9","","","","","","","",""
"3674.2450000001118","{""judgement"":1}","[0]","survey-likert","319","709896","0.0-319.0","qfh1j7q9","","","","","","","","1"
"1334.3549999999814","{""confidence"":1}","[0]","survey-likert","320","711232","0.0-320.0","qfh1j7q9","","","","","","","",""
"","","","call-function","321","711232","0.0-321.0","qfh1j7q9","","","","","","","",""
"null","","","html-keyboard-response","322","712736","0.0-322.0","qfh1j7q9","","<span style=""color:Black; font-size:50px;"">Agent A","null","","","","",""
"null","","","video-keyboard-response","323","715836","0.0-323.0","qfh1j7q9","","","null","","Agent A","veridical","STIM_SET_2_144/498025.bmp_pp81_L1_V1.0_veridical_freeview_isoTrue_fps144.mp4",""
"null","","","html-keyboard-response","324","717340","0.0-324.0","qfh1j7q9","","<span style=""color:Black; font-size:50px;"">Agent B","null","","","","",""
"null","","","video-keyboard-response","325","720440","0.0-325.0","qfh1j7q9","","","null","","Agent B","scrambled","STIM_SET_5/498025.bmp_pp81_L1_V1.0_veridical_freeview_isoTrue_Hflip_fps144.mp4",""
"","","","call-function","326","720441","0.0-326.0","qfh1j7q9","","","","","","","",""
"3189.070000000065","{""judgement"":1}","[0]","survey-likert","327","723631","0.0-327.0","qfh1j7q9","","","","","","","","0"
"3394.045000000042","{""confidence"":0}","[0]","survey-likert","328","727026","0.0-328.0","qfh1j7q9","","","","","","","",""
"","","","call-function","329","727026","0.0-329.0","qfh1j7q9","","","","","","","",""
"736.234999999986","","","html-keyboard-response","330","727763","0.0-330.0","qfh1j7q9","","<span style=""color:Black; font-size:50px;"">Agent A","98","","","","",""
"null","","","video-keyboard-response","331","730835","0.0-331.0","qfh1j7q9","","","null","","Agent A","scrambled","STIM_SET_5/1592747.bmp_pp53_L2_V1.0_veridical_freeview_isoTrue_Hflip_fps144.mp4",""
"null","","","html-keyboard-response","332","732338","0.0-332.0","qfh1j7q9","","<span style=""color:Black; font-size:50px;"">Agent B","null","","","","",""
"null","","","video-keyboard-response","333","735411","0.0-333.0","qfh1j7q9","","","null","","Agent B","veridical","STIM_SET_2_144/1592747.bmp_pp53_L2_V1.0_veridical_freeview_isoTrue_fps144.mp4",""
"","","","call-function","334","735412","0.0-334.0","qfh1j7q9","","","","","","","",""
"4008.4150000000373","{""judgement"":0}","[0]","survey-likert","335","739422","0.0-335.0","qfh1j7q9","","","","","","","","1"
"827.7249999999767","{""confidence"":1}","[0]","survey-likert","336","740251","0.0-336.0","qfh1j7q9","","","","","","","",""
"2532.170000000042","","","instructions","337","742784","0.0-337.0","qfh1j7q9","[{""page_index"":0,""viewing_time"":2157.2850000000326},{""page_index"":1,""viewing_time"":193.8949999999022},{""page_index"":2,""viewing_time"":180.77000000001863}]","","","","","","",""
"753.0499999999302","","","instructions","338","743538","0.0-338.0","qfh1j7q9","[{""page_index"":0,""viewing_time"":197.29999999993015},{""page_index"":1,""viewing_time"":164.9200000000419},{""page_index"":2,""viewing_time"":390.7249999999767}]","","","","","","",""
"","","","call-function","339","743539","0.0-339.0","qfh1j7q9","","","","","","","",""
"null","","","html-keyboard-response","340","745043","0.0-340.0","qfh1j7q9","","<span style=""color:Black; font-size:50px;"">Agent A","null","","","","",""
"null","","","video-keyboard-response","341","748105","0.0-341.0","qfh1j7q9","","","null","","Agent A","veridical","STIM_SET_2_144/285684.bmp_pp80_L3_V1.0_veridical_freeview_isoTrue_fps144.mp4",""
"null","","","html-keyboard-response","342","749612","0.0-342.0","qfh1j7q9","","<span style=""color:Black; font-size:50px;"">Agent B","null","","","","",""
"null","","","video-keyboard-response","343","752674","0.0-343.0","qfh1j7q9","","","null","","Agent B","scrambled","STIM_SET_5/285684.bmp_pp80_L3_V1.0_veridical_freeview_isoTrue_Hflip_fps144.mp4",""
"","","","call-function","344","752675","0.0-344.0","qfh1j7q9","","","","","","","",""
"1595.4400000000605","{""judgement"":0}","[0]","survey-likert","345","754271","0.0-345.0","qfh1j7q9","","","","","","","","0"
"1700.920000000042","{""confidence"":2}","[0]","survey-likert","346","755973","0.0-346.0","qfh1j7q9","","","","","","","",""
"","","","call-function","347","755974","0.0-347.0","qfh1j7q9","","","","","","","",""
"null","","","html-keyboard-response","348","757476","0.0-348.0","qfh1j7q9","","<span style=""color:Black; font-size:50px;"">Agent A","null","","","","",""
"null","","","video-keyboard-response","349","760551","0.0-349.0","qfh1j7q9","","","null","","Agent A","veridical","STIM_SET_2_144/285959.bmp_pp93_L1_V1.0_veridical_freeview_isoTrue_fps144.mp4",""
"null","","","html-keyboard-response","350","762057","0.0-350.0","qfh1j7q9","","<span style=""color:Black; font-size:50px;"">Agent B","null","","","","",""
"null","","","video-keyboard-response","351","765147","0.0-351.0","qfh1j7q9","","","null","","Agent B","scrambled","STIM_SET_5/285959.bmp_pp93_L1_V1.0_veridical_freeview_isoTrue_Hflip_fps144.mp4",""
"","","","call-function","352","765148","0.0-352.0","qfh1j7q9","","","","","","","",""
"2791.980000000098","{""judgement"":1}","[0]","survey-likert","353","767941","0.0-353.0","qfh1j7q9","","","","","","","","0"
"1961.155000000028","{""confidence"":1}","[0]","survey-likert","354","769903","0.0-354.0","qfh1j7q9","","","","","","","",""
"","","","call-function","355","769904","0.0-355.0","qfh1j7q9","","","","","","","",""
"null","","","html-keyboard-response","356","771409","0.0-356.0","qfh1j7q9","","<span style=""color:Black; font-size:50px;"">Agent A","null","","","","",""
"null","","","video-keyboard-response","357","774486","0.0-357.0","qfh1j7q9","","","null","","Agent A","veridical","STIM_SET_2_144/498326.bmp_pp57_L1_V1.0_veridical_freeview_isoTrue_fps144.mp4",""
"null","","","html-keyboard-response","358","775992","0.0-358.0","qfh1j7q9","","<span style=""color:Black; font-size:50px;"">Agent B","null","","","","",""
"null","","","video-keyboard-response","359","779067","0.0-359.0","qfh1j7q9","","","null","","Agent B","scrambled","STIM_SET_5/498326.bmp_pp57_L1_V1.0_veridical_freeview_isoTrue_Hflip_fps144.mp4",""
"","","","call-function","360","779067","0.0-360.0","qfh1j7q9","","","","","","","",""
"3723.475000000093","{""judgement"":0}","[0]","survey-likert","361","782792","0.0-361.0","qfh1j7q9","","","","","","","","0"
"1780.875","{""confidence"":1}","[0]","survey-likert","362","784574","0.0-362.0","qfh1j7q9","","","","","","","",""
"","","","call-function","363","784574","0.0-363.0","qfh1j7q9","","","","","","","",""
"null","","","html-keyboard-response","364","786076","0.0-364.0","qfh1j7q9","","<span style=""color:Black; font-size:50px;"">Agent A","null","","","","",""
"null","","","video-keyboard-response","365","789153","0.0-365.0","qfh1j7q9","","","null","","Agent A","veridical","STIM_SET_2_144/285715.bmp_pp67_L2_V1.0_veridical_freeview_isoTrue_fps144.mp4",""
"null","","","html-keyboard-response","366","790655","0.0-366.0","qfh1j7q9","","<span style=""color:Black; font-size:50px;"">Agent B","null","","","","",""
"null","","","video-keyboard-response","367","793732","0.0-367.0","qfh1j7q9","","","null","","Agent B","scrambled","STIM_SET_5/285715.bmp_pp67_L2_V1.0_veridical_freeview_isoTrue_Hflip_fps144.mp4",""
"","","","call-function","368","793733","0.0-368.0","qfh1j7q9","","","","","","","",""
"7444.680000000051","{""judgement"":1}","[0]","survey-likert","369","801179","0.0-369.0","qfh1j7q9","","","","","","","","0"
"3514.0400000000373","{""confidence"":1}","[0]","survey-likert","370","804694","0.0-370.0","qfh1j7q9","","","","","","","",""
"","","","call-function","371","804695","0.0-371.0","qfh1j7q9","","","","","","","",""
"null","","","html-keyboard-response","372","806200","0.0-372.0","qfh1j7q9","","<span style=""color:Black; font-size:50px;"">Agent A","null","","","","",""
"null","","","video-keyboard-response","373","809269","0.0-373.0","qfh1j7q9","","","null","","Agent A","scrambled","STIM_SET_5/1592298.bmp_pp56_L3_V1.0_veridical_freeview_isoTrue_Hflip_fps144.mp4",""
"null","","","html-keyboard-response","374","810773","0.0-374.0","qfh1j7q9","","<span style=""color:Black; font-size:50px;"">Agent B","null","","","","",""
"null","","","video-keyboard-response","375","813845","0.0-375.0","qfh1j7q9","","","null","","Agent B","veridical","STIM_SET_2_144/1592298.bmp_pp56_L3_V1.0_veridical_freeview_isoTrue_fps144.mp4",""
"","","","call-function","376","813846","0.0-376.0","qfh1j7q9","","","","","","","",""
"6013.614999999991","{""judgement"":0}","[0]","survey-likert","377","819860","0.0-377.0","qfh1j7q9","","","","","","","","1"
"4154.5","{""confidence"":0}","[0]","survey-likert","378","824016","0.0-378.0","qfh1j7q9","","","","","","","",""
"","","","call-function","379","824017","0.0-379.0","qfh1j7q9","","","","","","","",""
"null","","","html-keyboard-response","380","825522","0.0-380.0","qfh1j7q9","","<span style=""color:Black; font-size:50px;"">Agent A","null","","","","",""
"null","","","video-keyboard-response","381","828594","0.0-381.0","qfh1j7q9","","","null","","Agent A","veridical","STIM_SET_2_144/1592921.bmp_pp69_L3_V1.0_veridical_freeview_isoTrue_fps144.mp4",""
"null","","","html-keyboard-response","382","830097","0.0-382.0","qfh1j7q9","","<span style=""color:Black; font-size:50px;"">Agent B","null","","","","",""
"null","","","video-keyboard-response","383","833167","0.0-383.0","qfh1j7q9","","","null","","Agent B","scrambled","STIM_SET_5/1592921.bmp_pp69_L3_V1.0_veridical_freeview_isoTrue_Hflip_fps144.mp4",""
"","","","call-function","384","833167","0.0-384.0","qfh1j7q9","","","","","","","",""
"2641.409999999916","{""judgement"":0}","[0]","survey-likert","385","835809","0.0-385.0","qfh1j7q9","","","","","","","","0"
"1164.094999999972","{""confidence"":2}","[0]","survey-likert","386","836975","0.0-386.0","qfh1j7q9","","","","","","","",""
"","","","call-function","387","836975","0.0-387.0","qfh1j7q9","","","","","","","",""
"null","","","html-keyboard-response","388","838482","0.0-388.0","qfh1j7q9","","<span style=""color:Black; font-size:50px;"">Agent A","null","","","","",""
"null","","","video-keyboard-response","389","841562","0.0-389.0","qfh1j7q9","","","null","","Agent A","scrambled","STIM_SET_5/1592047.bmp_pp51_L1_V1.0_veridical_freeview_isoTrue_Hflip_fps144.mp4",""
"null","","","html-keyboard-response","390","843066","0.0-390.0","qfh1j7q9","","<span style=""color:Black; font-size:50px;"">Agent B","null","","","","",""
"null","","","video-keyboard-response","391","846146","0.0-391.0","qfh1j7q9","","","null","","Agent B","veridical","STIM_SET_2_144/1592047.bmp_pp51_L1_V1.0_veridical_freeview_isoTrue_fps144.mp4",""
"","","","call-function","392","846147","0.0-392.0","qfh1j7q9","","","","","","","",""
"2512.2149999999674","{""judgement"":1}","[0]","survey-likert","393","848660","0.0-393.0","qfh1j7q9","","","","","","","","1"
"1598.9799999999814","{""confidence"":2}","[0]","survey-likert","394","850260","0.0-394.0","qfh1j7q9","","","","","","","",""
"","","","call-function","395","850261","0.0-395.0","qfh1j7q9","","","","","","","",""
"null","","","html-keyboard-response","396","851763","0.0-396.0","qfh1j7q9","","<span style=""color:Black; font-size:50px;"">Agent A","null","","","","",""
"null","","","video-keyboard-response","397","854843","0.0-397.0","qfh1j7q9","","","null","","Agent A","veridical","STIM_SET_2_144/713652.bmp_pp89_L1_V1_veridical_freeview_isoTrue_fps144.mp4",""
"null","","","html-keyboard-response","398","856345","0.0-398.0","qfh1j7q9","","<span style=""color:Black; font-size:50px;"">Agent B","null","","","","",""
"null","","","video-keyboard-response","399","859422","0.0-399.0","qfh1j7q9","","","null","","Agent B","scrambled","STIM_SET_5/713652.bmp_pp89_L1_V1_veridical_freeview_isoTrue_Hflip_fps144.mp4",""
"","","","call-function","400","859423","0.0-400.0","qfh1j7q9","","","","","","","",""
"3677.2600000000093","{""judgement"":0}","[0]","survey-likert","401","863102","0.0-401.0","qfh1j7q9","","","","","","","","0"
"1580.9349999999395","{""confidence"":1}","[0]","survey-likert","402","864686","0.0-402.0","qfh1j7q9","","","","","","","",""
"","","","call-function","403","864687","0.0-403.0","qfh1j7q9","","","","","","","",""
"null","","","html-keyboard-response","404","866190","0.0-404.0","qfh1j7q9","","<span style=""color:Black; font-size:50px;"">Agent A","null","","","","",""
"null","","","video-keyboard-response","405","869277","0.0-405.0","qfh1j7q9","","","null","","Agent A","veridical","STIM_SET_2_144/285946.bmp_pp79_L2_V1.0_veridical_freeview_isoTrue_fps144.mp4",""
"null","","","html-keyboard-response","406","870780","0.0-406.0","qfh1j7q9","","<span style=""color:Black; font-size:50px;"">Agent B","null","","","","",""
"null","","","video-keyboard-response","407","873864","0.0-407.0","qfh1j7q9","","","null","","Agent B","scrambled","STIM_SET_5/285946.bmp_pp79_L2_V1.0_veridical_freeview_isoTrue_Hflip_fps144.mp4",""
"","","","call-function","408","873865","0.0-408.0","qfh1j7q9","","","","","","","",""
"3271.140000000014","{""judgement"":0}","[0]","survey-likert","409","877137","0.0-409.0","qfh1j7q9","","","","","","","","0"
"783.7999999999302","{""confidence"":1}","[0]","survey-likert","410","877923","0.0-410.0","qfh1j7q9","","","","","","","",""
"","","","call-function","411","877924","0.0-411.0","qfh1j7q9","","","","","","","",""
"null","","","html-keyboard-response","412","879429","0.0-412.0","qfh1j7q9","","<span style=""color:Black; font-size:50px;"">Agent A","null","","","","",""
"null","","","video-keyboard-response","413","882501","0.0-413.0","qfh1j7q9","","","null","","Agent A","veridical","STIM_SET_2_144/150277.bmp_pp65_L3_V1.0_veridical_freeview_isoTrue_fps144.mp4",""
"null","","","html-keyboard-response","414","884004","0.0-414.0","qfh1j7q9","","<span style=""color:Black; font-size:50px;"">Agent B","null","","","","",""
"null","","","video-keyboard-response","415","887073","0.0-415.0","qfh1j7q9","","","null","","Agent B","scrambled","STIM_SET_5/150277.bmp_pp65_L3_V1.0_veridical_freeview_isoTrue_Hflip_fps144.mp4",""
"","","","call-function","416","887074","0.0-416.0","qfh1j7q9","","","","","","","",""
"3104.609999999986","{""judgement"":0}","[0]","survey-likert","417","890179","0.0-417.0","qfh1j7q9","","","","","","","","0"
"822.8950000000186","{""confidence"":2}","[0]","survey-likert","418","891003","0.0-418.0","qfh1j7q9","","","","","","","",""
"1667.6600000000326","","","instructions","419","892672","0.0-419.0","qfh1j7q9","[{""page_index"":0,""viewing_time"":1095.4100000000326},{""page_index"":1,""viewing_time"":317.59499999997206},{""page_index"":2,""viewing_time"":254.43500000005588}]","","","","","","",""
"712.1350000000093","","","instructions","420","893384","0.0-420.0","qfh1j7q9","[{""page_index"":0,""viewing_time"":167.2399999999907},{""page_index"":1,""viewing_time"":137.0100000000093},{""page_index"":2,""viewing_time"":407.6700000000419}]","","","","","","",""
"","","","call-function","421","893385","0.0-421.0","qfh1j7q9","","","","","","","",""
"null","","","html-keyboard-response","422","894890","0.0-422.0","qfh1j7q9","","<span style=""color:Black; font-size:50px;"">Agent A","null","","","","",""
"null","","","video-keyboard-response","423","897976","0.0-423.0","qfh1j7q9","","","null","","Agent A","scrambled","STIM_SET_5/1160204.bmp_pp54_L2_V1.0_veridical_freeview_isoTrue_Hflip_fps144.mp4",""
"null","","","html-keyboard-response","424","899479","0.0-424.0","qfh1j7q9","","<span style=""color:Black; font-size:50px;"">Agent B","null","","","","",""
"null","","","video-keyboard-response","425","902561","0.0-425.0","qfh1j7q9","","","null","","Agent B","veridical","STIM_SET_2_144/1160204.bmp_pp54_L2_V1.0_veridical_freeview_isoTrue_fps144.mp4",""
"","","","call-function","426","902562","0.0-426.0","qfh1j7q9","","","","","","","",""
"2621.180000000051","{""judgement"":1}","[0]","survey-likert","427","905184","0.0-427.0","qfh1j7q9","","","","","","","","1"
"1537.7300000000978","{""confidence"":1}","[0]","survey-likert","428","906723","0.0-428.0","qfh1j7q9","","","","","","","",""
"","","","call-function","429","906724","0.0-429.0","qfh1j7q9","","","","","","","",""
"null","","","html-keyboard-response","430","908230","0.0-430.0","qfh1j7q9","","<span style=""color:Black; font-size:50px;"">Agent A","null","","","","",""
"null","","","video-keyboard-response","431","911304","0.0-431.0","qfh1j7q9","","","null","","Agent A","veridical","STIM_SET_2_144/1159392.bmp_pp96_L2_V1.0_veridical_freeview_isoTrue_fps144.mp4",""
"null","","","html-keyboard-response","432","912806","0.0-432.0","qfh1j7q9","","<span style=""color:Black; font-size:50px;"">Agent B","null","","","","",""
"null","","","video-keyboard-response","433","915882","0.0-433.0","qfh1j7q9","","","null","","Agent B","scrambled","STIM_SET_5/1159392.bmp_pp96_L2_V1.0_veridical_freeview_isoTrue_Hflip_fps144.mp4",""
"","","","call-function","434","915883","0.0-434.0","qfh1j7q9","","","","","","","",""
"1992.4899999999907","{""judgement"":0}","[0]","survey-likert","435","917876","0.0-435.0","qfh1j7q9","","","","","","","","0"
"1378.0249999999069","{""confidence"":2}","[0]","survey-likert","436","919255","0.0-436.0","qfh1j7q9","","","","","","","",""
"","","","call-function","437","919256","0.0-437.0","qfh1j7q9","","","","","","","",""
"null","","","html-keyboard-response","438","920761","0.0-438.0","qfh1j7q9","","<span style=""color:Black; font-size:50px;"">Agent A","null","","","","",""
"null","","","video-keyboard-response","439","923852","0.0-439.0","qfh1j7q9","","","null","","Agent A","scrambled","STIM_SET_5/713858.bmp_pp57_L1_V1.0_veridical_freeview_isoTrue_Hflip_fps144.mp4",""
"null","","","html-keyboard-response","440","925355","0.0-440.0","qfh1j7q9","","<span style=""color:Black; font-size:50px;"">Agent B","null","","","","",""
"null","","","video-keyboard-response","441","928450","0.0-441.0","qfh1j7q9","","","null","","Agent B","veridical","STIM_SET_2_144/713858.bmp_pp57_L1_V1.0_veridical_freeview_isoTrue_fps144.mp4",""
"","","","call-function","442","928451","0.0-442.0","qfh1j7q9","","","","","","","",""
"5272.739999999991","{""judgement"":0}","[0]","survey-likert","443","933725","0.0-443.0","qfh1j7q9","","","","","","","","1"
"1464.3649999999907","{""confidence"":0}","[0]","survey-likert","444","935190","0.0-444.0","qfh1j7q9","","","","","","","",""
"","","","call-function","445","935191","0.0-445.0","qfh1j7q9","","","","","","","",""
"null","","","html-keyboard-response","446","936692","0.0-446.0","qfh1j7q9","","<span style=""color:Black; font-size:50px;"">Agent A","null","","","","",""
"null","","","video-keyboard-response","447","939760","0.0-447.0","qfh1j7q9","","","null","","Agent A","veridical","STIM_SET_2_144/1159819.bmp_pp151_L1_V1.0_veridical_freeview_isoTrue_fps144.mp4",""
"null","","","html-keyboard-response","448","941263","0.0-448.0","qfh1j7q9","","<span style=""color:Black; font-size:50px;"">Agent B","null","","","","",""
"null","","","video-keyboard-response","449","944332","0.0-449.0","qfh1j7q9","","","null","","Agent B","scrambled","STIM_SET_5/1159819.bmp_pp151_L1_V1.0_veridical_freeview_isoTrue_Hflip_fps144.mp4",""
"","","","call-function","450","944333","0.0-450.0","qfh1j7q9","","","","","","","",""
"3419.460000000079","{""judgement"":1}","[0]","survey-likert","451","947753","0.0-451.0","qfh1j7q9","","","","","","","","0"
"3923.2700000000186","{""confidence"":1}","[0]","survey-likert","452","951678","0.0-452.0","qfh1j7q9","","","","","","","",""
"","","","call-function","453","951678","0.0-453.0","qfh1j7q9","","","","","","","",""
"null","","","html-keyboard-response","454","953182","0.0-454.0","qfh1j7q9","","<span style=""color:Black; font-size:50px;"">Agent A","null","","","","",""
"null","","","video-keyboard-response","455","956247","0.0-455.0","qfh1j7q9","","","null","","Agent A","scrambled","STIM_SET_5/713328.bmp_pp86_L2_V1.0_veridical_freeview_isoTrue_Hflip_fps144.mp4",""
"null","","","html-keyboard-response","456","957754","0.0-456.0","qfh1j7q9","","<span style=""color:Black; font-size:50px;"">Agent B","null","","","","",""
"null","","","video-keyboard-response","457","960815","0.0-457.0","qfh1j7q9","","","null","","Agent B","veridical","STIM_SET_2_144/713328.bmp_pp86_L2_V1.0_veridical_freeview_isoTrue_fps144.mp4",""
"","","","call-function","458","960816","0.0-458.0","qfh1j7q9","","","","","","","",""
"2640.4649999999674","{""judgement"":1}","[0]","survey-likert","459","963457","0.0-459.0","qfh1j7q9","","","","","","","","1"
"1526.8699999999953","{""confidence"":2}","[0]","survey-likert","460","964985","0.0-460.0","qfh1j7q9","","","","","","","",""
"","","","call-function","461","964986","0.0-461.0","qfh1j7q9","","","","","","","",""
"null","","","html-keyboard-response","462","966489","0.0-462.0","qfh1j7q9","","<span style=""color:Black; font-size:50px;"">Agent A","null","","","","",""
"null","","","video-keyboard-response","463","969566","0.0-463.0","qfh1j7q9","","","null","","Agent A","scrambled","STIM_SET_5/713829.bmp_pp60_L3_V1.0_veridical_freeview_isoTrue_Hflip_fps144.mp4",""
"null","","","html-keyboard-response","464","971069","0.0-464.0","qfh1j7q9","","<span style=""color:Black; font-size:50px;"">Agent B","null","","","","",""
"null","","","video-keyboard-response","465","974145","0.0-465.0","qfh1j7q9","","","null","","Agent B","veridical","STIM_SET_2_144/713829.bmp_pp60_L3_V1.0_veridical_freeview_isoTrue_fps144.mp4",""
"","","","call-function","466","974145","0.0-466.0","qfh1j7q9","","","","","","","",""
"5239.195000000065","{""judgement"":1}","[0]","survey-likert","467","979385","0.0-467.0","qfh1j7q9","","","","","","","","1"
"975.8549999999814","{""confidence"":1}","[0]","survey-likert","468","980362","0.0-468.0","qfh1j7q9","","","","","","","",""
"","","","call-function","469","980363","0.0-469.0","qfh1j7q9","","","","","","","",""
"null","","","html-keyboard-response","470","981865","0.0-470.0","qfh1j7q9","","<span style=""color:Black; font-size:50px;"">Agent A","null","","","","",""
"null","","","video-keyboard-response","471","984953","0.0-471.0","qfh1j7q9","","","null","","Agent A","veridical","STIM_SET_2_144/1160189.bmp_pp64_L1_V1.0_veridical_freeview_isoTrue_fps144.mp4",""
"null","","","html-keyboard-response","472","986456","0.0-472.0","qfh1j7q9","","<span style=""color:Black; font-size:50px;"">Agent B","null","","","","",""
"null","","","video-keyboard-response","473","989523","0.0-473.0","qfh1j7q9","","","null","","Agent B","scrambled","STIM_SET_5/1160189.bmp_pp64_L1_V1.0_veridical_freeview_isoTrue_Hflip_fps144.mp4",""
"","","","call-function","474","989524","0.0-474.0","qfh1j7q9","","","","","","","",""
"2889.82500000007","{""judgement"":1}","[0]","survey-likert","475","992416","0.0-475.0","qfh1j7q9","","","","","","","","0"
"2095.0999999999767","{""confidence"":1}","[0]","survey-likert","476","994512","0.0-476.0","qfh1j7q9","","","","","","","",""
"","","","call-function","477","994513","0.0-477.0","qfh1j7q9","","","","","","","",""
"null","","","html-keyboard-response","478","996016","0.0-478.0","qfh1j7q9","","<span style=""color:Black; font-size:50px;"">Agent A","null","","","","",""
"null","","","video-keyboard-response","479","999089","0.0-479.0","qfh1j7q9","","","null","","Agent A","scrambled","STIM_SET_5/498372.bmp_pp95_L2_V1_veridical_freeview_isoTrue_Hflip_fps144.mp4",""
"460.8950000000186","","","html-keyboard-response","480","999552","0.0-480.0","qfh1j7q9","","<span style=""color:Black; font-size:50px;"">Agent B","13","","","","",""
"null","","","video-keyboard-response","481","1002627","0.0-481.0","qfh1j7q9","","","null","","Agent B","veridical","STIM_SET_2_144/498372.bmp_pp95_L2_V1_veridical_freeview_isoTrue_fps144.mp4",""
"","","","call-function","482","1002628","0.0-482.0","qfh1j7q9","","","","","","","",""
"4785.784999999916","{""judgement"":1}","[0]","survey-likert","483","1007415","0.0-483.0","qfh1j7q9","","","","","","","","1"
"1037.6049999999814","{""confidence"":1}","[0]","survey-likert","484","1008454","0.0-484.0","qfh1j7q9","","","","","","","",""
"","","","call-function","485","1008454","0.0-485.0","qfh1j7q9","","","","","","","",""
"null","","","html-keyboard-response","486","1009956","0.0-486.0","qfh1j7q9","","<span style=""color:Black; font-size:50px;"">Agent A","null","","","","",""
"null","","","video-keyboard-response","487","1013015","0.0-487.0","qfh1j7q9","","","null","","Agent A","veridical","STIM_SET_2_144/1592567.bmp_pp70_L2_V1.0_veridical_freeview_isoTrue_fps144.mp4",""
"null","","","html-keyboard-response","488","1014522","0.0-488.0","qfh1j7q9","","<span style=""color:Black; font-size:50px;"">Agent B","null","","","","",""
"null","","","video-keyboard-response","489","1017598","0.0-489.0","qfh1j7q9","","","null","","Agent B","scrambled","STIM_SET_5/1592567.bmp_pp70_L2_V1.0_veridical_freeview_isoTrue_Hflip_fps144.mp4",""
"","","","call-function","490","1017599","0.0-490.0","qfh1j7q9","","","","","","","",""
"3518.5050000000047","{""judgement"":1}","[0]","survey-likert","491","1021118","0.0-491.0","qfh1j7q9","","","","","","","","0"
"2153.8549999999814","{""confidence"":1}","[0]","survey-likert","492","1023274","0.0-492.0","qfh1j7q9","","","","","","","",""
"","","","call-function","493","1023274","0.0-493.0","qfh1j7q9","","","","","","","",""
"null","","","html-keyboard-response","494","1024779","0.0-494.0","qfh1j7q9","","<span style=""color:Black; font-size:50px;"">Agent A","null","","","","",""
"null","","","video-keyboard-response","495","1027865","0.0-495.0","qfh1j7q9","","","null","","Agent A","scrambled","STIM_SET_5/713742.bmp_pp91_L3_V1.0_veridical_freeview_isoTrue_Hflip_fps144.mp4",""
"null","","","html-keyboard-response","496","1029369","0.0-496.0","qfh1j7q9","","<span style=""color:Black; font-size:50px;"">Agent B","null","","","","",""
"null","","","video-keyboard-response","497","1032458","0.0-497.0","qfh1j7q9","","","null","","Agent B","veridical","STIM_SET_2_144/713742.bmp_pp91_L3_V1.0_veridical_freeview_isoTrue_fps144.mp4",""
"","","","call-function","498","1032459","0.0-498.0","qfh1j7q9","","","","","","","",""
"2007.6350000000093","{""judgement"":1}","[0]","survey-likert","499","1034467","0.0-499.0","qfh1j7q9","","","","","","","","1"
"2358.484999999986","{""confidence"":2}","[0]","survey-likert","500","1036827","0.0-500.0","qfh1j7q9","","","","","","","",""
"1542.9949999999953","","","instructions","501","1038371","0.0-501.0","qfh1j7q9","[{""page_index"":0,""viewing_time"":1037.0599999999395},{""page_index"":1,""viewing_time"":326.3850000000093},{""page_index"":2,""viewing_time"":179.32500000006985}]","","","","","","",""
"3839.2299999999814","","","instructions","502","1042211","0.0-502.0","qfh1j7q9","[{""page_index"":0,""viewing_time"":148.125},{""page_index"":1,""viewing_time"":143.03000000002794},{""page_index"":2,""viewing_time"":938.0100000000093},{""page_index"":1,""viewing_time"":1444.5399999999208},{""page_index"":0,""viewing_time"":624.1050000000978},{""page_index"":1,""viewing_time"":157.34999999997672},{""page_index"":2,""viewing_time"":383.95999999996275}]","","","","","","",""
"","","","call-function","503","1042211","0.0-503.0","qfh1j7q9","","","","","","","",""
"null","","","html-keyboard-response","504","1043715","0.0-504.0","qfh1j7q9","","<span style=""color:Black; font-size:50px;"">Agent A","null","","","","",""
"null","","","video-keyboard-response","505","1046798","0.0-505.0","qfh1j7q9","","","null","","Agent A","scrambled","STIM_SET_5/150463.bmp_pp55_L3_V1.0_veridical_freeview_isoTrue_Hflip_fps144.mp4",""
"null","","","html-keyboard-response","506","1048303","0.0-506.0","qfh1j7q9","","<span style=""color:Black; font-size:50px;"">Agent B","null","","","","",""
"null","","","video-keyboard-response","507","1051383","0.0-507.0","qfh1j7q9","","","null","","Agent B","veridical","STIM_SET_2_144/150463.bmp_pp55_L3_V1.0_veridical_freeview_isoTrue_fps144.mp4",""
"","","","call-function","508","1051384","0.0-508.0","qfh1j7q9","","","","","","","",""
"13724.665000000037","{""judgement"":1}","[0]","survey-likert","509","1065109","0.0-509.0","qfh1j7q9","","","","","","","","1"
"2890.910000000149","{""confidence"":0}","[0]","survey-likert","510","1068002","0.0-510.0","qfh1j7q9","","","","","","","",""
"","","","call-function","511","1068002","0.0-511.0","qfh1j7q9","","","","","","","",""
"null","","","html-keyboard-response","512","1069506","0.0-512.0","qfh1j7q9","","<span style=""color:Black; font-size:50px;"">Agent A","null","","","","",""
"null","","","video-keyboard-response","513","1072576","0.0-513.0","qfh1j7q9","","","null","","Agent A","veridical","STIM_SET_2_144/1592025.bmp_pp68_L1_V1.0_veridical_freeview_isoTrue_fps144.mp4",""
"null","","","html-keyboard-response","514","1074081","0.0-514.0","qfh1j7q9","","<span style=""color:Black; font-size:50px;"">Agent B","null","","","","",""
"null","","","video-keyboard-response","515","1077154","0.0-515.0","qfh1j7q9","","","null","","Agent B","scrambled","STIM_SET_5/1592025.bmp_pp68_L1_V1.0_veridical_freeview_isoTrue_Hflip_fps144.mp4",""
"","","","call-function","516","1077155","0.0-516.0","qfh1j7q9","","","","","","","",""
"2069.945000000065","{""judgement"":0}","[0]","survey-likert","517","1079226","0.0-517.0","qfh1j7q9","","","","","","","","0"
"1991.3050000001676","{""confidence"":1}","[0]","survey-likert","518","1081218","0.0-518.0","qfh1j7q9","","","","","","","",""
"","","","call-function","519","1081219","0.0-519.0","qfh1j7q9","","","","","","","",""
"null","","","html-keyboard-response","520","1082721","0.0-520.0","qfh1j7q9","","<span style=""color:Black; font-size:50px;"">Agent A","null","","","","",""
"null","","","video-keyboard-response","521","1085781","0.0-521.0","qfh1j7q9","","","null","","Agent A","veridical","STIM_SET_2_144/1159325.bmp_pp67_L2_V1.0_veridical_freeview_isoTrue_fps144.mp4",""
"null","","","html-keyboard-response","522","1087283","0.0-522.0","qfh1j7q9","","<span style=""color:Black; font-size:50px;"">Agent B","null","","","","",""
"null","","","video-keyboard-response","523","1090347","0.0-523.0","qfh1j7q9","","","null","","Agent B","scrambled","STIM_SET_5/1159325.bmp_pp67_L2_V1.0_veridical_freeview_isoTrue_Hflip_fps144.mp4",""
"","","","call-function","524","1090348","0.0-524.0","qfh1j7q9","","","","","","","",""
"2265.0799999998417","{""judgement"":0}","[0]","survey-likert","525","1092614","0.0-525.0","qfh1j7q9","","","","","","","","0"
"740.5100000000093","{""confidence"":2}","[0]","survey-likert","526","1093356","0.0-526.0","qfh1j7q9","","","","","","","",""
"","","","call-function","527","1093356","0.0-527.0","qfh1j7q9","","","","","","","",""
"null","","","html-keyboard-response","528","1094859","0.0-528.0","qfh1j7q9","","<span style=""color:Black; font-size:50px;"">Agent A","null","","","","",""
"null","","","video-keyboard-response","529","1097949","0.0-529.0","qfh1j7q9","","","null","","Agent A","veridical","STIM_SET_2_144/1592530.bmp_pp75_L1_V1.0_veridical_freeview_isoTrue_fps144.mp4",""
"null","","","html-keyboard-response","530","1099451","0.0-530.0","qfh1j7q9","","<span style=""color:Black; font-size:50px;"">Agent B","null","","","","",""
"null","","","video-keyboard-response","531","1102533","0.0-531.0","qfh1j7q9","","","null","","Agent B","scrambled","STIM_SET_5/1592530.bmp_pp75_L1_V1.0_veridical_freeview_isoTrue_Hflip_fps144.mp4",""
"","","","call-function","532","1102534","0.0-532.0","qfh1j7q9","","","","","","","",""
"2672.6650000000373","{""judgement"":0}","[0]","survey-likert","533","1105208","0.0-533.0","qfh1j7q9","","","","","","","","0"
"2393.5800000000745","{""confidence"":1}","[0]","survey-likert","534","1107603","0.0-534.0","qfh1j7q9","","","","","","","",""
"","","","call-function","535","1107603","0.0-535.0","qfh1j7q9","","","","","","","",""
"null","","","html-keyboard-response","536","1109106","0.0-536.0","qfh1j7q9","","<span style=""color:Black; font-size:50px;"">Agent A","null","","","","",""
"null","","","video-keyboard-response","537","1112191","0.0-537.0","qfh1j7q9","","","null","","Agent A","scrambled","STIM_SET_5/1592305.bmp_pp65_L3_V1.0_veridical_freeview_isoTrue_Hflip_fps144.mp4",""
"null","","","html-keyboard-response","538","1113694","0.0-538.0","qfh1j7q9","","<span style=""color:Black; font-size:50px;"">Agent B","null","","","","",""
"null","","","video-keyboard-response","539","1116779","0.0-539.0","qfh1j7q9","","","null","","Agent B","veridical","STIM_SET_2_144/1592305.bmp_pp65_L3_V1.0_veridical_freeview_isoTrue_fps144.mp4",""
"","","","call-function","540","1116781","0.0-540.0","qfh1j7q9","","","","","","","",""
"1238.565000000177","{""judgement"":1}","[0]","survey-likert","541","1118020","0.0-541.0","qfh1j7q9","","","","","","","","1"
"900.2700000000186","{""confidence"":2}","[0]","survey-likert","542","1118922","0.0-542.0","qfh1j7q9","","","","","","","",""
"","","","call-function","543","1118924","0.0-543.0","qfh1j7q9","","","","","","","",""
"null","","","html-keyboard-response","544","1120429","0.0-544.0","qfh1j7q9","","<span style=""color:Black; font-size:50px;"">Agent A","null","","","","",""
"null","","","video-keyboard-response","545","1123492","0.0-545.0","qfh1j7q9","","","null","","Agent A","veridical","STIM_SET_2_144/1592044.bmp_pp94_L2_V1.0_veridical_freeview_isoTrue_fps144.mp4",""
"null","","","html-keyboard-response","546","1124996","0.0-546.0","qfh1j7q9","","<span style=""color:Black; font-size:50px;"">Agent B","null","","","","",""
"null","","","video-keyboard-response","547","1128065","0.0-547.0","qfh1j7q9","","","null","","Agent B","scrambled","STIM_SET_5/1592044.bmp_pp94_L2_V1.0_veridical_freeview_isoTrue_Hflip_fps144.mp4",""
"","","","call-function","548","1128066","0.0-548.0","qfh1j7q9","","","","","","","",""
"3575.2450000001118","{""judgement"":1}","[0]","survey-likert","549","1131642","0.0-549.0","qfh1j7q9","","","","","","","","0"
"1159.3049999999348","{""confidence"":1}","[0]","survey-likert","550","1132804","0.0-550.0","qfh1j7q9","","","","","","","",""
"","","","call-function","551","1132804","0.0-551.0","qfh1j7q9","","","","","","","",""
"null","","","html-keyboard-response","552","1134308","0.0-552.0","qfh1j7q9","","<span style=""color:Black; font-size:50px;"">Agent A","null","","","","",""
"null","","","video-keyboard-response","553","1137379","0.0-553.0","qfh1j7q9","","","null","","Agent A","veridical","STIM_SET_2_144/1159329.bmp_pp61_L2_V1.0_veridical_freeview_isoTrue_fps144.mp4",""
"null","","","html-keyboard-response","554","1138885","0.0-554.0","qfh1j7q9","","<span style=""color:Black; font-size:50px;"">Agent B","null","","","","",""
"null","","","video-keyboard-response","555","1141952","0.0-555.0","qfh1j7q9","","","null","","Agent B","scrambled","STIM_SET_5/1159329.bmp_pp61_L2_V1.0_veridical_freeview_isoTrue_Hflip_fps144.mp4",""
"","","","call-function","556","1141953","0.0-556.0","qfh1j7q9","","","","","","","",""
"6519.074999999953","{""judgement"":1}","[0]","survey-likert","557","1148473","0.0-557.0","qfh1j7q9","","","","","","","","0"
"758.8049999999348","{""confidence"":1}","[0]","survey-likert","558","1149233","0.0-558.0","qfh1j7q9","","","","","","","",""
"","","","call-function","559","1149233","0.0-559.0","qfh1j7q9","","","","","","","",""
"null","","","html-keyboard-response","560","1150736","0.0-560.0","qfh1j7q9","","<span style=""color:Black; font-size:50px;"">Agent A","null","","","","",""
"null","","","video-keyboard-response","561","1153824","0.0-561.0","qfh1j7q9","","","null","","Agent A","veridical","STIM_SET_2_144/713788.bmp_pp52_L1_V1.0_veridical_freeview_isoTrue_fps144.mp4",""
"null","","","html-keyboard-response","562","1155328","0.0-562.0","qfh1j7q9","","<span style=""color:Black; font-size:50px;"">Agent B","null","","","","",""
"null","","","video-keyboard-response","563","1158414","0.0-563.0","qfh1j7q9","","","null","","Agent B","scrambled","STIM_SET_5/713788.bmp_pp52_L1_V1.0_veridical_freeview_isoTrue_Hflip_fps144.mp4",""
"","","","call-function","564","1158414","0.0-564.0","qfh1j7q9","","","","","","","",""
"3931.935000000056","{""judgement"":1}","[0]","survey-likert","565","1162347","0.0-565.0","qfh1j7q9","","","","","","","","0"
"1053.8499999998603","{""confidence"":0}","[0]","survey-likert","566","1163402","0.0-566.0","qfh1j7q9","","","","","","","",""
"","","","call-function","567","1163403","0.0-567.0","qfh1j7q9","","","","","","","",""
"null","","","html-keyboard-response","568","1164907","0.0-568.0","qfh1j7q9","","<span style=""color:Black; font-size:50px;"">Agent A","null","","","","",""
"null","","","video-keyboard-response","569","1167987","0.0-569.0","qfh1j7q9","","","null","","Agent A","scrambled","STIM_SET_5/1160049.bmp_pp53_L2_V1.0_veridical_freeview_isoTrue_Hflip_fps144.mp4",""
"null","","","html-keyboard-response","570","1169493","0.0-570.0","qfh1j7q9","","<span style=""color:Black; font-size:50px;"">Agent B","null","","","","",""
"null","","","video-keyboard-response","571","1172570","0.0-571.0","qfh1j7q9","","","null","","Agent B","veridical","STIM_SET_2_144/1160049.bmp_pp53_L2_V1.0_veridical_freeview_isoTrue_fps144.mp4",""
"","","","call-function","572","1172570","0.0-572.0","qfh1j7q9","","","","","","","",""
"2866.554999999935","{""judgement"":1}","[0]","survey-likert","573","1175438","0.0-573.0","qfh1j7q9","","","","","","","","1"
"2305.75","{""confidence"":1}","[0]","survey-likert","574","1177745","0.0-574.0","qfh1j7q9","","","","","","","",""
"","","","call-function","575","1177745","0.0-575.0","qfh1j7q9","","","","","","","",""
"null","","","html-keyboard-response","576","1179248","0.0-576.0","qfh1j7q9","","<span style=""color:Black; font-size:50px;"">Agent A","null","","","","",""
"null","","","video-keyboard-response","577","1182340","0.0-577.0","qfh1j7q9","","","null","","Agent A","scrambled","STIM_SET_5/1159874.bmp_pp96_L2_V1.0_veridical_freeview_isoTrue_Hflip_fps144.mp4",""
"null","","","html-keyboard-response","578","1183847","0.0-578.0","qfh1j7q9","","<span style=""color:Black; font-size:50px;"">Agent B","null","","","","",""
"null","","","video-keyboard-response","579","1186921","0.0-579.0","qfh1j7q9","","","null","","Agent B","veridical","STIM_SET_2_144/1159874.bmp_pp96_L2_V1.0_veridical_freeview_isoTrue_fps144.mp4",""
"","","","call-function","580","1186922","0.0-580.0","qfh1j7q9","","","","","","","",""
"7952.1699999999255","{""judgement"":1}","[0]","survey-likert","581","1194875","0.0-581.0","qfh1j7q9","","","","","","","","1"
"1303.6949999998324","{""confidence"":0}","[0]","survey-likert","582","1196180","0.0-582.0","qfh1j7q9","","","","","","","",""
"2553.024999999907","","","instructions","583","1198734","0.0-583.0","qfh1j7q9","[{""page_index"":0,""viewing_time"":2552.7049999998417}]","","","","","","",""
"4182.930000000168","","","instructions","584","1202918","0.0-584.0","qfh1j7q9","[{""page_index"":0,""viewing_time"":4182.820000000065}]","","","","","","",""
"24381.480000000214","{""post-1"":1}","[0]","survey-likert","585","1227301","0.0-585.0","qfh1j7q9","","","","","","","",""
"17672.805000000168","{""post-1"":0}","[0]","survey-likert","586","1244975","0.0-586.0","qfh1j7q9","","","","","","","",""
"9727.255000000121","{""post-2"":0}","[0]","survey-likert","587","1254704","0.0-587.0","qfh1j7q9","","","","","","","",""
"5209.010000000009","{""post-2"":0}","[0]","survey-likert","588","1259914","0.0-588.0","qfh1j7q9","","","","","","","",""
"5268.050000000047","{""post-3"":2}","[0]","survey-likert","589","1265184","0.0-589.0","qfh1j7q9","","","","","","","",""
"3657.4849999998696","{""post-3"":1}","[0]","survey-likert","590","1268844","0.0-590.0","qfh1j7q9","","","","","","","",""
"7987.389999999898","{""post-4"":1}","[0]","survey-likert","591","1276834","0.0-591.0","qfh1j7q9","","","","","","","",""
"4848.755000000121","{""post-4"":0}","[0]","survey-likert","592","1281685","0.0-592.0","qfh1j7q9","","","","","","","",""
"6730.199999999953","{""post-5"":1}","[0]","survey-likert","593","1288417","0.0-593.0","qfh1j7q9","","","","","","","",""
"2782.9199999999255","{""post-5"":2}","[0]","survey-likert","594","1291201","0.0-594.0","qfh1j7q9","","","","","","","",""
"93793.40999999992","{""Q0"":""It was a very interesting experience, particularly because I had to find out how well my attention at certain spots of an image coincided with those of the two agents, which was quite difficult. Most of the time it honestly felt like pure guesses guided by a hint of intuition.""}","","survey-text","595","1385000","0.0-595.0","qfh1j7q9","","","","","","","",""
"201576.88000000012","{""Q0"":""Comparing my own attention of an image with that of another conscious being took only some intuition and focus, but I wouldn't say it was easy. After a few trials, it became obvious that agent A and agent B's distribution of attention were mirror images of each other, and so I had tried to see if it was more natural to go from left to right or right to left, or even sporadically over the entire image.""}","","survey-text","596","1586582","0.0-596.0","qfh1j7q9","","","","","","","",""
"54712.21999999997","{""Q0"":""Remembering the general gist of how the attention of each was distributed and feeling how it compared to mine was probably the most difficult.""}","","survey-text","597","1641298","0.0-597.0","qfh1j7q9","","","","","","","",""
"3433.685000000056","","","instructions","598","1644734","0.0-598.0","qfh1j7q9","[{""page_index"":0,""viewing_time"":3433.4550000000745}]","","","","","","",""
"81582.2749999999","{""Experimenter_end"":[""Printed ID# qfh1j7q9 on consent form"",""Given subject SONA credit or payment"",""Given the subject debrief form""]}","[0]","survey-multi-select","599","1726319","0.0-599.0","qfh1j7q9","","","","","","","",""
