"rt","responses","question_order","trial_type","trial_index","time_elapsed","internal_node_id","ID","view_history","stimulus","key_press","value","agent","condition","image","correct_answer"
"11733.85","{""Experimenter"":[""Confirmed subject's identity (ID card)"",""Confirmed normal or corrected-to-normal vision"",""Obtained consent (signature and date)"",""Checked the test room lighting"",""Checked computer screen lighting"",""Checked distance from screen to chin rest (50cm)"",""Cleaned and adjusted chin rest"",""Counterbalanced the order of the tasks"",""Opened the experiment in Firefox"",""Made the experiment full screen"",""Encouraged subject to silence phone, put away distractors, etc.""]}","[0]","survey-multi-select","0","11743","0.0-0.0","qj02trg4","","","","","","","",""
"76494.12","","","instructions","1","88240","0.0-1.0","qj02trg4","[{""page_index"":0,""viewing_time"":76493.535}]","","","","","","",""
"7568.409999999989","","","instructions","2","95810","0.0-2.0","qj02trg4","[{""page_index"":0,""viewing_time"":1405.179999999993},{""page_index"":1,""viewing_time"":3964.970000000001},{""page_index"":2,""viewing_time"":2198.1349999999948}]","","","","","","",""
"2891.279999999999","","","instructions","3","98703","0.0-3.0","qj02trg4","[{""page_index"":0,""viewing_time"":2891.175000000003}]","","","","","","",""
"null","","","video-keyboard-response","4","101778","0.0-4.0","qj02trg4","","","null","","","","",""
"17288.244999999995","","","instructions","5","119068","0.0-5.0","qj02trg4","[{""page_index"":0,""viewing_time"":2689.979999999996},{""page_index"":1,""viewing_time"":3108.070000000007},{""page_index"":2,""viewing_time"":1350.8099999999977},{""page_index"":3,""viewing_time"":5042.125},{""page_index"":4,""viewing_time"":5097.12999999999}]","","","","","","",""
"6014.414999999994","","","instructions","6","125083","0.0-6.0","qj02trg4","[{""page_index"":0,""viewing_time"":6014.279999999999}]","","","","","","",""
"","","","call-function","7","125084","0.0-7.0","qj02trg4","","","","","","","",""
"null","","","html-keyboard-response","8","126587","0.0-8.0","qj02trg4","","<span style=""color:Black; font-size:50px;"">Agent A","null","","","","",""
"null","","","video-keyboard-response","9","129659","0.0-9.0","qj02trg4","","","null","","Agent A","veridical","STIM_SET_1_REAL/1159768.bmp_pp89_L1_V1.0_veridical_freeview_isoFalse_fps144.mp4",""
"null","","","html-keyboard-response","10","131165","0.0-10.0","qj02trg4","","<span style=""color:Black; font-size:50px;"">Agent B","null","","","","",""
"null","","","video-keyboard-response","11","134252","0.0-11.0","qj02trg4","","","null","","Agent B","scrambled","STIM_SET_3/713788.bmp_pp52_L1_V2_veridical_freeview_isoFalsemismatch_1159768.bmp_L1_fps90.mp4",""
"","","","call-function","12","134254","0.0-12.0","qj02trg4","","","","","","","",""
"2693.3949999999895","{""judgement"":1}","[0]","survey-likert","13","136948","0.0-13.0","qj02trg4","","","","","","","","0"
"2540.00999999998","{""confidence"":0}","[0]","survey-likert","14","139490","0.0-14.0","qj02trg4","","","","","","","",""
"","","","call-function","15","139491","0.0-15.0","qj02trg4","","","","","","","",""
"null","","","html-keyboard-response","16","140991","0.0-16.0","qj02trg4","","<span style=""color:Black; font-size:50px;"">Agent A","null","","","","",""
"null","","","video-keyboard-response","17","144072","0.0-17.0","qj02trg4","","","null","","Agent A","scrambled","STIM_SET_3/1592857.bmp_pp52_L1_V2_veridical_freeview_isoFalsemismatch_1160168.bmp_L2_fps90.mp4",""
"null","","","html-keyboard-response","18","145575","0.0-18.0","qj02trg4","","<span style=""color:Black; font-size:50px;"">Agent B","null","","","","",""
"null","","","video-keyboard-response","19","148683","0.0-19.0","qj02trg4","","","null","","Agent B","veridical","STIM_SET_1_REAL/1160168.bmp_pp53_L2_V1.0_veridical_freeview_isoFalse_fps144.mp4",""
"","","","call-function","20","148684","0.0-20.0","qj02trg4","","","","","","","",""
"2059.2299999999814","{""judgement"":1}","[0]","survey-likert","21","150746","0.0-21.0","qj02trg4","","","","","","","","1"
"2046.625","{""confidence"":1}","[0]","survey-likert","22","152794","0.0-22.0","qj02trg4","","","","","","","",""
"","","","call-function","23","152795","0.0-23.0","qj02trg4","","","","","","","",""
"null","","","html-keyboard-response","24","154299","0.0-24.0","qj02trg4","","<span style=""color:Black; font-size:50px;"">Agent A","null","","","","",""
"null","","","video-keyboard-response","25","157409","0.0-25.0","qj02trg4","","","null","","Agent A","scrambled","STIM_SET_3/1159956.bmp_pp59_L3_V2_veridical_freeview_isoFalsemismatch_1159829.bmp_L3_fps90.mp4",""
"null","","","html-keyboard-response","26","158911","0.0-26.0","qj02trg4","","<span style=""color:Black; font-size:50px;"">Agent B","null","","","","",""
"null","","","video-keyboard-response","27","162010","0.0-27.0","qj02trg4","","","null","","Agent B","veridical","STIM_SET_1_REAL/1159829.bmp_pp91_L3_V1.0_veridical_freeview_isoFalse_fps144.mp4",""
"","","","call-function","28","162011","0.0-28.0","qj02trg4","","","","","","","",""
"10010.274999999994","{""judgement"":1}","[0]","survey-likert","29","172022","0.0-29.0","qj02trg4","","","","","","","","1"
"2117.345000000001","{""confidence"":0}","[0]","survey-likert","30","174141","0.0-30.0","qj02trg4","","","","","","","",""
"","","","call-function","31","174142","0.0-31.0","qj02trg4","","","","","","","",""
"null","","","html-keyboard-response","32","175645","0.0-32.0","qj02trg4","","<span style=""color:Black; font-size:50px;"">Agent A","null","","","","",""
"null","","","video-keyboard-response","33","178720","0.0-33.0","qj02trg4","","","null","","Agent A","veridical","STIM_SET_1_REAL/713666.bmp_pp97_L3_V1.0_veridical_freeview_isoFalse_fps144.mp4",""
"null","","","html-keyboard-response","34","180223","0.0-34.0","qj02trg4","","<span style=""color:Black; font-size:50px;"">Agent B","null","","","","",""
"null","","","video-keyboard-response","35","183359","0.0-35.0","qj02trg4","","","null","","Agent B","scrambled","STIM_SET_3/1592289.bmp_pp92_L3_V2_veridical_freeview_isoFalsemismatch_713666.bmp_L3_fps90.mp4",""
"","","","call-function","36","183360","0.0-36.0","qj02trg4","","","","","","","",""
"3078.8150000000023","{""judgement"":1}","[0]","survey-likert","37","186439","0.0-37.0","qj02trg4","","","","","","","","0"
"1515.6600000000035","{""confidence"":1}","[0]","survey-likert","38","187957","0.0-38.0","qj02trg4","","","","","","","",""
"","","","call-function","39","187958","0.0-39.0","qj02trg4","","","","","","","",""
"null","","","html-keyboard-response","40","189462","0.0-40.0","qj02trg4","","<span style=""color:Black; font-size:50px;"">Agent A","null","","","","",""
"null","","","video-keyboard-response","41","192551","0.0-41.0","qj02trg4","","","null","","Agent A","veridical","STIM_SET_1_REAL/713779.bmp_pp152_L2_V1.0_veridical_freeview_isoFalse_fps144.mp4",""
"null","","","html-keyboard-response","42","194055","0.0-42.0","qj02trg4","","<span style=""color:Black; font-size:50px;"">Agent B","null","","","","",""
"null","","","video-keyboard-response","43","197138","0.0-43.0","qj02trg4","","","null","","Agent B","scrambled","STIM_SET_3/1592305.bmp_pp65_L3_V2_veridical_freeview_isoFalsemismatch_713779.bmp_L2_fps90.mp4",""
"","","","call-function","44","197139","0.0-44.0","qj02trg4","","","","","","","",""
"3160.904999999999","{""judgement"":0}","[0]","survey-likert","45","200300","0.0-45.0","qj02trg4","","","","","","","","0"
"1609.9750000000058","{""confidence"":1}","[0]","survey-likert","46","201912","0.0-46.0","qj02trg4","","","","","","","",""
"","","","call-function","47","201913","0.0-47.0","qj02trg4","","","","","","","",""
"null","","","html-keyboard-response","48","203416","0.0-48.0","qj02trg4","","<span style=""color:Black; font-size:50px;"">Agent A","null","","","","",""
"null","","","video-keyboard-response","49","206481","0.0-49.0","qj02trg4","","","null","","Agent A","veridical","STIM_SET_1_REAL/1159621.bmp_pp92_L3_V1.0_veridical_freeview_isoFalse_fps144.mp4",""
"null","","","html-keyboard-response","50","207985","0.0-50.0","qj02trg4","","<span style=""color:Black; font-size:50px;"">Agent B","null","","","","",""
"null","","","video-keyboard-response","51","211072","0.0-51.0","qj02trg4","","","null","","Agent B","scrambled","STIM_SET_3/1159860.bmp_pp152_L2_V2_veridical_freeview_isoFalsemismatch_1159621.bmp_L3_fps90.mp4",""
"","","","call-function","52","211074","0.0-52.0","qj02trg4","","","","","","","",""
"2550.2299999999814","{""judgement"":0}","[0]","survey-likert","53","213625","0.0-53.0","qj02trg4","","","","","","","","0"
"2383.829999999987","{""confidence"":1}","[0]","survey-likert","54","216011","0.0-54.0","qj02trg4","","","","","","","",""
"","","","call-function","55","216012","0.0-55.0","qj02trg4","","","","","","","",""
"null","","","html-keyboard-response","56","217514","0.0-56.0","qj02trg4","","<span style=""color:Black; font-size:50px;"">Agent A","null","","","","",""
"null","","","video-keyboard-response","57","220590","0.0-57.0","qj02trg4","","","null","","Agent A","veridical","STIM_SET_1_REAL/1159784.bmp_pp73_L3_V1.0_veridical_freeview_isoFalse_fps144.mp4",""
"null","","","html-keyboard-response","58","222095","0.0-58.0","qj02trg4","","<span style=""color:Black; font-size:50px;"">Agent B","null","","","","",""
"null","","","video-keyboard-response","59","225182","0.0-59.0","qj02trg4","","","null","","Agent B","scrambled","STIM_SET_3/61513.bmp_pp75_L1_V2_veridical_freeview_isoFalsemismatch_1159784.bmp_L3_fps90.mp4",""
"","","","call-function","60","225184","0.0-60.0","qj02trg4","","","","","","","",""
"2445.554999999993","{""judgement"":1}","[0]","survey-likert","61","227630","0.0-61.0","qj02trg4","","","","","","","","0"
"1791.3949999999895","{""confidence"":1}","[0]","survey-likert","62","229424","0.0-62.0","qj02trg4","","","","","","","",""
"","","","call-function","63","229425","0.0-63.0","qj02trg4","","","","","","","",""
"null","","","html-keyboard-response","64","230926","0.0-64.0","qj02trg4","","<span style=""color:Black; font-size:50px;"">Agent A","null","","","","",""
"null","","","video-keyboard-response","65","234010","0.0-65.0","qj02trg4","","","null","","Agent A","scrambled","STIM_SET_3/498396.bmp_pp99_L2_V2_veridical_freeview_isoFalsemismatch_713371.bmp_L1_fps90.mp4",""
"null","","","html-keyboard-response","66","235514","0.0-66.0","qj02trg4","","<span style=""color:Black; font-size:50px;"">Agent B","null","","","","",""
"null","","","video-keyboard-response","67","238622","0.0-67.0","qj02trg4","","","null","","Agent B","veridical","STIM_SET_1_REAL/713371.bmp_pp68_L1_V1.0_veridical_freeview_isoFalse_fps144.mp4",""
"","","","call-function","68","238623","0.0-68.0","qj02trg4","","","","","","","",""
"2016.8699999999953","{""judgement"":1}","[0]","survey-likert","69","240641","0.0-69.0","qj02trg4","","","","","","","","1"
"1497.4400000000023","{""confidence"":1}","[0]","survey-likert","70","242140","0.0-70.0","qj02trg4","","","","","","","",""
"","","","call-function","71","242141","0.0-71.0","qj02trg4","","","","","","","",""
"null","","","html-keyboard-response","72","243643","0.0-72.0","qj02trg4","","<span style=""color:Black; font-size:50px;"">Agent A","null","","","","",""
"null","","","video-keyboard-response","73","246760","0.0-73.0","qj02trg4","","","null","","Agent A","scrambled","STIM_SET_3/1160049.bmp_pp53_L2_V2_veridical_freeview_isoFalsemismatch_1591954.bmp_L2_fps90.mp4",""
"null","","","html-keyboard-response","74","248265","0.0-74.0","qj02trg4","","<span style=""color:Black; font-size:50px;"">Agent B","null","","","","",""
"null","","","video-keyboard-response","75","251381","0.0-75.0","qj02trg4","","","null","","Agent B","veridical","STIM_SET_1_REAL/1591954.bmp_pp62_L2_V1.0_veridical_freeview_isoFalse_fps144.mp4",""
"","","","call-function","76","251382","0.0-76.0","qj02trg4","","","","","","","",""
"2962.2000000000116","{""judgement"":1}","[0]","survey-likert","77","254346","0.0-77.0","qj02trg4","","","","","","","","1"
"1900.4049999999988","{""confidence"":1}","[0]","survey-likert","78","256248","0.0-78.0","qj02trg4","","","","","","","",""
"","","","call-function","79","256249","0.0-79.0","qj02trg4","","","","","","","",""
"null","","","html-keyboard-response","80","257752","0.0-80.0","qj02trg4","","<span style=""color:Black; font-size:50px;"">Agent A","null","","","","",""
"null","","","video-keyboard-response","81","260850","0.0-81.0","qj02trg4","","","null","","Agent A","veridical","STIM_SET_1_REAL/713017.bmp_pp152_L2_V1.0_veridical_freeview_isoFalse_fps144.mp4",""
"null","","","html-keyboard-response","82","262357","0.0-82.0","qj02trg4","","<span style=""color:Black; font-size:50px;"">Agent B","null","","","","",""
"null","","","video-keyboard-response","83","265459","0.0-83.0","qj02trg4","","","null","","Agent B","scrambled","STIM_SET_3/1591975.bmp_pp88_L2_V2_veridical_freeview_isoFalsemismatch_713017.bmp_L2_fps90.mp4",""
"","","","call-function","84","265460","0.0-84.0","qj02trg4","","","","","","","",""
"1852.054999999993","{""judgement"":0}","[0]","survey-likert","85","267313","0.0-85.0","qj02trg4","","","","","","","","0"
"1670.1300000000047","{""confidence"":1}","[0]","survey-likert","86","268985","0.0-86.0","qj02trg4","","","","","","","",""
"4950.179999999993","","","instructions","87","273936","0.0-87.0","qj02trg4","[{""page_index"":0,""viewing_time"":1210.9649999999674},{""page_index"":1,""viewing_time"":3005.320000000007},{""page_index"":2,""viewing_time"":733.7399999999907}]","","","","","","",""
"2437.8950000000186","","","instructions","88","276375","0.0-88.0","qj02trg4","[{""page_index"":0,""viewing_time"":712.1049999999814},{""page_index"":1,""viewing_time"":813.0500000000466},{""page_index"":2,""viewing_time"":912.6349999999511}]","","","","","","",""
"","","","call-function","89","276376","0.0-89.0","qj02trg4","","","","","","","",""
"null","","","html-keyboard-response","90","277879","0.0-90.0","qj02trg4","","<span style=""color:Black; font-size:50px;"">Agent A","null","","","","",""
"null","","","video-keyboard-response","91","280980","0.0-91.0","qj02trg4","","","null","","Agent A","scrambled","STIM_SET_3/285946.bmp_pp79_L2_V2_veridical_freeview_isoFalsemismatch_285751.bmp_L3_fps90.mp4",""
"null","","","html-keyboard-response","92","282487","0.0-92.0","qj02trg4","","<span style=""color:Black; font-size:50px;"">Agent B","null","","","","",""
"null","","","video-keyboard-response","93","285564","0.0-93.0","qj02trg4","","","null","","Agent B","veridical","STIM_SET_1_REAL/285751.bmp_pp55_L3_V1.0_veridical_freeview_isoFalse_fps144.mp4",""
"","","","call-function","94","285565","0.0-94.0","qj02trg4","","","","","","","",""
"2039.295000000042","{""judgement"":1}","[0]","survey-likert","95","287605","0.0-95.0","qj02trg4","","","","","","","","1"
"2099.7849999999744","{""confidence"":2}","[0]","survey-likert","96","289707","0.0-96.0","qj02trg4","","","","","","","",""
"","","","call-function","97","289708","0.0-97.0","qj02trg4","","","","","","","",""
"null","","","html-keyboard-response","98","291210","0.0-98.0","qj02trg4","","<span style=""color:Black; font-size:50px;"">Agent A","null","","","","",""
"null","","","video-keyboard-response","99","294386","0.0-99.0","qj02trg4","","","null","","Agent A","scrambled","STIM_SET_3/1160204.bmp_pp54_L2_V2_veridical_freeview_isoFalsemismatch_286001.bmp_L2_fps90.mp4",""
"null","","","html-keyboard-response","100","295890","0.0-100.0","qj02trg4","","<span style=""color:Black; font-size:50px;"">Agent B","null","","","","",""
"null","","","video-keyboard-response","101","298955","0.0-101.0","qj02trg4","","","null","","Agent B","veridical","STIM_SET_1_REAL/286001.bmp_pp54_L2_V1.0_veridical_freeview_isoFalse_fps144.mp4",""
"","","","call-function","102","298956","0.0-102.0","qj02trg4","","","","","","","",""
"3387.734999999986","{""judgement"":0}","[0]","survey-likert","103","302345","0.0-103.0","qj02trg4","","","","","","","","1"
"1630.0449999999837","{""confidence"":1}","[0]","survey-likert","104","303977","0.0-104.0","qj02trg4","","","","","","","",""
"","","","call-function","105","303978","0.0-105.0","qj02trg4","","","","","","","",""
"null","","","html-keyboard-response","106","305479","0.0-106.0","qj02trg4","","<span style=""color:Black; font-size:50px;"">Agent A","null","","","","",""
"null","","","video-keyboard-response","107","308598","0.0-107.0","qj02trg4","","","null","","Agent A","scrambled","STIM_SET_3/1592298.bmp_pp56_L3_V2_veridical_freeview_isoFalsemismatch_1593146.bmp_L1_fps90.mp4",""
"null","","","html-keyboard-response","108","310104","0.0-108.0","qj02trg4","","<span style=""color:Black; font-size:50px;"">Agent B","null","","","","",""
"null","","","video-keyboard-response","109","313211","0.0-109.0","qj02trg4","","","null","","Agent B","veridical","STIM_SET_1_REAL/1593146.bmp_pp93_L1_V1.0_veridical_freeview_isoFalse_fps144.mp4",""
"","","","call-function","110","313214","0.0-110.0","qj02trg4","","","","","","","",""
"2069.0050000000047","{""judgement"":1}","[0]","survey-likert","111","315284","0.0-111.0","qj02trg4","","","","","","","","1"
"1352.8099999999977","{""confidence"":2}","[0]","survey-likert","112","316640","0.0-112.0","qj02trg4","","","","","","","",""
"","","","call-function","113","316641","0.0-113.0","qj02trg4","","","","","","","",""
"null","","","html-keyboard-response","114","318144","0.0-114.0","qj02trg4","","<span style=""color:Black; font-size:50px;"">Agent A","null","","","","",""
"null","","","video-keyboard-response","115","321208","0.0-115.0","qj02trg4","","","null","","Agent A","veridical","STIM_SET_1_REAL/1159447.bmp_pp70_L2_V1.0_veridical_freeview_isoFalse_fps144.mp4",""
"null","","","html-keyboard-response","116","322714","0.0-116.0","qj02trg4","","<span style=""color:Black; font-size:50px;"">Agent B","null","","","","",""
"null","","","video-keyboard-response","117","325790","0.0-117.0","qj02trg4","","","null","","Agent B","scrambled","STIM_SET_3/1592150.bmp_pp77_L3_V2_veridical_freeview_isoFalsemismatch_1159447.bmp_L2_fps90.mp4",""
"","","","call-function","118","325791","0.0-118.0","qj02trg4","","","","","","","",""
"1900.7799999999697","{""judgement"":0}","[0]","survey-likert","119","327693","0.0-119.0","qj02trg4","","","","","","","","0"
"1937.1600000000326","{""confidence"":2}","[0]","survey-likert","120","329632","0.0-120.0","qj02trg4","","","","","","","",""
"","","","call-function","121","329633","0.0-121.0","qj02trg4","","","","","","","",""
"null","","","html-keyboard-response","122","331136","0.0-122.0","qj02trg4","","<span style=""color:Black; font-size:50px;"">Agent A","null","","","","",""
"null","","","video-keyboard-response","123","334214","0.0-123.0","qj02trg4","","","null","","Agent A","veridical","STIM_SET_1_REAL/713211.bmp_pp100_L3_V1.0_veridical_freeview_isoFalse_fps144.mp4",""
"null","","","html-keyboard-response","124","335721","0.0-124.0","qj02trg4","","<span style=""color:Black; font-size:50px;"">Agent B","null","","","","",""
"null","","","video-keyboard-response","125","338808","0.0-125.0","qj02trg4","","","null","","Agent B","scrambled","STIM_SET_3/1592921.bmp_pp69_L3_V2_veridical_freeview_isoFalsemismatch_713211.bmp_L3_fps90.mp4",""
"","","","call-function","126","338809","0.0-126.0","qj02trg4","","","","","","","",""
"1914.0600000000559","{""judgement"":0}","[0]","survey-likert","127","340724","0.0-127.0","qj02trg4","","","","","","","","0"
"2360.3099999999977","{""confidence"":2}","[0]","survey-likert","128","343087","0.0-128.0","qj02trg4","","","","","","","",""
"","","","call-function","129","343088","0.0-129.0","qj02trg4","","","","","","","",""
"null","","","html-keyboard-response","130","344589","0.0-130.0","qj02trg4","","<span style=""color:Black; font-size:50px;"">Agent A","null","","","","",""
"null","","","video-keyboard-response","131","347696","0.0-131.0","qj02trg4","","","null","","Agent A","scrambled","STIM_SET_3/1159325.bmp_pp67_L2_V2_veridical_freeview_isoFalsemismatch_1593035.bmp_L2_fps90.mp4",""
"null","","","html-keyboard-response","132","349200","0.0-132.0","qj02trg4","","<span style=""color:Black; font-size:50px;"">Agent B","null","","","","",""
"null","","","video-keyboard-response","133","352285","0.0-133.0","qj02trg4","","","null","","Agent B","veridical","STIM_SET_1_REAL/1593035.bmp_pp94_L2_V1.0_veridical_freeview_isoFalse_fps144.mp4",""
"","","","call-function","134","352286","0.0-134.0","qj02trg4","","","","","","","",""
"2154.210000000021","{""judgement"":1}","[0]","survey-likert","135","354442","0.0-135.0","qj02trg4","","","","","","","","1"
"1214.0650000000023","{""confidence"":2}","[0]","survey-likert","136","355658","0.0-136.0","qj02trg4","","","","","","","",""
"","","","call-function","137","355659","0.0-137.0","qj02trg4","","","","","","","",""
"null","","","html-keyboard-response","138","357160","0.0-138.0","qj02trg4","","<span style=""color:Black; font-size:50px;"">Agent A","null","","","","",""
"null","","","video-keyboard-response","139","360262","0.0-139.0","qj02trg4","","","null","","Agent A","veridical","STIM_SET_1_REAL/713593.bmp_pp64_L1_V1.0_veridical_freeview_isoFalse_fps144.mp4",""
"null","","","html-keyboard-response","140","361764","0.0-140.0","qj02trg4","","<span style=""color:Black; font-size:50px;"">Agent B","null","","","","",""
"null","","","video-keyboard-response","141","364870","0.0-141.0","qj02trg4","","","null","","Agent B","scrambled","STIM_SET_3/1592747.bmp_pp53_L2_V2_veridical_freeview_isoFalsemismatch_713593.bmp_L1_fps90.mp4",""
"","","","call-function","142","364871","0.0-142.0","qj02trg4","","","","","","","",""
"2743.5899999999674","{""judgement"":0}","[0]","survey-likert","143","367616","0.0-143.0","qj02trg4","","","","","","","","0"
"1755.304999999993","{""confidence"":2}","[0]","survey-likert","144","369373","0.0-144.0","qj02trg4","","","","","","","",""
"","","","call-function","145","369374","0.0-145.0","qj02trg4","","","","","","","",""
"null","","","html-keyboard-response","146","370876","0.0-146.0","qj02trg4","","<span style=""color:Black; font-size:50px;"">Agent A","null","","","","",""
"null","","","video-keyboard-response","147","373978","0.0-147.0","qj02trg4","","","null","","Agent A","veridical","STIM_SET_1_REAL/1592499.bmp_pp96_L2_V1.0_veridical_freeview_isoFalse_fps144.mp4",""
"null","","","html-keyboard-response","148","375483","0.0-148.0","qj02trg4","","<span style=""color:Black; font-size:50px;"">Agent B","null","","","","",""
"null","","","video-keyboard-response","149","378624","0.0-149.0","qj02trg4","","","null","","Agent B","scrambled","STIM_SET_3/1159819.bmp_pp151_L1_V2_veridical_freeview_isoFalsemismatch_1592499.bmp_L2_fps90.mp4",""
"","","","call-function","150","378625","0.0-150.0","qj02trg4","","","","","","","",""
"1694.3499999999767","{""judgement"":0}","[0]","survey-likert","151","380320","0.0-151.0","qj02trg4","","","","","","","","0"
"1200.329999999958","{""confidence"":2}","[0]","survey-likert","152","381522","0.0-152.0","qj02trg4","","","","","","","",""
"","","","call-function","153","381524","0.0-153.0","qj02trg4","","","","","","","",""
"null","","","html-keyboard-response","154","383030","0.0-154.0","qj02trg4","","<span style=""color:Black; font-size:50px;"">Agent A","null","","","","",""
"null","","","video-keyboard-response","155","386104","0.0-155.0","qj02trg4","","","null","","Agent A","scrambled","STIM_SET_3/1592047.bmp_pp51_L1_V2_veridical_freeview_isoFalsemismatch_713513.bmp_L2_fps90.mp4",""
"null","","","html-keyboard-response","156","387606","0.0-156.0","qj02trg4","","<span style=""color:Black; font-size:50px;"">Agent B","null","","","","",""
"null","","","video-keyboard-response","157","390676","0.0-157.0","qj02trg4","","","null","","Agent B","veridical","STIM_SET_1_REAL/713513.bmp_pp62_L2_V1.0_veridical_freeview_isoFalse_fps144.mp4",""
"","","","call-function","158","390678","0.0-158.0","qj02trg4","","","","","","","",""
"5545.14499999996","{""judgement"":1}","[0]","survey-likert","159","396223","0.0-159.0","qj02trg4","","","","","","","","1"
"1438.8399999999674","{""confidence"":1}","[0]","survey-likert","160","397664","0.0-160.0","qj02trg4","","","","","","","",""
"","","","call-function","161","397665","0.0-161.0","qj02trg4","","","","","","","",""
"null","","","html-keyboard-response","162","399168","0.0-162.0","qj02trg4","","<span style=""color:Black; font-size:50px;"">Agent A","null","","","","",""
"null","","","video-keyboard-response","163","402259","0.0-163.0","qj02trg4","","","null","","Agent A","scrambled","STIM_SET_3/1592168.bmp_pp71_L1_V2_veridical_freeview_isoFalsemismatch_1592890.bmp_L2_fps90.mp4",""
"null","","","html-keyboard-response","164","403765","0.0-164.0","qj02trg4","","<span style=""color:Black; font-size:50px;"">Agent B","null","","","","",""
"null","","","video-keyboard-response","165","406828","0.0-165.0","qj02trg4","","","null","","Agent B","veridical","STIM_SET_1_REAL/1592890.bmp_pp82_L2_V1.0_veridical_freeview_isoFalse_fps144.mp4",""
"","","","call-function","166","406830","0.0-166.0","qj02trg4","","","","","","","",""
"2963.1650000000373","{""judgement"":1}","[0]","survey-likert","167","409795","0.0-167.0","qj02trg4","","","","","","","","1"
"2777.4700000000303","{""confidence"":2}","[0]","survey-likert","168","412574","0.0-168.0","qj02trg4","","","","","","","",""
"4751.830000000016","","","instructions","169","417327","0.0-169.0","qj02trg4","[{""page_index"":0,""viewing_time"":1768.625},{""page_index"":1,""viewing_time"":1186.9350000000559},{""page_index"":2,""viewing_time"":1796.0299999999697}]","","","","","","",""
"4626.864999999991","","","instructions","170","421955","0.0-170.0","qj02trg4","[{""page_index"":0,""viewing_time"":1900.6899999999441},{""page_index"":1,""viewing_time"":2069},{""page_index"":2,""viewing_time"":657.0650000000023}]","","","","","","",""
"","","","call-function","171","421956","0.0-171.0","qj02trg4","","","","","","","",""
"null","","","html-keyboard-response","172","423459","0.0-172.0","qj02trg4","","<span style=""color:Black; font-size:50px;"">Agent A","null","","","","",""
"null","","","video-keyboard-response","173","426524","0.0-173.0","qj02trg4","","","null","","Agent A","veridical","STIM_SET_1_REAL/1592817.bmp_pp55_L3_V1.0_veridical_freeview_isoFalse_fps144.mp4",""
"null","","","html-keyboard-response","174","428028","0.0-174.0","qj02trg4","","<span style=""color:Black; font-size:50px;"">Agent B","null","","","","",""
"null","","","video-keyboard-response","175","431112","0.0-175.0","qj02trg4","","","null","","Agent B","scrambled","STIM_SET_3/1159329.bmp_pp61_L2_V2_veridical_freeview_isoFalsemismatch_1592817.bmp_L3_fps90.mp4",""
"","","","call-function","176","431113","0.0-176.0","qj02trg4","","","","","","","",""
"2319.194999999949","{""judgement"":0}","[0]","survey-likert","177","433433","0.0-177.0","qj02trg4","","","","","","","","0"
"1740.2949999999837","{""confidence"":2}","[0]","survey-likert","178","435175","0.0-178.0","qj02trg4","","","","","","","",""
"","","","call-function","179","435176","0.0-179.0","qj02trg4","","","","","","","",""
"null","","","html-keyboard-response","180","436681","0.0-180.0","qj02trg4","","<span style=""color:Black; font-size:50px;"">Agent A","null","","","","",""
"null","","","video-keyboard-response","181","439772","0.0-181.0","qj02trg4","","","null","","Agent A","scrambled","STIM_SET_3/1159592.bmp_pp91_L3_V2_veridical_freeview_isoFalsemismatch_285994.bmp_L3_fps90.mp4",""
"null","","","html-keyboard-response","182","441277","0.0-182.0","qj02trg4","","<span style=""color:Black; font-size:50px;"">Agent B","null","","","","",""
"null","","","video-keyboard-response","183","444366","0.0-183.0","qj02trg4","","","null","","Agent B","veridical","STIM_SET_1_REAL/285994.bmp_pp92_L3_V1.0_veridical_freeview_isoFalse_fps144.mp4",""
"","","","call-function","184","444367","0.0-184.0","qj02trg4","","","","","","","",""
"2250.664999999979","{""judgement"":0}","[0]","survey-likert","185","446619","0.0-185.0","qj02trg4","","","","","","","","1"
"1169.905000000028","{""confidence"":1}","[0]","survey-likert","186","447791","0.0-186.0","qj02trg4","","","","","","","",""
"","","","call-function","187","447792","0.0-187.0","qj02trg4","","","","","","","",""
"null","","","html-keyboard-response","188","449297","0.0-188.0","qj02trg4","","<span style=""color:Black; font-size:50px;"">Agent A","null","","","","",""
"null","","","video-keyboard-response","189","452397","0.0-189.0","qj02trg4","","","null","","Agent A","veridical","STIM_SET_1_REAL/712977.bmp_pp51_L1_V1.0_veridical_freeview_isoFalse_fps144.mp4",""
"null","","","html-keyboard-response","190","453899","0.0-190.0","qj02trg4","","<span style=""color:Black; font-size:50px;"">Agent B","null","","","","",""
"null","","","video-keyboard-response","191","457012","0.0-191.0","qj02trg4","","","null","","Agent B","scrambled","STIM_SET_3/1592951.bmp_pp80_L3_V2_veridical_freeview_isoFalsemismatch_712977.bmp_L1_fps90.mp4",""
"","","","call-function","192","457013","0.0-192.0","qj02trg4","","","","","","","",""
"1937.3099999999977","{""judgement"":0}","[0]","survey-likert","193","458951","0.0-193.0","qj02trg4","","","","","","","","0"
"1188.625","{""confidence"":1}","[0]","survey-likert","194","460141","0.0-194.0","qj02trg4","","","","","","","",""
"","","","call-function","195","460142","0.0-195.0","qj02trg4","","","","","","","",""
"null","","","html-keyboard-response","196","461645","0.0-196.0","qj02trg4","","<span style=""color:Black; font-size:50px;"">Agent A","null","","","","",""
"null","","","video-keyboard-response","197","464747","0.0-197.0","qj02trg4","","","null","","Agent A","veridical","STIM_SET_1_REAL/498111.bmp_pp88_L2_V1.0_veridical_freeview_isoFalse_fps144.mp4",""
"null","","","html-keyboard-response","198","466253","0.0-198.0","qj02trg4","","<span style=""color:Black; font-size:50px;"">Agent B","null","","","","",""
"null","","","video-keyboard-response","199","469367","0.0-199.0","qj02trg4","","","null","","Agent B","scrambled","STIM_SET_3/1592350.bmp_pp55_L3_V2_veridical_freeview_isoFalsemismatch_498111.bmp_L2_fps90.mp4",""
"","","","call-function","200","469368","0.0-200.0","qj02trg4","","","","","","","",""
"1869.6749999999884","{""judgement"":0}","[0]","survey-likert","201","471238","0.0-201.0","qj02trg4","","","","","","","","0"
"1788.655000000028","{""confidence"":2}","[0]","survey-likert","202","473029","0.0-202.0","qj02trg4","","","","","","","",""
"","","","call-function","203","473030","0.0-203.0","qj02trg4","","","","","","","",""
"null","","","html-keyboard-response","204","474534","0.0-204.0","qj02trg4","","<span style=""color:Black; font-size:50px;"">Agent A","null","","","","",""
"null","","","video-keyboard-response","205","477622","0.0-205.0","qj02trg4","","","null","","Agent A","scrambled","STIM_SET_3/1160189.bmp_pp64_L1_V2_veridical_freeview_isoFalsemismatch_1592581.bmp_L3_fps90.mp4",""
"null","","","html-keyboard-response","206","479128","0.0-206.0","qj02trg4","","<span style=""color:Black; font-size:50px;"">Agent B","null","","","","",""
"null","","","video-keyboard-response","207","482223","0.0-207.0","qj02trg4","","","null","","Agent B","veridical","STIM_SET_1_REAL/1592581.bmp_pp100_L3_V1.0_veridical_freeview_isoFalse_fps144.mp4",""
"","","","call-function","208","482224","0.0-208.0","qj02trg4","","","","","","","",""
"2370.960000000021","{""judgement"":1}","[0]","survey-likert","209","484596","0.0-209.0","qj02trg4","","","","","","","","1"
"1535.7099999999627","{""confidence"":2}","[0]","survey-likert","210","486133","0.0-210.0","qj02trg4","","","","","","","",""
"","","","call-function","211","486135","0.0-211.0","qj02trg4","","","","","","","",""
"null","","","html-keyboard-response","212","487637","0.0-212.0","qj02trg4","","<span style=""color:Black; font-size:50px;"">Agent A","null","","","","",""
"null","","","video-keyboard-response","213","490727","0.0-213.0","qj02trg4","","","null","","Agent A","veridical","STIM_SET_1_REAL/1159813.bmp_pp79_L2_V1.0_veridical_freeview_isoFalse_fps144.mp4",""
"null","","","html-keyboard-response","214","492231","0.0-214.0","qj02trg4","","<span style=""color:Black; font-size:50px;"">Agent B","null","","","","",""
"null","","","video-keyboard-response","215","496725","0.0-215.0","qj02trg4","","","null","","Agent B","scrambled","STIM_SET_3/1592129.bmp_pp153_L3_V2_veridical_freeview_isoFalsemismatch_1159813.bmp_L2_fps90.mp4",""
"","","","call-function","216","496726","0.0-216.0","qj02trg4","","","","","","","",""
"2366.5950000000303","{""judgement"":0}","[0]","survey-likert","217","499093","0.0-217.0","qj02trg4","","","","","","","","0"
"2347.2949999999837","{""confidence"":2}","[0]","survey-likert","218","501442","0.0-218.0","qj02trg4","","","","","","","",""
"","","","call-function","219","501443","0.0-219.0","qj02trg4","","","","","","","",""
"null","","","html-keyboard-response","220","502945","0.0-220.0","qj02trg4","","<span style=""color:Black; font-size:50px;"">Agent A","null","","","","",""
"null","","","video-keyboard-response","221","506026","0.0-221.0","qj02trg4","","","null","","Agent A","scrambled","STIM_SET_3/1159392.bmp_pp96_L2_V2_veridical_freeview_isoFalsemismatch_1592934.bmp_L1_fps90.mp4",""
"null","","","html-keyboard-response","222","507530","0.0-222.0","qj02trg4","","<span style=""color:Black; font-size:50px;"">Agent B","null","","","","",""
"null","","","video-keyboard-response","223","510631","0.0-223.0","qj02trg4","","","null","","Agent B","veridical","STIM_SET_1_REAL/1592934.bmp_pp63_L1_V1.0_veridical_freeview_isoFalse_fps144.mp4",""
"","","","call-function","224","510632","0.0-224.0","qj02trg4","","","","","","","",""
"3380.7949999999837","{""judgement"":0}","[0]","survey-likert","225","514013","0.0-225.0","qj02trg4","","","","","","","","1"
"1657.5350000000326","{""confidence"":1}","[0]","survey-likert","226","515672","0.0-226.0","qj02trg4","","","","","","","",""
"","","","call-function","227","515673","0.0-227.0","qj02trg4","","","","","","","",""
"null","","","html-keyboard-response","228","517177","0.0-228.0","qj02trg4","","<span style=""color:Black; font-size:50px;"">Agent A","null","","","","",""
"null","","","video-keyboard-response","229","520277","0.0-229.0","qj02trg4","","","null","","Agent A","veridical","STIM_SET_1_REAL/713796.bmp_pp84_L3_V1.0_veridical_freeview_isoFalse_fps144.mp4",""
"null","","","html-keyboard-response","230","521781","0.0-230.0","qj02trg4","","<span style=""color:Black; font-size:50px;"">Agent B","null","","","","",""
"null","","","video-keyboard-response","231","524898","0.0-231.0","qj02trg4","","","null","","Agent B","scrambled","STIM_SET_3/713633.bmp_pp58_L1_V2_veridical_freeview_isoFalsemismatch_713796.bmp_L3_fps90.mp4",""
"","","","call-function","232","524900","0.0-232.0","qj02trg4","","","","","","","",""
"2377.390000000014","{""judgement"":1}","[0]","survey-likert","233","527278","0.0-233.0","qj02trg4","","","","","","","","0"
"2014.1800000000512","{""confidence"":2}","[0]","survey-likert","234","529293","0.0-234.0","qj02trg4","","","","","","","",""
"","","","call-function","235","529295","0.0-235.0","qj02trg4","","","","","","","",""
"null","","","html-keyboard-response","236","530796","0.0-236.0","qj02trg4","","<span style=""color:Black; font-size:50px;"">Agent A","null","","","","",""
"null","","","video-keyboard-response","237","533901","0.0-237.0","qj02trg4","","","null","","Agent A","veridical","STIM_SET_1_REAL/1592804.bmp_pp91_L3_V1.0_veridical_freeview_isoFalse_fps144.mp4",""
"null","","","html-keyboard-response","238","535404","0.0-238.0","qj02trg4","","<span style=""color:Black; font-size:50px;"">Agent B","null","","","","",""
"null","","","video-keyboard-response","239","538509","0.0-239.0","qj02trg4","","","null","","Agent B","scrambled","STIM_SET_3/1591920.bmp_pp97_L3_V2_veridical_freeview_isoFalsemismatch_1592804.bmp_L3_fps90.mp4",""
"","","","call-function","240","538512","0.0-240.0","qj02trg4","","","","","","","",""
"3830.765000000014","{""judgement"":0}","[0]","survey-likert","241","542344","0.0-241.0","qj02trg4","","","","","","","","0"
"2550.0350000000326","{""confidence"":2}","[0]","survey-likert","242","544896","0.0-242.0","qj02trg4","","","","","","","",""
"","","","call-function","243","544898","0.0-243.0","qj02trg4","","","","","","","",""
"null","","","html-keyboard-response","244","546400","0.0-244.0","qj02trg4","","<span style=""color:Black; font-size:50px;"">Agent A","null","","","","",""
"null","","","video-keyboard-response","245","549478","0.0-245.0","qj02trg4","","","null","","Agent A","veridical","STIM_SET_1_REAL/1591876.bmp_pp63_L1_V1.0_veridical_freeview_isoFalse_fps144.mp4",""
"null","","","html-keyboard-response","246","550981","0.0-246.0","qj02trg4","","<span style=""color:Black; font-size:50px;"">Agent B","null","","","","",""
"null","","","video-keyboard-response","247","554068","0.0-247.0","qj02trg4","","","null","","Agent B","scrambled","STIM_SET_3/1159427.bmp_pp98_L1_V2_veridical_freeview_isoFalsemismatch_1591876.bmp_L1_fps90.mp4",""
"","","","call-function","248","554070","0.0-248.0","qj02trg4","","","","","","","",""
"2163.240000000107","{""judgement"":0}","[0]","survey-likert","249","556234","0.0-249.0","qj02trg4","","","","","","","","0"
"5785.250000000116","{""confidence"":2}","[0]","survey-likert","250","562021","0.0-250.0","qj02trg4","","","","","","","",""
"11083.729999999981","","","instructions","251","573106","0.0-251.0","qj02trg4","[{""page_index"":0,""viewing_time"":2589.4799999999814},{""page_index"":1,""viewing_time"":4517.724999999977},{""page_index"":2,""viewing_time"":3976.3300000000745}]","","","","","","",""
"3160.3850000000093","","","instructions","252","576268","0.0-252.0","qj02trg4","[{""page_index"":0,""viewing_time"":773.3450000000885},{""page_index"":1,""viewing_time"":1694.0699999999488},{""page_index"":2,""viewing_time"":692.8649999999907}]","","","","","","",""
"","","","call-function","253","576269","0.0-253.0","qj02trg4","","","","","","","",""
"null","","","html-keyboard-response","254","577771","0.0-254.0","qj02trg4","","<span style=""color:Black; font-size:50px;"">Agent A","null","","","","",""
"null","","","video-keyboard-response","255","580843","0.0-255.0","qj02trg4","","","null","","Agent A","veridical","STIM_SET_1_REAL/1159515.bmp_pp84_L3_V1.0_veridical_freeview_isoFalse_fps144.mp4",""
"null","","","html-keyboard-response","256","582347","0.0-256.0","qj02trg4","","<span style=""color:Black; font-size:50px;"">Agent B","null","","","","",""
"null","","","video-keyboard-response","257","585440","0.0-257.0","qj02trg4","","","null","","Agent B","scrambled","STIM_SET_3/1159874.bmp_pp96_L2_V2_veridical_freeview_isoFalsemismatch_1159515.bmp_L3_fps90.mp4",""
"","","","call-function","258","585441","0.0-258.0","qj02trg4","","","","","","","",""
"1897.9400000000605","{""judgement"":0}","[0]","survey-likert","259","587340","0.0-259.0","qj02trg4","","","","","","","","0"
"1237.8400000000838","{""confidence"":2}","[0]","survey-likert","260","588579","0.0-260.0","qj02trg4","","","","","","","",""
"","","","call-function","261","588580","0.0-261.0","qj02trg4","","","","","","","",""
"null","","","html-keyboard-response","262","590083","0.0-262.0","qj02trg4","","<span style=""color:Black; font-size:50px;"">Agent A","null","","","","",""
"null","","","video-keyboard-response","263","593172","0.0-263.0","qj02trg4","","","null","","Agent A","veridical","STIM_SET_1_REAL/1592351.bmp_pp51_L1_V1.0_veridical_freeview_isoFalse_fps144.mp4",""
"null","","","html-keyboard-response","264","594680","0.0-264.0","qj02trg4","","<span style=""color:Black; font-size:50px;"">Agent B","null","","","","",""
"null","","","video-keyboard-response","265","597782","0.0-265.0","qj02trg4","","","null","","Agent B","scrambled","STIM_SET_3/1592025.bmp_pp68_L1_V2_veridical_freeview_isoFalsemismatch_1592351.bmp_L1_fps90.mp4",""
"","","","call-function","266","597783","0.0-266.0","qj02trg4","","","","","","","",""
"2479.3000000000466","{""judgement"":0}","[0]","survey-likert","267","600264","0.0-267.0","qj02trg4","","","","","","","","0"
"1887.170000000042","{""confidence"":1}","[0]","survey-likert","268","602153","0.0-268.0","qj02trg4","","","","","","","",""
"","","","call-function","269","602154","0.0-269.0","qj02trg4","","","","","","","",""
"null","","","html-keyboard-response","270","603658","0.0-270.0","qj02trg4","","<span style=""color:Black; font-size:50px;"">Agent A","null","","","","",""
"null","","","video-keyboard-response","271","606751","0.0-271.0","qj02trg4","","","null","","Agent A","veridical","STIM_SET_1_REAL/497950.bmp_pp151_L1_V1.0_veridical_freeview_isoFalse_fps144.mp4",""
"null","","","html-keyboard-response","272","608256","0.0-272.0","qj02trg4","","<span style=""color:Black; font-size:50px;"">Agent B","null","","","","",""
"null","","","video-keyboard-response","273","611362","0.0-273.0","qj02trg4","","","null","","Agent B","scrambled","STIM_SET_3/713274.bmp_pp73_L3_V2_veridical_freeview_isoFalsemismatch_497950.bmp_L1_fps90.mp4",""
"","","","call-function","274","611363","0.0-274.0","qj02trg4","","","","","","","",""
"3062.9899999999907","{""judgement"":0}","[0]","survey-likert","275","614426","0.0-275.0","qj02trg4","","","","","","","","0"
"2284.6049999999814","{""confidence"":2}","[0]","survey-likert","276","616713","0.0-276.0","qj02trg4","","","","","","","",""
"","","","call-function","277","616714","0.0-277.0","qj02trg4","","","","","","","",""
"null","","","html-keyboard-response","278","618217","0.0-278.0","qj02trg4","","<span style=""color:Black; font-size:50px;"">Agent A","null","","","","",""
"null","","","video-keyboard-response","279","622719","0.0-279.0","qj02trg4","","","null","","Agent A","scrambled","STIM_SET_3/713920.bmp_pp76_L1_V2_veridical_freeview_isoFalsemismatch_713684.bmp_L3_fps90.mp4",""
"null","","","html-keyboard-response","280","624226","0.0-280.0","qj02trg4","","<span style=""color:Black; font-size:50px;"">Agent B","null","","","","",""
"null","","","video-keyboard-response","281","627303","0.0-281.0","qj02trg4","","","null","","Agent B","veridical","STIM_SET_1_REAL/713684.bmp_pp85_L3_V1.0_veridical_freeview_isoFalse_fps144.mp4",""
"","","","call-function","282","627304","0.0-282.0","qj02trg4","","","","","","","",""
"2366.164999999921","{""judgement"":0}","[0]","survey-likert","283","629672","0.0-283.0","qj02trg4","","","","","","","","1"
"3231.9599999999627","{""confidence"":2}","[0]","survey-likert","284","632905","0.0-284.0","qj02trg4","","","","","","","",""
"","","","call-function","285","632906","0.0-285.0","qj02trg4","","","","","","","",""
"null","","","html-keyboard-response","286","634412","0.0-286.0","qj02trg4","","<span style=""color:Black; font-size:50px;"">Agent A","null","","","","",""
"null","","","video-keyboard-response","287","637629","0.0-287.0","qj02trg4","","","null","","Agent A","scrambled","STIM_SET_3/1592044.bmp_pp94_L2_V2_veridical_freeview_isoFalsemismatch_1159446.bmp_L3_fps90.mp4",""
"null","","","html-keyboard-response","288","639134","0.0-288.0","qj02trg4","","<span style=""color:Black; font-size:50px;"">Agent B","null","","","","",""
"null","","","video-keyboard-response","289","642222","0.0-289.0","qj02trg4","","","null","","Agent B","veridical","STIM_SET_1_REAL/1159446.bmp_pp60_L3_V1.0_veridical_freeview_isoFalse_fps144.mp4",""
"","","","call-function","290","642223","0.0-290.0","qj02trg4","","","","","","","",""
"2108.695000000065","{""judgement"":1}","[0]","survey-likert","291","644333","0.0-291.0","qj02trg4","","","","","","","","1"
"2186.4799999999814","{""confidence"":2}","[0]","survey-likert","292","646521","0.0-292.0","qj02trg4","","","","","","","",""
"","","","call-function","293","646522","0.0-293.0","qj02trg4","","","","","","","",""
"null","","","html-keyboard-response","294","648024","0.0-294.0","qj02trg4","","<span style=""color:Black; font-size:50px;"">Agent A","null","","","","",""
"null","","","video-keyboard-response","295","651086","0.0-295.0","qj02trg4","","","null","","Agent A","veridical","STIM_SET_1_REAL/713089.bmp_pp60_L3_V1.0_veridical_freeview_isoFalse_fps144.mp4",""
"null","","","html-keyboard-response","296","652594","0.0-296.0","qj02trg4","","<span style=""color:Black; font-size:50px;"">Agent B","null","","","","",""
"null","","","video-keyboard-response","297","655683","0.0-297.0","qj02trg4","","","null","","Agent B","scrambled","STIM_SET_3/1592201.bmp_pp97_L3_V2_veridical_freeview_isoFalsemismatch_713089.bmp_L3_fps90.mp4",""
"","","","call-function","298","655684","0.0-298.0","qj02trg4","","","","","","","",""
"2577.2399999999907","{""judgement"":0}","[0]","survey-likert","299","658263","0.0-299.0","qj02trg4","","","","","","","","0"
"1499.0999999999767","{""confidence"":2}","[0]","survey-likert","300","659764","0.0-300.0","qj02trg4","","","","","","","",""
"","","","call-function","301","659765","0.0-301.0","qj02trg4","","","","","","","",""
"null","","","html-keyboard-response","302","661266","0.0-302.0","qj02trg4","","<span style=""color:Black; font-size:50px;"">Agent A","null","","","","",""
"null","","","video-keyboard-response","303","664366","0.0-303.0","qj02trg4","","","null","","Agent A","veridical","STIM_SET_1_REAL/1592397.bmp_pp85_L3_V1.0_veridical_freeview_isoFalse_fps144.mp4",""
"null","","","html-keyboard-response","304","665869","0.0-304.0","qj02trg4","","<span style=""color:Black; font-size:50px;"">Agent B","null","","","","",""
"null","","","video-keyboard-response","305","668988","0.0-305.0","qj02trg4","","","null","","Agent B","scrambled","STIM_SET_3/713790.bmp_pp100_L3_V2_veridical_freeview_isoFalsemismatch_1592397.bmp_L3_fps90.mp4",""
"","","","call-function","306","668990","0.0-306.0","qj02trg4","","","","","","","",""
"3532.0500000000466","{""judgement"":1}","[0]","survey-likert","307","672523","0.0-307.0","qj02trg4","","","","","","","","0"
"1525.4899999999907","{""confidence"":1}","[0]","survey-likert","308","674050","0.0-308.0","qj02trg4","","","","","","","",""
"","","","call-function","309","674052","0.0-309.0","qj02trg4","","","","","","","",""
"null","","","html-keyboard-response","310","675559","0.0-310.0","qj02trg4","","<span style=""color:Black; font-size:50px;"">Agent A","null","","","","",""
"null","","","video-keyboard-response","311","678686","0.0-311.0","qj02trg4","","","null","","Agent A","scrambled","STIM_SET_3/1592530.bmp_pp75_L1_V2_veridical_freeview_isoFalsemismatch_1591961.bmp_L2_fps90.mp4",""
"null","","","html-keyboard-response","312","680190","0.0-312.0","qj02trg4","","<span style=""color:Black; font-size:50px;"">Agent B","null","","","","",""
"null","","","video-keyboard-response","313","683261","0.0-313.0","qj02trg4","","","null","","Agent B","veridical","STIM_SET_1_REAL/1591961.bmp_pp67_L2_V1.0_veridical_freeview_isoFalse_fps144.mp4",""
"","","","call-function","314","683263","0.0-314.0","qj02trg4","","","","","","","",""
"2071.359999999986","{""judgement"":1}","[0]","survey-likert","315","685336","0.0-315.0","qj02trg4","","","","","","","","1"
"2431.6300000000047","{""confidence"":2}","[0]","survey-likert","316","687770","0.0-316.0","qj02trg4","","","","","","","",""
"","","","call-function","317","687771","0.0-317.0","qj02trg4","","","","","","","",""
"null","","","html-keyboard-response","318","689273","0.0-318.0","qj02trg4","","<span style=""color:Black; font-size:50px;"">Agent A","null","","","","",""
"null","","","video-keyboard-response","319","692365","0.0-319.0","qj02trg4","","","null","","Agent A","scrambled","STIM_SET_3/713381.bmp_pp82_L2_V2_veridical_freeview_isoFalsemismatch_1159572.bmp_L1_fps90.mp4",""
"null","","","html-keyboard-response","320","693869","0.0-320.0","qj02trg4","","<span style=""color:Black; font-size:50px;"">Agent B","null","","","","",""
"null","","","video-keyboard-response","321","696931","0.0-321.0","qj02trg4","","","null","","Agent B","veridical","STIM_SET_1_REAL/1159572.bmp_pp71_L1_V1.0_veridical_freeview_isoFalse_fps144.mp4",""
"","","","call-function","322","696932","0.0-322.0","qj02trg4","","","","","","","",""
"3642.2399999999907","{""judgement"":0}","[0]","survey-likert","323","700575","0.0-323.0","qj02trg4","","","","","","","","1"
"4269.82500000007","{""confidence"":2}","[0]","survey-likert","324","704847","0.0-324.0","qj02trg4","","","","","","","",""
"","","","call-function","325","704848","0.0-325.0","qj02trg4","","","","","","","",""
"null","","","html-keyboard-response","326","706350","0.0-326.0","qj02trg4","","<span style=""color:Black; font-size:50px;"">Agent A","null","","","","",""
"null","","","video-keyboard-response","327","709450","0.0-327.0","qj02trg4","","","null","","Agent A","scrambled","STIM_SET_3/498025.bmp_pp81_L1_V2_veridical_freeview_isoFalsemismatch_713681.bmp_L2_fps90.mp4",""
"null","","","html-keyboard-response","328","710952","0.0-328.0","qj02trg4","","<span style=""color:Black; font-size:50px;"">Agent B","null","","","","",""
"null","","","video-keyboard-response","329","714045","0.0-329.0","qj02trg4","","","null","","Agent B","veridical","STIM_SET_1_REAL/713681.bmp_pp86_L2_V1.0_veridical_freeview_isoFalse_fps144.mp4",""
"","","","call-function","330","714046","0.0-330.0","qj02trg4","","","","","","","",""
"3134.814999999944","{""judgement"":1}","[0]","survey-likert","331","717182","0.0-331.0","qj02trg4","","","","","","","","1"
"3012.6500000000233","{""confidence"":2}","[0]","survey-likert","332","720196","0.0-332.0","qj02trg4","","","","","","","",""
"7305.160000000033","","","instructions","333","727502","0.0-333.0","qj02trg4","[{""page_index"":0,""viewing_time"":1815.6699999999255},{""page_index"":1,""viewing_time"":3623.8600000001024},{""page_index"":2,""viewing_time"":1865.4749999999767}]","","","","","","",""
"4897.640000000014","","","instructions","334","732401","0.0-334.0","qj02trg4","[{""page_index"":0,""viewing_time"":1520.5350000000326},{""page_index"":1,""viewing_time"":2502.8349999999627},{""page_index"":2,""viewing_time"":874.0549999999348}]","","","","","","",""
"","","","call-function","335","732402","0.0-335.0","qj02trg4","","","","","","","",""
"null","","","html-keyboard-response","336","733906","0.0-336.0","qj02trg4","","<span style=""color:Black; font-size:50px;"">Agent A","null","","","","",""
"null","","","video-keyboard-response","337","737040","0.0-337.0","qj02trg4","","","null","","Agent A","scrambled","STIM_SET_3/1592568.bmp_pp71_L1_V2_veridical_freeview_isoFalsemismatch_285905.bmp_L1_fps90.mp4",""
"null","","","html-keyboard-response","338","738544","0.0-338.0","qj02trg4","","<span style=""color:Black; font-size:50px;"">Agent B","null","","","","",""
"null","","","video-keyboard-response","339","741651","0.0-339.0","qj02trg4","","","null","","Agent B","veridical","STIM_SET_1_REAL/285905.bmp_pp57_L1_V1.0_veridical_freeview_isoFalse_fps144.mp4",""
"","","","call-function","340","741652","0.0-340.0","qj02trg4","","","","","","","",""
"2264.4000000000233","{""judgement"":1}","[0]","survey-likert","341","743917","0.0-341.0","qj02trg4","","","","","","","","1"
"2173.2449999999953","{""confidence"":2}","[0]","survey-likert","342","746092","0.0-342.0","qj02trg4","","","","","","","",""
"","","","call-function","343","746093","0.0-343.0","qj02trg4","","","","","","","",""
"null","","","html-keyboard-response","344","747596","0.0-344.0","qj02trg4","","<span style=""color:Black; font-size:50px;"">Agent A","null","","","","",""
"null","","","video-keyboard-response","345","750672","0.0-345.0","qj02trg4","","","null","","Agent A","veridical","STIM_SET_1_REAL/713760.bmp_pp81_L1_V1.0_veridical_freeview_isoFalse_fps144.mp4",""
"null","","","html-keyboard-response","346","752173","0.0-346.0","qj02trg4","","<span style=""color:Black; font-size:50px;"">Agent B","null","","","","",""
"null","","","video-keyboard-response","347","755283","0.0-347.0","qj02trg4","","","null","","Agent B","scrambled","STIM_SET_3/285684.bmp_pp80_L3_V2_veridical_freeview_isoFalsemismatch_713760.bmp_L1_fps90.mp4",""
"","","","call-function","348","755284","0.0-348.0","qj02trg4","","","","","","","",""
"2577.189999999944","{""judgement"":1}","[0]","survey-likert","349","757862","0.0-349.0","qj02trg4","","","","","","","","0"
"2874.9799999999814","{""confidence"":2}","[0]","survey-likert","350","760738","0.0-350.0","qj02trg4","","","","","","","",""
"","","","call-function","351","760740","0.0-351.0","qj02trg4","","","","","","","",""
"null","","","html-keyboard-response","352","762245","0.0-352.0","qj02trg4","","<span style=""color:Black; font-size:50px;"">Agent A","null","","","","",""
"null","","","video-keyboard-response","353","765320","0.0-353.0","qj02trg4","","","null","","Agent A","veridical","STIM_SET_1_REAL/1592657.bmp_pp98_L1_V1.0_veridical_freeview_isoFalse_fps144.mp4",""
"null","","","html-keyboard-response","354","766827","0.0-354.0","qj02trg4","","<span style=""color:Black; font-size:50px;"">Agent B","null","","","","",""
"null","","","video-keyboard-response","355","769914","0.0-355.0","qj02trg4","","","null","","Agent B","scrambled","STIM_SET_3/498261.bmp_pp84_L3_V2_veridical_freeview_isoFalsemismatch_1592657.bmp_L1_fps90.mp4",""
"","","","call-function","356","769915","0.0-356.0","qj02trg4","","","","","","","",""
"3649.9000000000233","{""judgement"":1}","[0]","survey-likert","357","773566","0.0-357.0","qj02trg4","","","","","","","","0"
"31482.19000000006","{""confidence"":2}","[0]","survey-likert","358","805050","0.0-358.0","qj02trg4","","","","","","","",""
"","","","call-function","359","805051","0.0-359.0","qj02trg4","","","","","","","",""
"null","","","html-keyboard-response","360","806557","0.0-360.0","qj02trg4","","<span style=""color:Black; font-size:50px;"">Agent A","null","","","","",""
"null","","","video-keyboard-response","361","809642","0.0-361.0","qj02trg4","","","null","","Agent A","scrambled","STIM_SET_3/1159508.bmp_pp151_L1_V2_veridical_freeview_isoFalsemismatch_1159675.bmp_L3_fps90.mp4",""
"null","","","html-keyboard-response","362","811147","0.0-362.0","qj02trg4","","<span style=""color:Black; font-size:50px;"">Agent B","null","","","","",""
"null","","","video-keyboard-response","363","814221","0.0-363.0","qj02trg4","","","null","","Agent B","veridical","STIM_SET_1_REAL/1159675.bmp_pp77_L3_V1.0_veridical_freeview_isoFalse_fps144.mp4",""
"","","","call-function","364","814222","0.0-364.0","qj02trg4","","","","","","","",""
"2787.7399999999907","{""judgement"":1}","[0]","survey-likert","365","817011","0.0-365.0","qj02trg4","","","","","","","","1"
"2093.625","{""confidence"":2}","[0]","survey-likert","366","819107","0.0-366.0","qj02trg4","","","","","","","",""
"","","","call-function","367","819108","0.0-367.0","qj02trg4","","","","","","","",""
"null","","","html-keyboard-response","368","820611","0.0-368.0","qj02trg4","","<span style=""color:Black; font-size:50px;"">Agent A","null","","","","",""
"null","","","video-keyboard-response","369","823725","0.0-369.0","qj02trg4","","","null","","Agent A","scrambled","STIM_SET_3/286034.bmp_pp69_L3_V2_veridical_freeview_isoFalsemismatch_713403.bmp_L3_fps90.mp4",""
"null","","","html-keyboard-response","370","825229","0.0-370.0","qj02trg4","","<span style=""color:Black; font-size:50px;"">Agent B","null","","","","",""
"null","","","video-keyboard-response","371","828321","0.0-371.0","qj02trg4","","","null","","Agent B","veridical","STIM_SET_1_REAL/713403.bmp_pp80_L3_V1.0_veridical_freeview_isoFalse_fps144.mp4",""
"","","","call-function","372","828322","0.0-372.0","qj02trg4","","","","","","","",""
"2419.3699999999953","{""judgement"":1}","[0]","survey-likert","373","830742","0.0-373.0","qj02trg4","","","","","","","","1"
"1796.984999999986","{""confidence"":2}","[0]","survey-likert","374","832541","0.0-374.0","qj02trg4","","","","","","","",""
"","","","call-function","375","832542","0.0-375.0","qj02trg4","","","","","","","",""
"null","","","html-keyboard-response","376","834044","0.0-376.0","qj02trg4","","<span style=""color:Black; font-size:50px;"">Agent A","null","","","","",""
"null","","","video-keyboard-response","377","837135","0.0-377.0","qj02trg4","","","null","","Agent A","scrambled","STIM_SET_3/150463.bmp_pp55_L3_V2_veridical_freeview_isoFalsemismatch_1592619.bmp_L3_fps90.mp4",""
"null","","","html-keyboard-response","378","838640","0.0-378.0","qj02trg4","","<span style=""color:Black; font-size:50px;"">Agent B","null","","","","",""
"null","","","video-keyboard-response","379","841740","0.0-379.0","qj02trg4","","","null","","Agent B","veridical","STIM_SET_1_REAL/1592619.bmp_pp56_L3_V1.0_veridical_freeview_isoFalse_fps144.mp4",""
"","","","call-function","380","841742","0.0-380.0","qj02trg4","","","","","","","",""
"3549.780000000028","{""judgement"":0}","[0]","survey-likert","381","845293","0.0-381.0","qj02trg4","","","","","","","","1"
"2757.930000000051","{""confidence"":2}","[0]","survey-likert","382","848054","0.0-382.0","qj02trg4","","","","","","","",""
"","","","call-function","383","848055","0.0-383.0","qj02trg4","","","","","","","",""
"null","","","html-keyboard-response","384","849562","0.0-384.0","qj02trg4","","<span style=""color:Black; font-size:50px;"">Agent A","null","","","","",""
"null","","","video-keyboard-response","385","852631","0.0-385.0","qj02trg4","","","null","","Agent A","veridical","STIM_SET_1_REAL/1159440.bmp_pp98_L1_V1.0_veridical_freeview_isoFalse_fps144.mp4",""
"null","","","html-keyboard-response","386","854134","0.0-386.0","qj02trg4","","<span style=""color:Black; font-size:50px;"">Agent B","null","","","","",""
"null","","","video-keyboard-response","387","857212","0.0-387.0","qj02trg4","","","null","","Agent B","scrambled","STIM_SET_3/713829.bmp_pp60_L3_V2_veridical_freeview_isoFalsemismatch_1159440.bmp_L1_fps90.mp4",""
"","","","call-function","388","857214","0.0-388.0","qj02trg4","","","","","","","",""
"2583.0400000000373","{""judgement"":0}","[0]","survey-likert","389","859798","0.0-389.0","qj02trg4","","","","","","","","0"
"1391.0699999999488","{""confidence"":2}","[0]","survey-likert","390","861191","0.0-390.0","qj02trg4","","","","","","","",""
"","","","call-function","391","861192","0.0-391.0","qj02trg4","","","","","","","",""
"null","","","html-keyboard-response","392","862693","0.0-392.0","qj02trg4","","<span style=""color:Black; font-size:50px;"">Agent A","null","","","","",""
"null","","","video-keyboard-response","393","865787","0.0-393.0","qj02trg4","","","null","","Agent A","scrambled","STIM_SET_3/713770.bmp_pp89_L1_V2_veridical_freeview_isoFalsemismatch_61537.bmp_L3_fps90.mp4",""
"null","","","html-keyboard-response","394","867290","0.0-394.0","qj02trg4","","<span style=""color:Black; font-size:50px;"">Agent B","null","","","","",""
"null","","","video-keyboard-response","395","870388","0.0-395.0","qj02trg4","","","null","","Agent B","veridical","STIM_SET_1_REAL/61537.bmp_pp73_L3_V1.0_veridical_freeview_isoFalse_fps144.mp4",""
"","","","call-function","396","870389","0.0-396.0","qj02trg4","","","","","","","",""
"2670.444999999949","{""judgement"":1}","[0]","survey-likert","397","873060","0.0-397.0","qj02trg4","","","","","","","","1"
"1876.4500000000698","{""confidence"":2}","[0]","survey-likert","398","874938","0.0-398.0","qj02trg4","","","","","","","",""
"","","","call-function","399","874940","0.0-399.0","qj02trg4","","","","","","","",""
"null","","","html-keyboard-response","400","876442","0.0-400.0","qj02trg4","","<span style=""color:Black; font-size:50px;"">Agent A","null","","","","",""
"null","","","video-keyboard-response","401","879547","0.0-401.0","qj02trg4","","","null","","Agent A","veridical","STIM_SET_1_REAL/713707.bmp_pp154_L1_V1.0_veridical_freeview_isoFalse_fps144.mp4",""
"null","","","html-keyboard-response","402","881052","0.0-402.0","qj02trg4","","<span style=""color:Black; font-size:50px;"">Agent B","null","","","","",""
"null","","","video-keyboard-response","403","884193","0.0-403.0","qj02trg4","","","null","","Agent B","scrambled","STIM_SET_3/1592314.bmp_pp100_L3_V2_veridical_freeview_isoFalsemismatch_713707.bmp_L1_fps90.mp4",""
"","","","call-function","404","884194","0.0-404.0","qj02trg4","","","","","","","",""
"1968.3000000000466","{""judgement"":1}","[0]","survey-likert","405","886163","0.0-405.0","qj02trg4","","","","","","","","0"
"1531.030000000028","{""confidence"":2}","[0]","survey-likert","406","887696","0.0-406.0","qj02trg4","","","","","","","",""
"","","","call-function","407","887697","0.0-407.0","qj02trg4","","","","","","","",""
"null","","","html-keyboard-response","408","889200","0.0-408.0","qj02trg4","","<span style=""color:Black; font-size:50px;"">Agent A","null","","","","",""
"null","","","video-keyboard-response","409","892306","0.0-409.0","qj02trg4","","","null","","Agent A","veridical","STIM_SET_1_REAL/1592807.bmp_pp68_L1_V1.0_veridical_freeview_isoFalse_fps144.mp4",""
"null","","","html-keyboard-response","410","893811","0.0-410.0","qj02trg4","","<span style=""color:Black; font-size:50px;"">Agent B","null","","","","",""
"null","","","video-keyboard-response","411","896921","0.0-411.0","qj02trg4","","","null","","Agent B","scrambled","STIM_SET_3/713652.bmp_pp89_L1_V2_veridical_freeview_isoFalsemismatch_1592807.bmp_L1_fps90.mp4",""
"","","","call-function","412","896922","0.0-412.0","qj02trg4","","","","","","","",""
"2636.1199999999953","{""judgement"":1}","[0]","survey-likert","413","899560","0.0-413.0","qj02trg4","","","","","","","","0"
"1679.0250000000233","{""confidence"":2}","[0]","survey-likert","414","901241","0.0-414.0","qj02trg4","","","","","","","",""
"21240.61499999999","","","instructions","415","922482","0.0-415.0","qj02trg4","[{""page_index"":0,""viewing_time"":2597.6849999999395},{""page_index"":1,""viewing_time"":906.8250000000698},{""page_index"":2,""viewing_time"":17735.939999999944}]","","","","","","",""
"6324.020000000019","","","instructions","416","928807","0.0-416.0","qj02trg4","[{""page_index"":0,""viewing_time"":1184.8950000000186},{""page_index"":1,""viewing_time"":3584.1350000000093},{""page_index"":2,""viewing_time"":1554.8800000000047}]","","","","","","",""
"","","","call-function","417","928808","0.0-417.0","qj02trg4","","","","","","","",""
"null","","","html-keyboard-response","418","930310","0.0-418.0","qj02trg4","","<span style=""color:Black; font-size:50px;"">Agent A","null","","","","",""
"null","","","video-keyboard-response","419","933392","0.0-419.0","qj02trg4","","","null","","Agent A","scrambled","STIM_SET_3/107955.bmp_pp90_L2_V2_veridical_freeview_isoFalsemismatch_498149.bmp_L2_fps90.mp4",""
"null","","","html-keyboard-response","420","934899","0.0-420.0","qj02trg4","","<span style=""color:Black; font-size:50px;"">Agent B","null","","","","",""
"null","","","video-keyboard-response","421","937962","0.0-421.0","qj02trg4","","","null","","Agent B","veridical","STIM_SET_1_REAL/498149.bmp_pp99_L2_V1.0_veridical_freeview_isoFalse_fps144.mp4",""
"","","","call-function","422","937963","0.0-422.0","qj02trg4","","","","","","","",""
"2423.234999999986","{""judgement"":0}","[0]","survey-likert","423","940387","0.0-423.0","qj02trg4","","","","","","","","1"
"1419.625","{""confidence"":1}","[0]","survey-likert","424","941808","0.0-424.0","qj02trg4","","","","","","","",""
"","","","call-function","425","941810","0.0-425.0","qj02trg4","","","","","","","",""
"null","","","html-keyboard-response","426","943315","0.0-426.0","qj02trg4","","<span style=""color:Black; font-size:50px;"">Agent A","null","","","","",""
"null","","","video-keyboard-response","427","946405","0.0-427.0","qj02trg4","","","null","","Agent A","scrambled","STIM_SET_3/1591781.bmp_pp63_L1_V2_veridical_freeview_isoFalsemismatch_1593041.bmp_L1_fps90.mp4",""
"null","","","html-keyboard-response","428","947908","0.0-428.0","qj02trg4","","<span style=""color:Black; font-size:50px;"">Agent B","null","","","","",""
"null","","","video-keyboard-response","429","950993","0.0-429.0","qj02trg4","","","null","","Agent B","veridical","STIM_SET_1_REAL/1593041.bmp_pp58_L1_V1.0_veridical_freeview_isoFalse_fps144.mp4",""
"","","","call-function","430","950994","0.0-430.0","qj02trg4","","","","","","","",""
"2288.1299999998882","{""judgement"":1}","[0]","survey-likert","431","953283","0.0-431.0","qj02trg4","","","","","","","","1"
"1668.829999999958","{""confidence"":2}","[0]","survey-likert","432","954953","0.0-432.0","qj02trg4","","","","","","","",""
"","","","call-function","433","954954","0.0-433.0","qj02trg4","","","","","","","",""
"null","","","html-keyboard-response","434","956458","0.0-434.0","qj02trg4","","<span style=""color:Black; font-size:50px;"">Agent A","null","","","","",""
"null","","","video-keyboard-response","435","959554","0.0-435.0","qj02trg4","","","null","","Agent A","veridical","STIM_SET_1_REAL/1592133.bmp_pp75_L1_V1.0_veridical_freeview_isoFalse_fps144.mp4",""
"null","","","html-keyboard-response","436","961057","0.0-436.0","qj02trg4","","<span style=""color:Black; font-size:50px;"">Agent B","null","","","","",""
"null","","","video-keyboard-response","437","964182","0.0-437.0","qj02trg4","","","null","","Agent B","scrambled","STIM_SET_3/1160247.bmp_pp54_L2_V2_veridical_freeview_isoFalsemismatch_1592133.bmp_L1_fps90.mp4",""
"","","","call-function","438","964183","0.0-438.0","qj02trg4","","","","","","","",""
"2470.405000000028","{""judgement"":0}","[0]","survey-likert","439","966654","0.0-439.0","qj02trg4","","","","","","","","0"
"1694.704999999958","{""confidence"":2}","[0]","survey-likert","440","968350","0.0-440.0","qj02trg4","","","","","","","",""
"","","","call-function","441","968352","0.0-441.0","qj02trg4","","","","","","","",""
"null","","","html-keyboard-response","442","969855","0.0-442.0","qj02trg4","","<span style=""color:Black; font-size:50px;"">Agent A","null","","","","",""
"null","","","video-keyboard-response","443","972959","0.0-443.0","qj02trg4","","","null","","Agent A","veridical","STIM_SET_1_REAL/1592372.bmp_pp76_L1_V1.0_veridical_freeview_isoFalse_fps144.mp4",""
"null","","","html-keyboard-response","444","974462","0.0-444.0","qj02trg4","","<span style=""color:Black; font-size:50px;"">Agent B","null","","","","",""
"null","","","video-keyboard-response","445","977584","0.0-445.0","qj02trg4","","","null","","Agent B","scrambled","STIM_SET_3/107909.bmp_pp95_L2_V2_veridical_freeview_isoFalsemismatch_1592372.bmp_L1_fps90.mp4",""
"","","","call-function","446","977586","0.0-446.0","qj02trg4","","","","","","","",""
"2326.7600000000093","{""judgement"":1}","[0]","survey-likert","447","979914","0.0-447.0","qj02trg4","","","","","","","","0"
"1542.7850000000326","{""confidence"":1}","[0]","survey-likert","448","981459","0.0-448.0","qj02trg4","","","","","","","",""
"","","","call-function","449","981461","0.0-449.0","qj02trg4","","","","","","","",""
"null","","","html-keyboard-response","450","982966","0.0-450.0","qj02trg4","","<span style=""color:Black; font-size:50px;"">Agent A","null","","","","",""
"null","","","video-keyboard-response","451","986061","0.0-451.0","qj02trg4","","","null","","Agent A","scrambled","STIM_SET_3/713742.bmp_pp91_L3_V2_veridical_freeview_isoFalsemismatch_498170.bmp_L3_fps90.mp4",""
"null","","","html-keyboard-response","452","987569","0.0-452.0","qj02trg4","","<span style=""color:Black; font-size:50px;"">Agent B","null","","","","",""
"null","","","video-keyboard-response","453","990632","0.0-453.0","qj02trg4","","","null","","Agent B","veridical","STIM_SET_1_REAL/498170.bmp_pp153_L3_V1.0_veridical_freeview_isoFalse_fps144.mp4",""
"","","","call-function","454","990633","0.0-454.0","qj02trg4","","","","","","","",""
"3486.930000000051","{""judgement"":1}","[0]","survey-likert","455","994121","0.0-455.0","qj02trg4","","","","","","","","1"
"1362.1199999999953","{""confidence"":2}","[0]","survey-likert","456","995485","0.0-456.0","qj02trg4","","","","","","","",""
"","","","call-function","457","995486","0.0-457.0","qj02trg4","","","","","","","",""
"null","","","html-keyboard-response","458","996988","0.0-458.0","qj02trg4","","<span style=""color:Black; font-size:50px;"">Agent A","null","","","","",""
"null","","","video-keyboard-response","459","1000080","0.0-459.0","qj02trg4","","","null","","Agent A","scrambled","STIM_SET_3/713858.bmp_pp57_L1_V2_veridical_freeview_isoFalsemismatch_713749.bmp_L2_fps90.mp4",""
"null","","","html-keyboard-response","460","1001583","0.0-460.0","qj02trg4","","<span style=""color:Black; font-size:50px;"">Agent B","null","","","","",""
"null","","","video-keyboard-response","461","1004662","0.0-461.0","qj02trg4","","","null","","Agent B","veridical","STIM_SET_1_REAL/713749.bmp_pp88_L2_V1.0_veridical_freeview_isoFalse_fps144.mp4",""
"","","","call-function","462","1004663","0.0-462.0","qj02trg4","","","","","","","",""
"1798.795000000042","{""judgement"":1}","[0]","survey-likert","463","1006463","0.0-463.0","qj02trg4","","","","","","","","1"
"1194.75","{""confidence"":2}","[0]","survey-likert","464","1007659","0.0-464.0","qj02trg4","","","","","","","",""
"","","","call-function","465","1007661","0.0-465.0","qj02trg4","","","","","","","",""
"null","","","html-keyboard-response","466","1009166","0.0-466.0","qj02trg4","","<span style=""color:Black; font-size:50px;"">Agent A","null","","","","",""
"null","","","video-keyboard-response","467","1012283","0.0-467.0","qj02trg4","","","null","","Agent A","scrambled","STIM_SET_3/498372.bmp_pp95_L2_V2_veridical_freeview_isoFalsemismatch_1160127.bmp_L2_fps90.mp4",""
"null","","","html-keyboard-response","468","1013786","0.0-468.0","qj02trg4","","<span style=""color:Black; font-size:50px;"">Agent B","null","","","","",""
"null","","","video-keyboard-response","469","1016891","0.0-469.0","qj02trg4","","","null","","Agent B","veridical","STIM_SET_1_REAL/1160127.bmp_pp90_L2_V1.0_veridical_freeview_isoFalse_fps144.mp4",""
"","","","call-function","470","1016892","0.0-470.0","qj02trg4","","","","","","","",""
"2709.6500000000233","{""judgement"":1}","[0]","survey-likert","471","1019603","0.0-471.0","qj02trg4","","","","","","","","1"
"1268.4000000000233","{""confidence"":2}","[0]","survey-likert","472","1020873","0.0-472.0","qj02trg4","","","","","","","",""
"","","","call-function","473","1020874","0.0-473.0","qj02trg4","","","","","","","",""
"null","","","html-keyboard-response","474","1022377","0.0-474.0","qj02trg4","","<span style=""color:Black; font-size:50px;"">Agent A","null","","","","",""
"null","","","video-keyboard-response","475","1025470","0.0-475.0","qj02trg4","","","null","","Agent A","veridical","STIM_SET_1_REAL/1159882.bmp_pp61_L2_V1.0_veridical_freeview_isoFalse_fps144.mp4",""
"null","","","html-keyboard-response","476","1026977","0.0-476.0","qj02trg4","","<span style=""color:Black; font-size:50px;"">Agent B","null","","","","",""
"null","","","video-keyboard-response","477","1030079","0.0-477.0","qj02trg4","","","null","","Agent B","scrambled","STIM_SET_3/285715.bmp_pp67_L2_V2_veridical_freeview_isoFalsemismatch_1159882.bmp_L2_fps90.mp4",""
"","","","call-function","478","1030080","0.0-478.0","qj02trg4","","","","","","","",""
"4371.204999999958","{""judgement"":0}","[0]","survey-likert","479","1034452","0.0-479.0","qj02trg4","","","","","","","","0"
"3109.765000000014","{""confidence"":1}","[0]","survey-likert","480","1037563","0.0-480.0","qj02trg4","","","","","","","",""
"","","","call-function","481","1037564","0.0-481.0","qj02trg4","","","","","","","",""
"null","","","html-keyboard-response","482","1039067","0.0-482.0","qj02trg4","","<span style=""color:Black; font-size:50px;"">Agent A","null","","","","",""
"null","","","video-keyboard-response","483","1042164","0.0-483.0","qj02trg4","","","null","","Agent A","veridical","STIM_SET_1_REAL/1592727.bmp_pp59_L3_V1.0_veridical_freeview_isoFalse_fps144.mp4",""
"null","","","html-keyboard-response","484","1043669","0.0-484.0","qj02trg4","","<span style=""color:Black; font-size:50px;"">Agent B","null","","","","",""
"null","","","video-keyboard-response","485","1046788","0.0-485.0","qj02trg4","","","null","","Agent B","scrambled","STIM_SET_3/1592038.bmp_pp79_L2_V2_veridical_freeview_isoFalsemismatch_1592727.bmp_L3_fps90.mp4",""
"","","","call-function","486","1046790","0.0-486.0","qj02trg4","","","","","","","",""
"2487.0350000000326","{""judgement"":0}","[0]","survey-likert","487","1049277","0.0-487.0","qj02trg4","","","","","","","","0"
"1904.8300000000745","{""confidence"":1}","[0]","survey-likert","488","1051184","0.0-488.0","qj02trg4","","","","","","","",""
"","","","call-function","489","1051185","0.0-489.0","qj02trg4","","","","","","","",""
"null","","","html-keyboard-response","490","1052688","0.0-490.0","qj02trg4","","<span style=""color:Black; font-size:50px;"">Agent A","null","","","","",""
"null","","","video-keyboard-response","491","1055769","0.0-491.0","qj02trg4","","","null","","Agent A","scrambled","STIM_SET_3/713328.bmp_pp86_L2_V2_veridical_freeview_isoFalsemismatch_1591994.bmp_L3_fps90.mp4",""
"null","","","html-keyboard-response","492","1057272","0.0-492.0","qj02trg4","","<span style=""color:Black; font-size:50px;"">Agent B","null","","","","",""
"null","","","video-keyboard-response","493","1060347","0.0-493.0","qj02trg4","","","null","","Agent B","veridical","STIM_SET_1_REAL/1591994.bmp_pp69_L3_V1.0_veridical_freeview_isoFalse_fps144.mp4",""
"","","","call-function","494","1060348","0.0-494.0","qj02trg4","","","","","","","",""
"6811.925000000047","{""judgement"":0}","[0]","survey-likert","495","1067161","0.0-495.0","qj02trg4","","","","","","","","1"
"3067.774999999907","{""confidence"":2}","[0]","survey-likert","496","1070231","0.0-496.0","qj02trg4","","","","","","","",""
"7626.064999999944","","","instructions","497","1077858","0.0-497.0","qj02trg4","[{""page_index"":0,""viewing_time"":5669.814999999944},{""page_index"":1,""viewing_time"":817.1399999998976},{""page_index"":2,""viewing_time"":1138.9550000000745}]","","","","","","",""
"4281.870000000112","","","instructions","498","1082141","0.0-498.0","qj02trg4","[{""page_index"":0,""viewing_time"":1592.6650000000373},{""page_index"":1,""viewing_time"":1715.3950000000186},{""page_index"":2,""viewing_time"":973.6999999999534}]","","","","","","",""
"","","","call-function","499","1082142","0.0-499.0","qj02trg4","","","","","","","",""
"null","","","html-keyboard-response","500","1083643","0.0-500.0","qj02trg4","","<span style=""color:Black; font-size:50px;"">Agent A","null","","","","",""
"null","","","video-keyboard-response","501","1086708","0.0-501.0","qj02trg4","","","null","","Agent A","scrambled","STIM_SET_3/498326.bmp_pp57_L1_V2_veridical_freeview_isoFalsemismatch_1592286.bmp_L1_fps90.mp4",""
"null","","","html-keyboard-response","502","1088210","0.0-502.0","qj02trg4","","<span style=""color:Black; font-size:50px;"">Agent B","null","","","","",""
"null","","","video-keyboard-response","503","1091278","0.0-503.0","qj02trg4","","","null","","Agent B","veridical","STIM_SET_1_REAL/1592286.bmp_pp52_L1_V1.0_veridical_freeview_isoFalse_fps144.mp4",""
"","","","call-function","504","1091280","0.0-504.0","qj02trg4","","","","","","","",""
"2490.185000000056","{""judgement"":1}","[0]","survey-likert","505","1093771","0.0-505.0","qj02trg4","","","","","","","","1"
"1945.719999999972","{""confidence"":2}","[0]","survey-likert","506","1095718","0.0-506.0","qj02trg4","","","","","","","",""
"","","","call-function","507","1095719","0.0-507.0","qj02trg4","","","","","","","",""
"null","","","html-keyboard-response","508","1097223","0.0-508.0","qj02trg4","","<span style=""color:Black; font-size:50px;"">Agent A","null","","","","",""
"null","","","video-keyboard-response","509","1100335","0.0-509.0","qj02trg4","","","null","","Agent A","scrambled","STIM_SET_3/285932.bmp_pp64_L1_V2_veridical_freeview_isoFalsemismatch_1159855.bmp_L2_fps90.mp4",""
"null","","","html-keyboard-response","510","1101838","0.0-510.0","qj02trg4","","<span style=""color:Black; font-size:50px;"">Agent B","null","","","","",""
"null","","","video-keyboard-response","511","1104940","0.0-511.0","qj02trg4","","","null","","Agent B","veridical","STIM_SET_1_REAL/1159855.bmp_pp99_L2_V1.0_veridical_freeview_isoFalse_fps144.mp4",""
"","","","call-function","512","1104941","0.0-512.0","qj02trg4","","","","","","","",""
"2018.8200000000652","{""judgement"":1}","[0]","survey-likert","513","1106961","0.0-513.0","qj02trg4","","","","","","","","1"
"1489.8200000000652","{""confidence"":2}","[0]","survey-likert","514","1108454","0.0-514.0","qj02trg4","","","","","","","",""
"","","","call-function","515","1108456","0.0-515.0","qj02trg4","","","","","","","",""
"null","","","html-keyboard-response","516","1109959","0.0-516.0","qj02trg4","","<span style=""color:Black; font-size:50px;"">Agent A","null","","","","",""
"null","","","video-keyboard-response","517","1113049","0.0-517.0","qj02trg4","","","null","","Agent A","scrambled","STIM_SET_3/150277.bmp_pp65_L3_V2_veridical_freeview_isoFalsemismatch_1592362.bmp_L2_fps90.mp4",""
"null","","","html-keyboard-response","518","1114552","0.0-518.0","qj02trg4","","<span style=""color:Black; font-size:50px;"">Agent B","null","","","","",""
"null","","","video-keyboard-response","519","1117621","0.0-519.0","qj02trg4","","","null","","Agent B","veridical","STIM_SET_1_REAL/1592362.bmp_pp95_L2_V1.0_veridical_freeview_isoFalse_fps144.mp4",""
"","","","call-function","520","1117622","0.0-520.0","qj02trg4","","","","","","","",""
"6113.895000000019","{""judgement"":0}","[0]","survey-likert","521","1123737","0.0-521.0","qj02trg4","","","","","","","","1"
"1874.0100000000093","{""confidence"":1}","[0]","survey-likert","522","1125613","0.0-522.0","qj02trg4","","","","","","","",""
"","","","call-function","523","1125614","0.0-523.0","qj02trg4","","","","","","","",""
"null","","","html-keyboard-response","524","1127118","0.0-524.0","qj02trg4","","<span style=""color:Black; font-size:50px;"">Agent A","null","","","","",""
"null","","","video-keyboard-response","525","1130191","0.0-525.0","qj02trg4","","","null","","Agent A","veridical","STIM_SET_1_REAL/285933.bmp_pp81_L1_V1.0_veridical_freeview_isoFalse_fps144.mp4",""
"null","","","html-keyboard-response","526","1131694","0.0-526.0","qj02trg4","","<span style=""color:Black; font-size:50px;"">Agent B","null","","","","",""
"null","","","video-keyboard-response","527","1134779","0.0-527.0","qj02trg4","","","null","","Agent B","scrambled","STIM_SET_3/1159973.bmp_pp98_L1_V2_veridical_freeview_isoFalsemismatch_285933.bmp_L1_fps90.mp4",""
"","","","call-function","528","1134781","0.0-528.0","qj02trg4","","","","","","","",""
"4719.5","{""judgement"":0}","[0]","survey-likert","529","1139501","0.0-529.0","qj02trg4","","","","","","","","0"
"2416.089999999851","{""confidence"":1}","[0]","survey-likert","530","1141919","0.0-530.0","qj02trg4","","","","","","","",""
"","","","call-function","531","1141920","0.0-531.0","qj02trg4","","","","","","","",""
"null","","","html-keyboard-response","532","1143422","0.0-532.0","qj02trg4","","<span style=""color:Black; font-size:50px;"">Agent A","null","","","","",""
"null","","","video-keyboard-response","533","1146533","0.0-533.0","qj02trg4","","","null","","Agent A","scrambled","STIM_SET_3/498258.bmp_pp51_L1_V2_veridical_freeview_isoFalsemismatch_498155.bmp_L2_fps90.mp4",""
"null","","","html-keyboard-response","534","1148039","0.0-534.0","qj02trg4","","<span style=""color:Black; font-size:50px;"">Agent B","null","","","","",""
"null","","","video-keyboard-response","535","1151140","0.0-535.0","qj02trg4","","","null","","Agent B","veridical","STIM_SET_1_REAL/498155.bmp_pp61_L2_V1.0_veridical_freeview_isoFalse_fps144.mp4",""
"","","","call-function","536","1151141","0.0-536.0","qj02trg4","","","","","","","",""
"2058.1450000000186","{""judgement"":1}","[0]","survey-likert","537","1153200","0.0-537.0","qj02trg4","","","","","","","","1"
"1986.184999999823","{""confidence"":2}","[0]","survey-likert","538","1155188","0.0-538.0","qj02trg4","","","","","","","",""
"","","","call-function","539","1155189","0.0-539.0","qj02trg4","","","","","","","",""
"null","","","html-keyboard-response","540","1156693","0.0-540.0","qj02trg4","","<span style=""color:Black; font-size:50px;"">Agent A","null","","","","",""
"null","","","video-keyboard-response","541","1159810","0.0-541.0","qj02trg4","","","null","","Agent A","scrambled","STIM_SET_3/285959.bmp_pp93_L1_V2_veridical_freeview_isoFalsemismatch_498253.bmp_L2_fps90.mp4",""
"null","","","html-keyboard-response","542","1161313","0.0-542.0","qj02trg4","","<span style=""color:Black; font-size:50px;"">Agent B","null","","","","",""
"null","","","video-keyboard-response","543","1164421","0.0-543.0","qj02trg4","","","null","","Agent B","veridical","STIM_SET_1_REAL/498253.bmp_pp67_L2_V1.0_veridical_freeview_isoFalse_fps144.mp4",""
"","","","call-function","544","1164422","0.0-544.0","qj02trg4","","","","","","","",""
"2179.255000000121","{""judgement"":1}","[0]","survey-likert","545","1166602","0.0-545.0","qj02trg4","","","","","","","","1"
"1336.8999999999069","{""confidence"":2}","[0]","survey-likert","546","1167941","0.0-546.0","qj02trg4","","","","","","","",""
"","","","call-function","547","1167942","0.0-547.0","qj02trg4","","","","","","","",""
"null","","","html-keyboard-response","548","1169444","0.0-548.0","qj02trg4","","<span style=""color:Black; font-size:50px;"">Agent A","null","","","","",""
"null","","","video-keyboard-response","549","1172555","0.0-549.0","qj02trg4","","","null","","Agent A","scrambled","STIM_SET_3/498398.bmp_pp81_L1_V2_veridical_freeview_isoFalsemismatch_713620.bmp_L3_fps90.mp4",""
"null","","","html-keyboard-response","550","1174059","0.0-550.0","qj02trg4","","<span style=""color:Black; font-size:50px;"">Agent B","null","","","","",""
"null","","","video-keyboard-response","551","1177133","0.0-551.0","qj02trg4","","","null","","Agent B","veridical","STIM_SET_1_REAL/713620.bmp_pp65_L3_V1.0_veridical_freeview_isoFalse_fps144.mp4",""
"","","","call-function","552","1177134","0.0-552.0","qj02trg4","","","","","","","",""
"2410.7249999998603","{""judgement"":1}","[0]","survey-likert","553","1179546","0.0-553.0","qj02trg4","","","","","","","","1"
"2719.8700000001118","{""confidence"":2}","[0]","survey-likert","554","1182268","0.0-554.0","qj02trg4","","","","","","","",""
"","","","call-function","555","1182269","0.0-555.0","qj02trg4","","","","","","","",""
"null","","","html-keyboard-response","556","1183770","0.0-556.0","qj02trg4","","<span style=""color:Black; font-size:50px;"">Agent A","null","","","","",""
"null","","","video-keyboard-response","557","1186843","0.0-557.0","qj02trg4","","","null","","Agent A","veridical","STIM_SET_1_REAL/713135.bmp_pp54_L2_V1.0_veridical_freeview_isoFalse_fps144.mp4",""
"null","","","html-keyboard-response","558","1188348","0.0-558.0","qj02trg4","","<span style=""color:Black; font-size:50px;"">Agent B","null","","","","",""
"null","","","video-keyboard-response","559","1191580","0.0-559.0","qj02trg4","","","null","","Agent B","scrambled","STIM_SET_3/1592567.bmp_pp70_L2_V2_veridical_freeview_isoFalsemismatch_713135.bmp_L2_fps90.mp4",""
"","","","call-function","560","1191581","0.0-560.0","qj02trg4","","","","","","","",""
"2615.189999999944","{""judgement"":0}","[0]","survey-likert","561","1194197","0.0-561.0","qj02trg4","","","","","","","","0"
"5827.305000000168","{""confidence"":1}","[0]","survey-likert","562","1200026","0.0-562.0","qj02trg4","","","","","","","",""
"","","","call-function","563","1200027","0.0-563.0","qj02trg4","","","","","","","",""
"null","","","html-keyboard-response","564","1201531","0.0-564.0","qj02trg4","","<span style=""color:Black; font-size:50px;"">Agent A","null","","","","",""
"null","","","video-keyboard-response","565","1204611","0.0-565.0","qj02trg4","","","null","","Agent A","veridical","STIM_SET_1_REAL/498175.bmp_pp154_L1_V1.0_veridical_freeview_isoFalse_fps144.mp4",""
"null","","","html-keyboard-response","566","1206115","0.0-566.0","qj02trg4","","<span style=""color:Black; font-size:50px;"">Agent B","null","","","","",""
"null","","","video-keyboard-response","567","1209197","0.0-567.0","qj02trg4","","","null","","Agent B","scrambled","STIM_SET_3/713689.bmp_pp153_L3_V2_veridical_freeview_isoFalsemismatch_498175.bmp_L1_fps90.mp4",""
"","","","call-function","568","1209199","0.0-568.0","qj02trg4","","","","","","","",""
"2286.655000000028","{""judgement"":0}","[0]","survey-likert","569","1211487","0.0-569.0","qj02trg4","","","","","","","","0"
"1877.6599999999162","{""confidence"":2}","[0]","survey-likert","570","1213367","0.0-570.0","qj02trg4","","","","","","","",""
"","","","call-function","571","1213368","0.0-571.0","qj02trg4","","","","","","","",""
"null","","","html-keyboard-response","572","1214871","0.0-572.0","qj02trg4","","<span style=""color:Black; font-size:50px;"">Agent A","null","","","","",""
"null","","","video-keyboard-response","573","1217953","0.0-573.0","qj02trg4","","","null","","Agent A","scrambled","STIM_SET_3/1592017.bmp_pp154_L1_V2_veridical_freeview_isoFalsemismatch_1159777.bmp_L3_fps90.mp4",""
"null","","","html-keyboard-response","574","1219459","0.0-574.0","qj02trg4","","<span style=""color:Black; font-size:50px;"">Agent B","null","","","","",""
"null","","","video-keyboard-response","575","1222535","0.0-575.0","qj02trg4","","","null","","Agent B","veridical","STIM_SET_1_REAL/1159777.bmp_pp77_L3_V1.0_veridical_freeview_isoFalse_fps144.mp4",""
"","","","call-function","576","1222536","0.0-576.0","qj02trg4","","","","","","","",""
"5007.344999999972","{""judgement"":0}","[0]","survey-likert","577","1227544","0.0-577.0","qj02trg4","","","","","","","","1"
"1754.9650000000838","{""confidence"":2}","[0]","survey-likert","578","1229302","0.0-578.0","qj02trg4","","","","","","","",""
"1535.8899999998976","","","instructions","579","1230839","0.0-579.0","qj02trg4","[{""page_index"":0,""viewing_time"":1535.7549999998882}]","","","","","","",""
"1936.2399999999907","","","instructions","580","1232776","0.0-580.0","qj02trg4","[{""page_index"":0,""viewing_time"":1936.1350000000093}]","","","","","","",""
"4568.339999999851","{""post-1"":1}","[0]","survey-likert","581","1237346","0.0-581.0","qj02trg4","","","","","","","",""
"2567.935000000056","{""post-1"":0}","[0]","survey-likert","582","1239917","0.0-582.0","qj02trg4","","","","","","","",""
"7361.340000000084","{""post-2"":0}","[0]","survey-likert","583","1247280","0.0-583.0","qj02trg4","","","","","","","",""
"2435.875","{""post-2"":0}","[0]","survey-likert","584","1249718","0.0-584.0","qj02trg4","","","","","","","",""
"27372.425000000047","{""post-3"":1}","[0]","survey-likert","585","1277092","0.0-585.0","qj02trg4","","","","","","","",""
"2535.880000000121","{""post-3"":0}","[0]","survey-likert","586","1279631","0.0-586.0","qj02trg4","","","","","","","",""
"6859.505000000121","{""post-4"":0}","[0]","survey-likert","587","1286493","0.0-587.0","qj02trg4","","","","","","","",""
"1815.6200000001118","{""post-4"":0}","[0]","survey-likert","588","1288310","0.0-588.0","qj02trg4","","","","","","","",""
"5790.2949999999255","{""post-5"":1}","[0]","survey-likert","589","1294103","0.0-589.0","qj02trg4","","","","","","","",""
"6083.4550000000745","{""post-5"":3}","[0]","survey-likert","590","1300188","0.0-590.0","qj02trg4","","","","","","","",""
"48139.27000000002","{""Q0"":""On this second half I felt that there were some more obvious distinctions that made some seem more human or less.""}","","survey-text","591","1348336","0.0-591.0","qj02trg4","","","","","","","",""
"76547.53000000003","{""Q0"":""When the hotspots were in places which were not very attention grabbing, I judged them to be less human.\n""}","","survey-text","592","1424888","0.0-592.0","qj02trg4","","","","","","","",""
"29955.74499999988","{""Q0"":""Being able to keep up with where the hotspots appeared.""}","","survey-text","593","1454849","0.0-593.0","qj02trg4","","","","","","","",""
"1298.6999999999534","","","instructions","594","1456150","0.0-594.0","qj02trg4","[{""page_index"":0,""viewing_time"":1298.5649999999441}]","","","","","","",""
"67799.80000000005","{""Experimenter_end"":[""Printed ID# qj02trg4 on consent form"",""Given subject SONA credit or payment"",""Given the subject debrief form""]}","[0]","survey-multi-select","595","1523952","0.0-595.0","qj02trg4","","","","","","","",""
