"rt","responses","question_order","trial_type","trial_index","time_elapsed","internal_node_id","ID","view_history","stimulus","key_press","value","agent","condition","image","correct_answer"
"217161.93","{""Experimenter"":[""Confirmed subject's identity"",""Confirmed normal or corrected-to-normal vision"",""Obtained consent (signature and date)"",""Checked the test room lighting"",""Checked computer screen lighting"",""Checked distance from screen to chin rest (50cm)"",""Cleaned and adjusted chin rest"",""Counterbalanced the order of the tasks"",""Opened the experiment in Firefox"",""Made the experiment full screen"",""Encouraged subject to silence phone, put away distractors, etc.""]}","[0]","survey-multi-select","0","217169","0.0-0.0","r4bbrfu3","","","","","","","",""
"54053.044999999984","","","instructions","1","271224","0.0-1.0","r4bbrfu3","[{""page_index"":0,""viewing_time"":54052.47999999998}]","","","","","","",""
"15176.76000000001","{""Age"":13,""Sex"":1,""Gender"":1}","[0,1,2]","survey-likert","2","286404","0.0-2.0","r4bbrfu3","","","","","","","",""
"22617.784999999974","","","instructions","3","309022","0.0-3.0","r4bbrfu3","[{""page_index"":0,""viewing_time"":8269.645000000019},{""page_index"":1,""viewing_time"":2136.9049999999697},{""page_index"":2,""viewing_time"":12211.109999999986}]","","","","","","",""
"4384.794999999984","","","instructions","4","313407","0.0-4.0","r4bbrfu3","[{""page_index"":0,""viewing_time"":4384.684999999998}]","","","","","","",""
"null","","","video-keyboard-response","5","316515","0.0-5.0","r4bbrfu3","","","null","","","","",""
"18282.98999999999","","","instructions","6","334798","0.0-6.0","r4bbrfu3","[{""page_index"":0,""viewing_time"":6477.90499999997},{""page_index"":1,""viewing_time"":3574.865000000049},{""page_index"":2,""viewing_time"":8230.11499999999}]","","","","","","",""
"5075.27999999997","","","instructions","7","339874","0.0-7.0","r4bbrfu3","[{""page_index"":0,""viewing_time"":5075.179999999993}]","","","","","","",""
"2258.8349999999627","","","instructions","8","342133","0.0-8.0","r4bbrfu3","[{""page_index"":0,""viewing_time"":2258.625}]","","","","","","",""
"null","","","video-keyboard-response","9","345226","0.0-9.0","r4bbrfu3","","","null","","","","",""
"15851.834999999963","","","instructions","10","361078","0.0-10.0","r4bbrfu3","[{""page_index"":0,""viewing_time"":2254.1549999999697},{""page_index"":1,""viewing_time"":4356.734999999986},{""page_index"":2,""viewing_time"":9240.815000000002}]","","","","","","",""
"9627.774999999965","","","instructions","11","370706","0.0-11.0","r4bbrfu3","[{""page_index"":0,""viewing_time"":9627.659999999974}]","","","","","","",""
"","","","call-function","12","370707","0.0-12.0","r4bbrfu3","","","","","","","",""
"null","","","html-keyboard-response","13","372208","0.0-13.0","r4bbrfu3","","<span style=""color:Black; font-size:50px;"">Agent A","null","","","","",""
"null","","","video-keyboard-response","14","375005","0.0-14.0","r4bbrfu3","","","null","","Agent A","scrambled","FOR_REV_MAP_BLOBBY_STIM/713790.bmp_pp100_L3_V1.0_veridical_freeview_isoTrue_fps144_reversed_REAL.mp4",""
"null","","","html-keyboard-response","15","376512","0.0-15.0","r4bbrfu3","","<span style=""color:Black; font-size:50px;"">Agent B","null","","","","",""
"null","","","video-keyboard-response","16","379311","0.0-16.0","r4bbrfu3","","","null","","Agent B","veridical","FOR_REV_MAP_BLOBBY_STIM/713790.bmp_pp100_L3_V1.0_veridical_freeview_isoTrue_fps144.mp4",""
"","","","call-function","17","379311","0.0-17.0","r4bbrfu3","","","","","","","",""
"5753.650000000023","{""judgement"":1}","[0]","survey-likert","18","385066","0.0-18.0","r4bbrfu3","","","","","","","","1"
"4798.979999999981","{""confidence"":1}","[0]","survey-likert","19","389867","0.0-19.0","r4bbrfu3","","","","","","","",""
"","","","call-function","20","389868","0.0-20.0","r4bbrfu3","","","","","","","",""
"null","","","html-keyboard-response","21","391372","0.0-21.0","r4bbrfu3","","<span style=""color:Black; font-size:50px;"">Agent A","null","","","","",""
"null","","","video-keyboard-response","22","394139","0.0-22.0","r4bbrfu3","","","null","","Agent A","veridical","FOR_REV_MAP_BLOBBY_STIM/1592044.bmp_pp94_L2_V1.0_veridical_freeview_isoTrue_fps144.mp4",""
"null","","","html-keyboard-response","23","395640","0.0-23.0","r4bbrfu3","","<span style=""color:Black; font-size:50px;"">Agent B","null","","","","",""
"null","","","video-keyboard-response","24","398418","0.0-24.0","r4bbrfu3","","","null","","Agent B","scrambled","FOR_REV_MAP_BLOBBY_STIM/1592044.bmp_pp94_L2_V1.0_veridical_freeview_isoTrue_fps144_reversed_REAL.mp4",""
"","","","call-function","25","398418","0.0-25.0","r4bbrfu3","","","","","","","",""
"8229.48000000004","{""judgement"":1}","[0]","survey-likert","26","406649","0.0-26.0","r4bbrfu3","","","","","","","","0"
"3515.054999999993","{""confidence"":1}","[0]","survey-likert","27","410166","0.0-27.0","r4bbrfu3","","","","","","","",""
"","","","call-function","28","410167","0.0-28.0","r4bbrfu3","","","","","","","",""
"null","","","html-keyboard-response","29","411670","0.0-29.0","r4bbrfu3","","<span style=""color:Black; font-size:50px;"">Agent A","null","","","","",""
"null","","","video-keyboard-response","30","414434","0.0-30.0","r4bbrfu3","","","null","","Agent A","scrambled","FOR_REV_MAP_BLOBBY_STIM/1592129.bmp_pp153_L3_V1.0_veridical_freeview_isoTrue_fps144_reversed_REAL.mp4",""
"null","","","html-keyboard-response","31","415940","0.0-31.0","r4bbrfu3","","<span style=""color:Black; font-size:50px;"">Agent B","null","","","","",""
"null","","","video-keyboard-response","32","418711","0.0-32.0","r4bbrfu3","","","null","","Agent B","veridical","FOR_REV_MAP_BLOBBY_STIM/1592129.bmp_pp153_L3_V1.0_veridical_freeview_isoTrue_fps144.mp4",""
"","","","call-function","33","418712","0.0-33.0","r4bbrfu3","","","","","","","",""
"3656.539999999979","{""judgement"":0}","[0]","survey-likert","34","422370","0.0-34.0","r4bbrfu3","","","","","","","","1"
"2717.3349999999627","{""confidence"":1}","[0]","survey-likert","35","425089","0.0-35.0","r4bbrfu3","","","","","","","",""
"","","","call-function","36","425089","0.0-36.0","r4bbrfu3","","","","","","","",""
"null","","","html-keyboard-response","37","426592","0.0-37.0","r4bbrfu3","","<span style=""color:Black; font-size:50px;"">Agent A","null","","","","",""
"null","","","video-keyboard-response","38","428492","0.0-38.0","r4bbrfu3","","","null","","Agent A","veridical","FOR_REV_MAP_BLOBBY_STIM/285946.bmp_pp79_L2_V1.0_veridical_freeview_isoTrue_fps144.mp4",""
"null","","","html-keyboard-response","39","429998","0.0-39.0","r4bbrfu3","","<span style=""color:Black; font-size:50px;"">Agent B","null","","","","",""
"null","","","video-keyboard-response","40","431884","0.0-40.0","r4bbrfu3","","","null","","Agent B","scrambled","FOR_REV_MAP_BLOBBY_STIM/285946.bmp_pp79_L2_V1.0_veridical_freeview_isoTrue_fps144_reversed_REAL.mp4",""
"","","","call-function","41","431884","0.0-41.0","r4bbrfu3","","","","","","","",""
"4806.390000000014","{""judgement"":0}","[0]","survey-likert","42","436691","0.0-42.0","r4bbrfu3","","","","","","","","0"
"2922.3099999999977","{""confidence"":0}","[0]","survey-likert","43","439614","0.0-43.0","r4bbrfu3","","","","","","","",""
"","","","call-function","44","439615","0.0-44.0","r4bbrfu3","","","","","","","",""
"null","","","html-keyboard-response","45","441120","0.0-45.0","r4bbrfu3","","<span style=""color:Black; font-size:50px;"">Agent A","null","","","","",""
"null","","","video-keyboard-response","46","443913","0.0-46.0","r4bbrfu3","","","null","","Agent A","veridical","FOR_REV_MAP_BLOBBY_STIM/1159819.bmp_pp151_L1_V1.0_veridical_freeview_isoTrue_fps144.mp4",""
"null","","","html-keyboard-response","47","445419","0.0-47.0","r4bbrfu3","","<span style=""color:Black; font-size:50px;"">Agent B","null","","","","",""
"null","","","video-keyboard-response","48","448171","0.0-48.0","r4bbrfu3","","","null","","Agent B","scrambled","FOR_REV_MAP_BLOBBY_STIM/1159819.bmp_pp151_L1_V1.0_veridical_freeview_isoTrue_fps144_reversed_REAL.mp4",""
"","","","call-function","49","448171","0.0-49.0","r4bbrfu3","","","","","","","",""
"2838.195000000007","{""judgement"":1}","[0]","survey-likert","50","451010","0.0-50.0","r4bbrfu3","","","","","","","","0"
"2382.0950000000303","{""confidence"":1}","[0]","survey-likert","51","453393","0.0-51.0","r4bbrfu3","","","","","","","",""
"","","","call-function","52","453394","0.0-52.0","r4bbrfu3","","","","","","","",""
"null","","","html-keyboard-response","53","454898","0.0-53.0","r4bbrfu3","","<span style=""color:Black; font-size:50px;"">Agent A","null","","","","",""
"null","","","video-keyboard-response","54","457654","0.0-54.0","r4bbrfu3","","","null","","Agent A","veridical","FOR_REV_MAP_BLOBBY_STIM/1591975.bmp_pp88_L2_V1.0_veridical_freeview_isoTrue_fps144.mp4",""
"null","","","html-keyboard-response","55","459156","0.0-55.0","r4bbrfu3","","<span style=""color:Black; font-size:50px;"">Agent B","null","","","","",""
"null","","","video-keyboard-response","56","461903","0.0-56.0","r4bbrfu3","","","null","","Agent B","scrambled","FOR_REV_MAP_BLOBBY_STIM/1591975.bmp_pp88_L2_V1.0_veridical_freeview_isoTrue_fps144_reversed_REAL.mp4",""
"","","","call-function","57","461903","0.0-57.0","r4bbrfu3","","","","","","","",""
"3084.5349999999744","{""judgement"":0}","[0]","survey-likert","58","464988","0.0-58.0","r4bbrfu3","","","","","","","","0"
"2588.0449999999837","{""confidence"":1}","[0]","survey-likert","59","467577","0.0-59.0","r4bbrfu3","","","","","","","",""
"","","","call-function","60","467578","0.0-60.0","r4bbrfu3","","","","","","","",""
"null","","","html-keyboard-response","61","469084","0.0-61.0","r4bbrfu3","","<span style=""color:Black; font-size:50px;"">Agent A","null","","","","",""
"null","","","video-keyboard-response","62","471868","0.0-62.0","r4bbrfu3","","","null","","Agent A","scrambled","FOR_REV_MAP_BLOBBY_STIM/498372.bmp_pp95_L2_V1.0_veridical_freeview_isoTrue_fps144_reversed_REAL.mp4",""
"null","","","html-keyboard-response","63","473374","0.0-63.0","r4bbrfu3","","<span style=""color:Black; font-size:50px;"">Agent B","null","","","","",""
"null","","","video-keyboard-response","64","476201","0.0-64.0","r4bbrfu3","","","null","","Agent B","veridical","FOR_REV_MAP_BLOBBY_STIM/498372.bmp_pp95_L2_V1.0_veridical_freeview_isoTrue_fps144.mp4",""
"","","","call-function","65","476202","0.0-65.0","r4bbrfu3","","","","","","","",""
"3631.615000000049","{""judgement"":0}","[0]","survey-likert","66","479834","0.0-66.0","r4bbrfu3","","","","","","","","1"
"3475.1650000000373","{""confidence"":0}","[0]","survey-likert","67","483310","0.0-67.0","r4bbrfu3","","","","","","","",""
"","","","call-function","68","483311","0.0-68.0","r4bbrfu3","","","","","","","",""
"null","","","html-keyboard-response","69","484813","0.0-69.0","r4bbrfu3","","<span style=""color:Black; font-size:50px;"">Agent A","null","","","","",""
"null","","","video-keyboard-response","70","487584","0.0-70.0","r4bbrfu3","","","null","","Agent A","scrambled","FOR_REV_MAP_BLOBBY_STIM/285932.bmp_pp64_L1_V1.0_veridical_freeview_isoTrue_fps144_reversed_REAL.mp4",""
"null","","","html-keyboard-response","71","489090","0.0-71.0","r4bbrfu3","","<span style=""color:Black; font-size:50px;"">Agent B","null","","","","",""
"null","","","video-keyboard-response","72","491864","0.0-72.0","r4bbrfu3","","","null","","Agent B","veridical","FOR_REV_MAP_BLOBBY_STIM/285932.bmp_pp64_L1_V1.0_veridical_freeview_isoTrue_fps144.mp4",""
"","","","call-function","73","491864","0.0-73.0","r4bbrfu3","","","","","","","",""
"2877.414999999979","{""judgement"":0}","[0]","survey-likert","74","494743","0.0-74.0","r4bbrfu3","","","","","","","","1"
"3758.8699999999953","{""confidence"":1}","[0]","survey-likert","75","498502","0.0-75.0","r4bbrfu3","","","","","","","",""
"","","","call-function","76","498503","0.0-76.0","r4bbrfu3","","","","","","","",""
"null","","","html-keyboard-response","77","500005","0.0-77.0","r4bbrfu3","","<span style=""color:Black; font-size:50px;"">Agent A","null","","","","",""
"null","","","video-keyboard-response","78","502837","0.0-78.0","r4bbrfu3","","","null","","Agent A","veridical","FOR_REV_MAP_BLOBBY_STIM/1592305.bmp_pp65_L3_V1.0_veridical_freeview_isoTrue_fps144.mp4",""
"null","","","html-keyboard-response","79","504344","0.0-79.0","r4bbrfu3","","<span style=""color:Black; font-size:50px;"">Agent B","null","","","","",""
"null","","","video-keyboard-response","80","507138","0.0-80.0","r4bbrfu3","","","null","","Agent B","scrambled","FOR_REV_MAP_BLOBBY_STIM/1592305.bmp_pp65_L3_V1.0_veridical_freeview_isoTrue_fps144_reversed_REAL.mp4",""
"","","","call-function","81","507139","0.0-81.0","r4bbrfu3","","","","","","","",""
"2850.9949999999953","{""judgement"":1}","[0]","survey-likert","82","509991","0.0-82.0","r4bbrfu3","","","","","","","","0"
"2539.3649999999907","{""confidence"":1}","[0]","survey-likert","83","512532","0.0-83.0","r4bbrfu3","","","","","","","",""
"","","","call-function","84","512532","0.0-84.0","r4bbrfu3","","","","","","","",""
"null","","","html-keyboard-response","85","514035","0.0-85.0","r4bbrfu3","","<span style=""color:Black; font-size:50px;"">Agent A","null","","","","",""
"null","","","video-keyboard-response","86","516860","0.0-86.0","r4bbrfu3","","","null","","Agent A","veridical","FOR_REV_MAP_BLOBBY_STIM/713770.bmp_pp89_L1_V1.0_veridical_freeview_isoTrue_fps144.mp4",""
"null","","","html-keyboard-response","87","518363","0.0-87.0","r4bbrfu3","","<span style=""color:Black; font-size:50px;"">Agent B","null","","","","",""
"null","","","video-keyboard-response","88","521171","0.0-88.0","r4bbrfu3","","","null","","Agent B","scrambled","FOR_REV_MAP_BLOBBY_STIM/713770.bmp_pp89_L1_V1.0_veridical_freeview_isoTrue_fps144_reversed_REAL.mp4",""
"","","","call-function","89","521171","0.0-89.0","r4bbrfu3","","","","","","","",""
"2433.8649999999907","{""judgement"":0}","[0]","survey-likert","90","523606","0.0-90.0","r4bbrfu3","","","","","","","","0"
"2671.5299999999697","{""confidence"":1}","[0]","survey-likert","91","526279","0.0-91.0","r4bbrfu3","","","","","","","",""
"6184.70000000007","","","instructions","92","532464","0.0-92.0","r4bbrfu3","[{""page_index"":0,""viewing_time"":2345.090000000084},{""page_index"":1,""viewing_time"":2353.8850000000093},{""page_index"":2,""viewing_time"":1485.5249999999069}]","","","","","","",""
"5692.040000000037","","","instructions","93","538156","0.0-93.0","r4bbrfu3","[{""page_index"":0,""viewing_time"":1447.9799999999814},{""page_index"":1,""viewing_time"":2915.3950000000186},{""page_index"":2,""viewing_time"":1328.5600000000559}]","","","","","","",""
"","","","call-function","94","538157","0.0-94.0","r4bbrfu3","","","","","","","",""
"null","","","html-keyboard-response","95","539657","0.0-95.0","r4bbrfu3","","<span style=""color:Black; font-size:50px;"">Agent A","null","","","","",""
"null","","","video-keyboard-response","96","542461","0.0-96.0","r4bbrfu3","","","null","","Agent A","veridical","FOR_REV_MAP_BLOBBY_STIM/150463.bmp_pp55_L3_V1.0_veridical_freeview_isoTrue_fps144.mp4",""
"null","","","html-keyboard-response","97","543962","0.0-97.0","r4bbrfu3","","<span style=""color:Black; font-size:50px;"">Agent B","null","","","","",""
"null","","","video-keyboard-response","98","546760","0.0-98.0","r4bbrfu3","","","null","","Agent B","scrambled","FOR_REV_MAP_BLOBBY_STIM/150463.bmp_pp55_L3_V1.0_veridical_freeview_isoTrue_fps144_reversed_REAL.mp4",""
"","","","call-function","99","546760","0.0-99.0","r4bbrfu3","","","","","","","",""
"2300.305000000051","{""judgement"":0}","[0]","survey-likert","100","549061","0.0-100.0","r4bbrfu3","","","","","","","","0"
"2907.2550000000047","{""confidence"":1}","[0]","survey-likert","101","551970","0.0-101.0","r4bbrfu3","","","","","","","",""
"","","","call-function","102","551970","0.0-102.0","r4bbrfu3","","","","","","","",""
"null","","","html-keyboard-response","103","553473","0.0-103.0","r4bbrfu3","","<span style=""color:Black; font-size:50px;"">Agent A","null","","","","",""
"null","","","video-keyboard-response","104","556090","0.0-104.0","r4bbrfu3","","","null","","Agent A","scrambled","FOR_REV_MAP_BLOBBY_STIM/1159874.bmp_pp96_L2_V1.0_veridical_freeview_isoTrue_fps144_reversed_REAL.mp4",""
"null","","","html-keyboard-response","105","557594","0.0-105.0","r4bbrfu3","","<span style=""color:Black; font-size:50px;"">Agent B","null","","","","",""
"null","","","video-keyboard-response","106","560211","0.0-106.0","r4bbrfu3","","","null","","Agent B","veridical","FOR_REV_MAP_BLOBBY_STIM/1159874.bmp_pp96_L2_V1.0_veridical_freeview_isoTrue_fps144.mp4",""
"","","","call-function","107","560211","0.0-107.0","r4bbrfu3","","","","","","","",""
"3350.195000000065","{""judgement"":1}","[0]","survey-likert","108","563562","0.0-108.0","r4bbrfu3","","","","","","","","1"
"2338.109999999986","{""confidence"":1}","[0]","survey-likert","109","565902","0.0-109.0","r4bbrfu3","","","","","","","",""
"","","","call-function","110","565902","0.0-110.0","r4bbrfu3","","","","","","","",""
"null","","","html-keyboard-response","111","567406","0.0-111.0","r4bbrfu3","","<span style=""color:Black; font-size:50px;"">Agent A","null","","","","",""
"null","","","video-keyboard-response","112","570193","0.0-112.0","r4bbrfu3","","","null","","Agent A","veridical","FOR_REV_MAP_BLOBBY_STIM/1159325.bmp_pp67_L2_V1.0_veridical_freeview_isoTrue_fps144.mp4",""
"null","","","html-keyboard-response","113","571700","0.0-113.0","r4bbrfu3","","<span style=""color:Black; font-size:50px;"">Agent B","null","","","","",""
"null","","","video-keyboard-response","114","574467","0.0-114.0","r4bbrfu3","","","null","","Agent B","scrambled","FOR_REV_MAP_BLOBBY_STIM/1159325.bmp_pp67_L2_V1.0_veridical_freeview_isoTrue_fps144_reversed_REAL.mp4",""
"","","","call-function","115","574468","0.0-115.0","r4bbrfu3","","","","","","","",""
"3109.170000000042","{""judgement"":0}","[0]","survey-likert","116","577578","0.0-116.0","r4bbrfu3","","","","","","","","0"
"2117.0050000000047","{""confidence"":1}","[0]","survey-likert","117","579696","0.0-117.0","r4bbrfu3","","","","","","","",""
"","","","call-function","118","579697","0.0-118.0","r4bbrfu3","","","","","","","",""
"null","","","html-keyboard-response","119","581204","0.0-119.0","r4bbrfu3","","<span style=""color:Black; font-size:50px;"">Agent A","null","","","","",""
"null","","","video-keyboard-response","120","583892","0.0-120.0","r4bbrfu3","","","null","","Agent A","scrambled","FOR_REV_MAP_BLOBBY_STIM/1592350.bmp_pp55_L3_V1.0_veridical_freeview_isoTrue_fps144_reversed_REAL.mp4",""
"null","","","html-keyboard-response","121","585397","0.0-121.0","r4bbrfu3","","<span style=""color:Black; font-size:50px;"">Agent B","null","","","","",""
"null","","","video-keyboard-response","122","588123","0.0-122.0","r4bbrfu3","","","null","","Agent B","veridical","FOR_REV_MAP_BLOBBY_STIM/1592350.bmp_pp55_L3_V1.0_veridical_freeview_isoTrue_fps144.mp4",""
"","","","call-function","123","588124","0.0-123.0","r4bbrfu3","","","","","","","",""
"2638.92499999993","{""judgement"":0}","[0]","survey-likert","124","590764","0.0-124.0","r4bbrfu3","","","","","","","","1"
"2064.0899999999674","{""confidence"":1}","[0]","survey-likert","125","592829","0.0-125.0","r4bbrfu3","","","","","","","",""
"","","","call-function","126","592829","0.0-126.0","r4bbrfu3","","","","","","","",""
"null","","","html-keyboard-response","127","594335","0.0-127.0","r4bbrfu3","","<span style=""color:Black; font-size:50px;"">Agent A","null","","","","",""
"null","","","video-keyboard-response","128","597166","0.0-128.0","r4bbrfu3","","","null","","Agent A","scrambled","FOR_REV_MAP_BLOBBY_STIM/1592530.bmp_pp75_L1_V1.0_veridical_freeview_isoTrue_fps144_reversed_REAL.mp4",""
"null","","","html-keyboard-response","129","598668","0.0-129.0","r4bbrfu3","","<span style=""color:Black; font-size:50px;"">Agent B","null","","","","",""
"null","","","video-keyboard-response","130","601494","0.0-130.0","r4bbrfu3","","","null","","Agent B","veridical","FOR_REV_MAP_BLOBBY_STIM/1592530.bmp_pp75_L1_V1.0_veridical_freeview_isoTrue_fps144.mp4",""
"","","","call-function","131","601494","0.0-131.0","r4bbrfu3","","","","","","","",""
"4394.800000000047","{""judgement"":0}","[0]","survey-likert","132","605890","0.0-132.0","r4bbrfu3","","","","","","","","1"
"2193.5","{""confidence"":1}","[0]","survey-likert","133","608085","0.0-133.0","r4bbrfu3","","","","","","","",""
"","","","call-function","134","608085","0.0-134.0","r4bbrfu3","","","","","","","",""
"null","","","html-keyboard-response","135","609588","0.0-135.0","r4bbrfu3","","<span style=""color:Black; font-size:50px;"">Agent A","null","","","","",""
"null","","","video-keyboard-response","136","612390","0.0-136.0","r4bbrfu3","","","null","","Agent A","veridical","FOR_REV_MAP_BLOBBY_STIM/1591781.bmp_pp63_L1_V1.0_veridical_freeview_isoTrue_fps144.mp4",""
"null","","","html-keyboard-response","137","613896","0.0-137.0","r4bbrfu3","","<span style=""color:Black; font-size:50px;"">Agent B","null","","","","",""
"null","","","video-keyboard-response","138","616694","0.0-138.0","r4bbrfu3","","","null","","Agent B","scrambled","FOR_REV_MAP_BLOBBY_STIM/1591781.bmp_pp63_L1_V1.0_veridical_freeview_isoTrue_fps144_reversed_REAL.mp4",""
"","","","call-function","139","616694","0.0-139.0","r4bbrfu3","","","","","","","",""
"2290.7050000000745","{""judgement"":0}","[0]","survey-likert","140","618986","0.0-140.0","r4bbrfu3","","","","","","","","0"
"2304.4899999999907","{""confidence"":1}","[0]","survey-likert","141","621292","0.0-141.0","r4bbrfu3","","","","","","","",""
"","","","call-function","142","621293","0.0-142.0","r4bbrfu3","","","","","","","",""
"null","","","html-keyboard-response","143","622797","0.0-143.0","r4bbrfu3","","<span style=""color:Black; font-size:50px;"">Agent A","null","","","","",""
"null","","","video-keyboard-response","144","625596","0.0-144.0","r4bbrfu3","","","null","","Agent A","scrambled","FOR_REV_MAP_BLOBBY_STIM/1592921.bmp_pp69_L3_V1.0_veridical_freeview_isoTrue_fps144_reversed_REAL.mp4",""
"null","","","html-keyboard-response","145","627098","0.0-145.0","r4bbrfu3","","<span style=""color:Black; font-size:50px;"">Agent B","null","","","","",""
"null","","","video-keyboard-response","146","629941","0.0-146.0","r4bbrfu3","","","null","","Agent B","veridical","FOR_REV_MAP_BLOBBY_STIM/1592921.bmp_pp69_L3_V1.0_veridical_freeview_isoTrue_fps144.mp4",""
"","","","call-function","147","629941","0.0-147.0","r4bbrfu3","","","","","","","",""
"2154.5250000000233","{""judgement"":0}","[0]","survey-likert","148","632097","0.0-148.0","r4bbrfu3","","","","","","","","1"
"2090.1600000000326","{""confidence"":1}","[0]","survey-likert","149","634188","0.0-149.0","r4bbrfu3","","","","","","","",""
"","","","call-function","150","634188","0.0-150.0","r4bbrfu3","","","","","","","",""
"null","","","html-keyboard-response","151","635694","0.0-151.0","r4bbrfu3","","<span style=""color:Black; font-size:50px;"">Agent A","null","","","","",""
"null","","","video-keyboard-response","152","638535","0.0-152.0","r4bbrfu3","","","null","","Agent A","veridical","FOR_REV_MAP_BLOBBY_STIM/713829.bmp_pp60_L3_V1.0_veridical_freeview_isoTrue_fps144.mp4",""
"null","","","html-keyboard-response","153","640041","0.0-153.0","r4bbrfu3","","<span style=""color:Black; font-size:50px;"">Agent B","null","","","","",""
"null","","","video-keyboard-response","154","642869","0.0-154.0","r4bbrfu3","","","null","","Agent B","scrambled","FOR_REV_MAP_BLOBBY_STIM/713829.bmp_pp60_L3_V1.0_veridical_freeview_isoTrue_fps144_reversed_REAL.mp4",""
"","","","call-function","155","642869","0.0-155.0","r4bbrfu3","","","","","","","",""
"4614.819999999949","{""judgement"":1}","[0]","survey-likert","156","647485","0.0-156.0","r4bbrfu3","","","","","","","","0"
"1967.7249999999767","{""confidence"":1}","[0]","survey-likert","157","649454","0.0-157.0","r4bbrfu3","","","","","","","",""
"","","","call-function","158","649454","0.0-158.0","r4bbrfu3","","","","","","","",""
"null","","","html-keyboard-response","159","650955","0.0-159.0","r4bbrfu3","","<span style=""color:Black; font-size:50px;"">Agent A","null","","","","",""
"null","","","video-keyboard-response","160","653727","0.0-160.0","r4bbrfu3","","","null","","Agent A","veridical","FOR_REV_MAP_BLOBBY_STIM/285959.bmp_pp93_L1_V1.0_veridical_freeview_isoTrue_fps144.mp4",""
"null","","","html-keyboard-response","161","655234","0.0-161.0","r4bbrfu3","","<span style=""color:Black; font-size:50px;"">Agent B","null","","","","",""
"null","","","video-keyboard-response","162","657989","0.0-162.0","r4bbrfu3","","","null","","Agent B","scrambled","FOR_REV_MAP_BLOBBY_STIM/285959.bmp_pp93_L1_V1.0_veridical_freeview_isoTrue_fps144_reversed_REAL.mp4",""
"","","","call-function","163","657989","0.0-163.0","r4bbrfu3","","","","","","","",""
"2495.6149999999907","{""judgement"":0}","[0]","survey-likert","164","660486","0.0-164.0","r4bbrfu3","","","","","","","","0"
"1996.9449999999488","{""confidence"":1}","[0]","survey-likert","165","662484","0.0-165.0","r4bbrfu3","","","","","","","",""
"","","","call-function","166","662484","0.0-166.0","r4bbrfu3","","","","","","","",""
"null","","","html-keyboard-response","167","663987","0.0-167.0","r4bbrfu3","","<span style=""color:Black; font-size:50px;"">Agent A","null","","","","",""
"null","","","video-keyboard-response","168","666825","0.0-168.0","r4bbrfu3","","","null","","Agent A","veridical","FOR_REV_MAP_BLOBBY_STIM/713652.bmp_pp89_L1_V1.0_veridical_freeview_isoTrue_fps144.mp4",""
"null","","","html-keyboard-response","169","668331","0.0-169.0","r4bbrfu3","","<span style=""color:Black; font-size:50px;"">Agent B","null","","","","",""
"null","","","video-keyboard-response","170","671149","0.0-170.0","r4bbrfu3","","","null","","Agent B","scrambled","FOR_REV_MAP_BLOBBY_STIM/713652.bmp_pp89_L1_V1.0_veridical_freeview_isoTrue_fps144_reversed_REAL.mp4",""
"","","","call-function","171","671149","0.0-171.0","r4bbrfu3","","","","","","","",""
"2813.2550000000047","{""judgement"":0}","[0]","survey-likert","172","673964","0.0-172.0","r4bbrfu3","","","","","","","","0"
"2292.314999999944","{""confidence"":0}","[0]","survey-likert","173","676257","0.0-173.0","r4bbrfu3","","","","","","","",""
"4892.4049999999115","","","instructions","174","681150","0.0-174.0","r4bbrfu3","[{""page_index"":0,""viewing_time"":1799.1149999999907},{""page_index"":1,""viewing_time"":1777.0449999999255},{""page_index"":2,""viewing_time"":1316.0400000000373}]","","","","","","",""
"4468.75","","","instructions","175","685619","0.0-175.0","r4bbrfu3","[{""page_index"":0,""viewing_time"":1201.365000000107},{""page_index"":1,""viewing_time"":2229.929999999935},{""page_index"":2,""viewing_time"":1037.344999999972}]","","","","","","",""
"","","","call-function","176","685619","0.0-176.0","r4bbrfu3","","","","","","","",""
"null","","","html-keyboard-response","177","687120","0.0-177.0","r4bbrfu3","","<span style=""color:Black; font-size:50px;"">Agent A","null","","","","",""
"null","","","video-keyboard-response","178","689834","0.0-178.0","r4bbrfu3","","","null","","Agent A","veridical","FOR_REV_MAP_BLOBBY_STIM/1159427.bmp_pp98_L1_V1.0_veridical_freeview_isoTrue_fps144.mp4",""
"null","","","html-keyboard-response","179","691336","0.0-179.0","r4bbrfu3","","<span style=""color:Black; font-size:50px;"">Agent B","null","","","","",""
"null","","","video-keyboard-response","180","694052","0.0-180.0","r4bbrfu3","","","null","","Agent B","scrambled","FOR_REV_MAP_BLOBBY_STIM/1159427.bmp_pp98_L1_V1.0_veridical_freeview_isoTrue_fps144_reversed_REAL.mp4",""
"","","","call-function","181","694052","0.0-181.0","r4bbrfu3","","","","","","","",""
"5778.584999999963","{""judgement"":1}","[0]","survey-likert","182","699832","0.0-182.0","r4bbrfu3","","","","","","","","0"
"3686.179999999935","{""confidence"":0}","[0]","survey-likert","183","703519","0.0-183.0","r4bbrfu3","","","","","","","",""
"","","","call-function","184","703519","0.0-184.0","r4bbrfu3","","","","","","","",""
"null","","","html-keyboard-response","185","705023","0.0-185.0","r4bbrfu3","","<span style=""color:Black; font-size:50px;"">Agent A","null","","","","",""
"null","","","video-keyboard-response","186","707759","0.0-186.0","r4bbrfu3","","","null","","Agent A","scrambled","FOR_REV_MAP_BLOBBY_STIM/1159956.bmp_pp59_L3_V1.0_veridical_freeview_isoTrue_fps144_reversed_REAL.mp4",""
"null","","","html-keyboard-response","187","709266","0.0-187.0","r4bbrfu3","","<span style=""color:Black; font-size:50px;"">Agent B","null","","","","",""
"null","","","video-keyboard-response","188","712010","0.0-188.0","r4bbrfu3","","","null","","Agent B","veridical","FOR_REV_MAP_BLOBBY_STIM/1159956.bmp_pp59_L3_V1.0_veridical_freeview_isoTrue_fps144.mp4",""
"","","","call-function","189","712011","0.0-189.0","r4bbrfu3","","","","","","","",""
"2855.5350000000326","{""judgement"":0}","[0]","survey-likert","190","714868","0.0-190.0","r4bbrfu3","","","","","","","","1"
"1976.6350000000093","{""confidence"":0}","[0]","survey-likert","191","716846","0.0-191.0","r4bbrfu3","","","","","","","",""
"","","","call-function","192","716847","0.0-192.0","r4bbrfu3","","","","","","","",""
"null","","","html-keyboard-response","193","718349","0.0-193.0","r4bbrfu3","","<span style=""color:Black; font-size:50px;"">Agent A","null","","","","",""
"null","","","video-keyboard-response","194","721040","0.0-194.0","r4bbrfu3","","","null","","Agent A","scrambled","FOR_REV_MAP_BLOBBY_STIM/713788.bmp_pp52_L1_V1.0_veridical_freeview_isoTrue_fps144_reversed_REAL.mp4",""
"null","","","html-keyboard-response","195","722543","0.0-195.0","r4bbrfu3","","<span style=""color:Black; font-size:50px;"">Agent B","null","","","","",""
"null","","","video-keyboard-response","196","725237","0.0-196.0","r4bbrfu3","","","null","","Agent B","veridical","FOR_REV_MAP_BLOBBY_STIM/713788.bmp_pp52_L1_V1.0_veridical_freeview_isoTrue_fps144.mp4",""
"","","","call-function","197","725238","0.0-197.0","r4bbrfu3","","","","","","","",""
"3200.70000000007","{""judgement"":1}","[0]","survey-likert","198","728439","0.0-198.0","r4bbrfu3","","","","","","","","1"
"2042.4100000000326","{""confidence"":0}","[0]","survey-likert","199","730483","0.0-199.0","r4bbrfu3","","","","","","","",""
"","","","call-function","200","730483","0.0-200.0","r4bbrfu3","","","","","","","",""
"null","","","html-keyboard-response","201","731988","0.0-201.0","r4bbrfu3","","<span style=""color:Black; font-size:50px;"">Agent A","null","","","","",""
"null","","","video-keyboard-response","202","734077","0.0-202.0","r4bbrfu3","","","null","","Agent A","scrambled","FOR_REV_MAP_BLOBBY_STIM/1159973.bmp_pp98_L1_V1.0_veridical_freeview_isoTrue_fps144_reversed_REAL.mp4",""
"null","","","html-keyboard-response","203","735579","0.0-203.0","r4bbrfu3","","<span style=""color:Black; font-size:50px;"">Agent B","null","","","","",""
"null","","","video-keyboard-response","204","737695","0.0-204.0","r4bbrfu3","","","null","","Agent B","veridical","FOR_REV_MAP_BLOBBY_STIM/1159973.bmp_pp98_L1_V1.0_veridical_freeview_isoTrue_fps144.mp4",""
"","","","call-function","205","737695","0.0-205.0","r4bbrfu3","","","","","","","",""
"3087.6750000000466","{""judgement"":0}","[0]","survey-likert","206","740784","0.0-206.0","r4bbrfu3","","","","","","","","1"
"1965.1299999998882","{""confidence"":0}","[0]","survey-likert","207","742750","0.0-207.0","r4bbrfu3","","","","","","","",""
"","","","call-function","208","742750","0.0-208.0","r4bbrfu3","","","","","","","",""
"null","","","html-keyboard-response","209","744254","0.0-209.0","r4bbrfu3","","<span style=""color:Black; font-size:50px;"">Agent A","null","","","","",""
"null","","","video-keyboard-response","210","747097","0.0-210.0","r4bbrfu3","","","null","","Agent A","scrambled","FOR_REV_MAP_BLOBBY_STIM/107909.bmp_pp95_L2_V1.0_veridical_freeview_isoTrue_fps144_reversed_REAL.mp4",""
"null","","","html-keyboard-response","211","748604","0.0-211.0","r4bbrfu3","","<span style=""color:Black; font-size:50px;"">Agent B","null","","","","",""
"null","","","video-keyboard-response","212","751421","0.0-212.0","r4bbrfu3","","","null","","Agent B","veridical","FOR_REV_MAP_BLOBBY_STIM/107909.bmp_pp95_L2_V1.0_veridical_freeview_isoTrue_fps144.mp4",""
"","","","call-function","213","751422","0.0-213.0","r4bbrfu3","","","","","","","",""
"2060.085000000079","{""judgement"":0}","[0]","survey-likert","214","753483","0.0-214.0","r4bbrfu3","","","","","","","","1"
"2149.100000000093","{""confidence"":1}","[0]","survey-likert","215","755633","0.0-215.0","r4bbrfu3","","","","","","","",""
"","","","call-function","216","755633","0.0-216.0","r4bbrfu3","","","","","","","",""
"null","","","html-keyboard-response","217","757139","0.0-217.0","r4bbrfu3","","<span style=""color:Black; font-size:50px;"">Agent A","null","","","","",""
"null","","","video-keyboard-response","218","759959","0.0-218.0","r4bbrfu3","","","null","","Agent A","scrambled","FOR_REV_MAP_BLOBBY_STIM/713274.bmp_pp73_L3_V1.0_veridical_freeview_isoTrue_fps144_reversed_REAL.mp4",""
"null","","","html-keyboard-response","219","761461","0.0-219.0","r4bbrfu3","","<span style=""color:Black; font-size:50px;"">Agent B","null","","","","",""
"null","","","video-keyboard-response","220","764272","0.0-220.0","r4bbrfu3","","","null","","Agent B","veridical","FOR_REV_MAP_BLOBBY_STIM/713274.bmp_pp73_L3_V1.0_veridical_freeview_isoTrue_fps144.mp4",""
"","","","call-function","221","764272","0.0-221.0","r4bbrfu3","","","","","","","",""
"4342.670000000042","{""judgement"":0}","[0]","survey-likert","222","768616","0.0-222.0","r4bbrfu3","","","","","","","","1"
"1937.1149999999907","{""confidence"":0}","[0]","survey-likert","223","770554","0.0-223.0","r4bbrfu3","","","","","","","",""
"","","","call-function","224","770554","0.0-224.0","r4bbrfu3","","","","","","","",""
"null","","","html-keyboard-response","225","772060","0.0-225.0","r4bbrfu3","","<span style=""color:Black; font-size:50px;"">Agent A","null","","","","",""
"null","","","video-keyboard-response","226","774859","0.0-226.0","r4bbrfu3","","","null","","Agent A","veridical","FOR_REV_MAP_BLOBBY_STIM/1159329.bmp_pp61_L2_V1.0_veridical_freeview_isoTrue_fps144.mp4",""
"null","","","html-keyboard-response","227","776366","0.0-227.0","r4bbrfu3","","<span style=""color:Black; font-size:50px;"">Agent B","null","","","","",""
"null","","","video-keyboard-response","228","779157","0.0-228.0","r4bbrfu3","","","null","","Agent B","scrambled","FOR_REV_MAP_BLOBBY_STIM/1159329.bmp_pp61_L2_V1.0_veridical_freeview_isoTrue_fps144_reversed_REAL.mp4",""
"","","","call-function","229","779157","0.0-229.0","r4bbrfu3","","","","","","","",""
"2628.6500000000233","{""judgement"":1}","[0]","survey-likert","230","781787","0.0-230.0","r4bbrfu3","","","","","","","","0"
"2522.70000000007","{""confidence"":0}","[0]","survey-likert","231","784311","0.0-231.0","r4bbrfu3","","","","","","","",""
"","","","call-function","232","784311","0.0-232.0","r4bbrfu3","","","","","","","",""
"null","","","html-keyboard-response","233","785814","0.0-233.0","r4bbrfu3","","<span style=""color:Black; font-size:50px;"">Agent A","null","","","","",""
"null","","","video-keyboard-response","234","788675","0.0-234.0","r4bbrfu3","","","null","","Agent A","veridical","FOR_REV_MAP_BLOBBY_STIM/1592201.bmp_pp97_L3_V1.0_veridical_freeview_isoTrue_fps144.mp4",""
"null","","","html-keyboard-response","235","790179","0.0-235.0","r4bbrfu3","","<span style=""color:Black; font-size:50px;"">Agent B","null","","","","",""
"null","","","video-keyboard-response","236","793038","0.0-236.0","r4bbrfu3","","","null","","Agent B","scrambled","FOR_REV_MAP_BLOBBY_STIM/1592201.bmp_pp97_L3_V1.0_veridical_freeview_isoTrue_fps144_reversed_REAL.mp4",""
"","","","call-function","237","793039","0.0-237.0","r4bbrfu3","","","","","","","",""
"3310.5500000000466","{""judgement"":0}","[0]","survey-likert","238","796350","0.0-238.0","r4bbrfu3","","","","","","","","0"
"3193.0100000000093","{""confidence"":1}","[0]","survey-likert","239","799544","0.0-239.0","r4bbrfu3","","","","","","","",""
"","","","call-function","240","799544","0.0-240.0","r4bbrfu3","","","","","","","",""
"null","","","html-keyboard-response","241","801046","0.0-241.0","r4bbrfu3","","<span style=""color:Black; font-size:50px;"">Agent A","null","","","","",""
"null","","","video-keyboard-response","242","803853","0.0-242.0","r4bbrfu3","","","null","","Agent A","scrambled","FOR_REV_MAP_BLOBBY_STIM/1159860.bmp_pp152_L2_V1.0_veridical_freeview_isoTrue_fps144_reversed_REAL.mp4",""
"null","","","html-keyboard-response","243","805359","0.0-243.0","r4bbrfu3","","<span style=""color:Black; font-size:50px;"">Agent B","null","","","","",""
"null","","","video-keyboard-response","244","808172","0.0-244.0","r4bbrfu3","","","null","","Agent B","veridical","FOR_REV_MAP_BLOBBY_STIM/1159860.bmp_pp152_L2_V1.0_veridical_freeview_isoTrue_fps144.mp4",""
"","","","call-function","245","808172","0.0-245.0","r4bbrfu3","","","","","","","",""
"3080.7750000000233","{""judgement"":1}","[0]","survey-likert","246","811254","0.0-246.0","r4bbrfu3","","","","","","","","1"
"1748.9650000000838","{""confidence"":0}","[0]","survey-likert","247","813004","0.0-247.0","r4bbrfu3","","","","","","","",""
"","","","call-function","248","813004","0.0-248.0","r4bbrfu3","","","","","","","",""
"null","","","html-keyboard-response","249","814505","0.0-249.0","r4bbrfu3","","<span style=""color:Black; font-size:50px;"">Agent A","null","","","","",""
"null","","","video-keyboard-response","250","817253","0.0-250.0","r4bbrfu3","","","null","","Agent A","scrambled","FOR_REV_MAP_BLOBBY_STIM/285715.bmp_pp67_L2_V1.0_veridical_freeview_isoTrue_fps144_reversed_REAL.mp4",""
"null","","","html-keyboard-response","251","818760","0.0-251.0","r4bbrfu3","","<span style=""color:Black; font-size:50px;"">Agent B","null","","","","",""
"null","","","video-keyboard-response","252","821503","0.0-252.0","r4bbrfu3","","","null","","Agent B","veridical","FOR_REV_MAP_BLOBBY_STIM/285715.bmp_pp67_L2_V1.0_veridical_freeview_isoTrue_fps144.mp4",""
"","","","call-function","253","821505","0.0-253.0","r4bbrfu3","","","","","","","",""
"2249.2449999999953","{""judgement"":0}","[0]","survey-likert","254","823756","0.0-254.0","r4bbrfu3","","","","","","","","1"
"2018.9649999999674","{""confidence"":1}","[0]","survey-likert","255","825776","0.0-255.0","r4bbrfu3","","","","","","","",""
"3753.810000000056","","","instructions","256","829531","0.0-256.0","r4bbrfu3","[{""page_index"":0,""viewing_time"":1610.7399999999907},{""page_index"":1,""viewing_time"":1402.8399999999674},{""page_index"":2,""viewing_time"":740.0800000000745}]","","","","","","",""
"3461.4250000000466","","","instructions","257","832994","0.0-257.0","r4bbrfu3","[{""page_index"":0,""viewing_time"":1720.3349999999627},{""page_index"":1,""viewing_time"":865},{""page_index"":2,""viewing_time"":875.9899999999907}]","","","","","","",""
"","","","call-function","258","832995","0.0-258.0","r4bbrfu3","","","","","","","",""
"null","","","html-keyboard-response","259","834497","0.0-259.0","r4bbrfu3","","<span style=""color:Black; font-size:50px;"">Agent A","null","","","","",""
"null","","","video-keyboard-response","260","837366","0.0-260.0","r4bbrfu3","","","null","","Agent A","scrambled","FOR_REV_MAP_BLOBBY_STIM/713920.bmp_pp76_L1_V1.0_veridical_freeview_isoTrue_fps144_reversed_REAL.mp4",""
"null","","","html-keyboard-response","261","838871","0.0-261.0","r4bbrfu3","","<span style=""color:Black; font-size:50px;"">Agent B","null","","","","",""
"null","","","video-keyboard-response","262","841685","0.0-262.0","r4bbrfu3","","","null","","Agent B","veridical","FOR_REV_MAP_BLOBBY_STIM/713920.bmp_pp76_L1_V1.0_veridical_freeview_isoTrue_fps144.mp4",""
"","","","call-function","263","841685","0.0-263.0","r4bbrfu3","","","","","","","",""
"2234.909999999916","{""judgement"":0}","[0]","survey-likert","264","843921","0.0-264.0","r4bbrfu3","","","","","","","","1"
"2049.0050000000047","{""confidence"":1}","[0]","survey-likert","265","845971","0.0-265.0","r4bbrfu3","","","","","","","",""
"","","","call-function","266","845972","0.0-266.0","r4bbrfu3","","","","","","","",""
"null","","","html-keyboard-response","267","847473","0.0-267.0","r4bbrfu3","","<span style=""color:Black; font-size:50px;"">Agent A","null","","","","",""
"null","","","video-keyboard-response","268","850265","0.0-268.0","r4bbrfu3","","","null","","Agent A","scrambled","FOR_REV_MAP_BLOBBY_STIM/1592567.bmp_pp70_L2_V1.0_veridical_freeview_isoTrue_fps144_reversed_REAL.mp4",""
"null","","","html-keyboard-response","269","851770","0.0-269.0","r4bbrfu3","","<span style=""color:Black; font-size:50px;"">Agent B","null","","","","",""
"null","","","video-keyboard-response","270","854550","0.0-270.0","r4bbrfu3","","","null","","Agent B","veridical","FOR_REV_MAP_BLOBBY_STIM/1592567.bmp_pp70_L2_V1.0_veridical_freeview_isoTrue_fps144.mp4",""
"","","","call-function","271","854550","0.0-271.0","r4bbrfu3","","","","","","","",""
"3028.1600000000326","{""judgement"":0}","[0]","survey-likert","272","857580","0.0-272.0","r4bbrfu3","","","","","","","","1"
"2346.085000000079","{""confidence"":1}","[0]","survey-likert","273","859927","0.0-273.0","r4bbrfu3","","","","","","","",""
"","","","call-function","274","859928","0.0-274.0","r4bbrfu3","","","","","","","",""
"null","","","html-keyboard-response","275","861433","0.0-275.0","r4bbrfu3","","<span style=""color:Black; font-size:50px;"">Agent A","null","","","","",""
"null","","","video-keyboard-response","276","864279","0.0-276.0","r4bbrfu3","","","null","","Agent A","scrambled","FOR_REV_MAP_BLOBBY_STIM/1591920.bmp_pp97_L3_V1.0_veridical_freeview_isoTrue_fps144_reversed_REAL.mp4",""
"null","","","html-keyboard-response","277","865781","0.0-277.0","r4bbrfu3","","<span style=""color:Black; font-size:50px;"">Agent B","null","","","","",""
"null","","","video-keyboard-response","278","868606","0.0-278.0","r4bbrfu3","","","null","","Agent B","veridical","FOR_REV_MAP_BLOBBY_STIM/1591920.bmp_pp97_L3_V1.0_veridical_freeview_isoTrue_fps144.mp4",""
"","","","call-function","279","868606","0.0-279.0","r4bbrfu3","","","","","","","",""
"2299.640000000014","{""judgement"":0}","[0]","survey-likert","280","870907","0.0-280.0","r4bbrfu3","","","","","","","","1"
"2400.1999999999534","{""confidence"":1}","[0]","survey-likert","281","873308","0.0-281.0","r4bbrfu3","","","","","","","",""
"","","","call-function","282","873308","0.0-282.0","r4bbrfu3","","","","","","","",""
"null","","","html-keyboard-response","283","874814","0.0-283.0","r4bbrfu3","","<span style=""color:Black; font-size:50px;"">Agent A","null","","","","",""
"null","","","video-keyboard-response","284","877668","0.0-284.0","r4bbrfu3","","","null","","Agent A","scrambled","FOR_REV_MAP_BLOBBY_STIM/498396.bmp_pp99_L2_V1.0_veridical_freeview_isoTrue_fps144_reversed_REAL.mp4",""
"null","","","html-keyboard-response","285","879170","0.0-285.0","r4bbrfu3","","<span style=""color:Black; font-size:50px;"">Agent B","null","","","","",""
"null","","","video-keyboard-response","286","882027","0.0-286.0","r4bbrfu3","","","null","","Agent B","veridical","FOR_REV_MAP_BLOBBY_STIM/498396.bmp_pp99_L2_V1.0_veridical_freeview_isoTrue_fps144.mp4",""
"","","","call-function","287","882027","0.0-287.0","r4bbrfu3","","","","","","","",""
"3186.7900000000373","{""judgement"":1}","[0]","survey-likert","288","885215","0.0-288.0","r4bbrfu3","","","","","","","","1"
"2104.0200000000186","{""confidence"":0}","[0]","survey-likert","289","887320","0.0-289.0","r4bbrfu3","","","","","","","",""
"","","","call-function","290","887320","0.0-290.0","r4bbrfu3","","","","","","","",""
"null","","","html-keyboard-response","291","888825","0.0-291.0","r4bbrfu3","","<span style=""color:Black; font-size:50px;"">Agent A","null","","","","",""
"null","","","video-keyboard-response","292","891688","0.0-292.0","r4bbrfu3","","","null","","Agent A","veridical","FOR_REV_MAP_BLOBBY_STIM/1592857.bmp_pp52_L1_V1.0_veridical_freeview_isoTrue_fps144.mp4",""
"null","","","html-keyboard-response","293","893189","0.0-293.0","r4bbrfu3","","<span style=""color:Black; font-size:50px;"">Agent B","null","","","","",""
"null","","","video-keyboard-response","294","896034","0.0-294.0","r4bbrfu3","","","null","","Agent B","scrambled","FOR_REV_MAP_BLOBBY_STIM/1592857.bmp_pp52_L1_V1.0_veridical_freeview_isoTrue_fps144_reversed_REAL.mp4",""
"","","","call-function","295","896035","0.0-295.0","r4bbrfu3","","","","","","","",""
"3739.4899999999907","{""judgement"":0}","[0]","survey-likert","296","899775","0.0-296.0","r4bbrfu3","","","","","","","","0"
"3445.1450000000186","{""confidence"":0}","[0]","survey-likert","297","903221","0.0-297.0","r4bbrfu3","","","","","","","",""
"","","","call-function","298","903222","0.0-298.0","r4bbrfu3","","","","","","","",""
"null","","","html-keyboard-response","299","904723","0.0-299.0","r4bbrfu3","","<span style=""color:Black; font-size:50px;"">Agent A","null","","","","",""
"null","","","video-keyboard-response","300","907513","0.0-300.0","r4bbrfu3","","","null","","Agent A","scrambled","FOR_REV_MAP_BLOBBY_STIM/1592168.bmp_pp71_L1_V1.0_veridical_freeview_isoTrue_fps144_reversed_REAL.mp4",""
"null","","","html-keyboard-response","301","909016","0.0-301.0","r4bbrfu3","","<span style=""color:Black; font-size:50px;"">Agent B","null","","","","",""
"null","","","video-keyboard-response","302","911776","0.0-302.0","r4bbrfu3","","","null","","Agent B","veridical","FOR_REV_MAP_BLOBBY_STIM/1592168.bmp_pp71_L1_V1.0_veridical_freeview_isoTrue_fps144.mp4",""
"","","","call-function","303","911777","0.0-303.0","r4bbrfu3","","","","","","","",""
"2121.545000000042","{""judgement"":0}","[0]","survey-likert","304","913899","0.0-304.0","r4bbrfu3","","","","","","","","1"
"1939.8950000000186","{""confidence"":0}","[0]","survey-likert","305","915840","0.0-305.0","r4bbrfu3","","","","","","","",""
"","","","call-function","306","915840","0.0-306.0","r4bbrfu3","","","","","","","",""
"null","","","html-keyboard-response","307","917346","0.0-307.0","r4bbrfu3","","<span style=""color:Black; font-size:50px;"">Agent A","null","","","","",""
"null","","","video-keyboard-response","308","920288","0.0-308.0","r4bbrfu3","","","null","","Agent A","scrambled","FOR_REV_MAP_BLOBBY_STIM/1592568.bmp_pp71_L1_V1.0_veridical_freeview_isoTrue_fps144_reversed_REAL.mp4",""
"null","","","html-keyboard-response","309","921790","0.0-309.0","r4bbrfu3","","<span style=""color:Black; font-size:50px;"">Agent B","null","","","","",""
"null","","","video-keyboard-response","310","924719","0.0-310.0","r4bbrfu3","","","null","","Agent B","veridical","FOR_REV_MAP_BLOBBY_STIM/1592568.bmp_pp71_L1_V1.0_veridical_freeview_isoTrue_fps144.mp4",""
"","","","call-function","311","924719","0.0-311.0","r4bbrfu3","","","","","","","",""
"5096.539999999921","{""judgement"":0}","[0]","survey-likert","312","929817","0.0-312.0","r4bbrfu3","","","","","","","","1"
"1673.954999999958","{""confidence"":0}","[0]","survey-likert","313","931493","0.0-313.0","r4bbrfu3","","","","","","","",""
"","","","call-function","314","931494","0.0-314.0","r4bbrfu3","","","","","","","",""
"null","","","html-keyboard-response","315","932998","0.0-315.0","r4bbrfu3","","<span style=""color:Black; font-size:50px;"">Agent A","null","","","","",""
"null","","","video-keyboard-response","316","935785","0.0-316.0","r4bbrfu3","","","null","","Agent A","veridical","FOR_REV_MAP_BLOBBY_STIM/1592289.bmp_pp92_L3_V1.0_veridical_freeview_isoTrue_fps144.mp4",""
"null","","","html-keyboard-response","317","937289","0.0-317.0","r4bbrfu3","","<span style=""color:Black; font-size:50px;"">Agent B","null","","","","",""
"null","","","video-keyboard-response","318","940069","0.0-318.0","r4bbrfu3","","","null","","Agent B","scrambled","FOR_REV_MAP_BLOBBY_STIM/1592289.bmp_pp92_L3_V1.0_veridical_freeview_isoTrue_fps144_reversed_REAL.mp4",""
"","","","call-function","319","940070","0.0-319.0","r4bbrfu3","","","","","","","",""
"1844.0299999999115","{""judgement"":0}","[0]","survey-likert","320","941915","0.0-320.0","r4bbrfu3","","","","","","","","0"
"1873.8549999999814","{""confidence"":1}","[0]","survey-likert","321","943790","0.0-321.0","r4bbrfu3","","","","","","","",""
"","","","call-function","322","943790","0.0-322.0","r4bbrfu3","","","","","","","",""
"null","","","html-keyboard-response","323","945292","0.0-323.0","r4bbrfu3","","<span style=""color:Black; font-size:50px;"">Agent A","null","","","","",""
"null","","","video-keyboard-response","324","948126","0.0-324.0","r4bbrfu3","","","null","","Agent A","veridical","FOR_REV_MAP_BLOBBY_STIM/713381.bmp_pp82_L2_V1.0_veridical_freeview_isoTrue_fps144.mp4",""
"null","","","html-keyboard-response","325","949629","0.0-325.0","r4bbrfu3","","<span style=""color:Black; font-size:50px;"">Agent B","null","","","","",""
"null","","","video-keyboard-response","326","952453","0.0-326.0","r4bbrfu3","","","null","","Agent B","scrambled","FOR_REV_MAP_BLOBBY_STIM/713381.bmp_pp82_L2_V1.0_veridical_freeview_isoTrue_fps144_reversed_REAL.mp4",""
"","","","call-function","327","952454","0.0-327.0","r4bbrfu3","","","","","","","",""
"3303.1350000000093","{""judgement"":1}","[0]","survey-likert","328","955758","0.0-328.0","r4bbrfu3","","","","","","","","0"
"2682.4899999999907","{""confidence"":1}","[0]","survey-likert","329","958441","0.0-329.0","r4bbrfu3","","","","","","","",""
"","","","call-function","330","958442","0.0-330.0","r4bbrfu3","","","","","","","",""
"null","","","html-keyboard-response","331","959946","0.0-331.0","r4bbrfu3","","<span style=""color:Black; font-size:50px;"">Agent A","null","","","","",""
"null","","","video-keyboard-response","332","962597","0.0-332.0","r4bbrfu3","","","null","","Agent A","veridical","FOR_REV_MAP_BLOBBY_STIM/713633.bmp_pp58_L1_V1.0_veridical_freeview_isoTrue_fps144.mp4",""
"null","","","html-keyboard-response","333","964101","0.0-333.0","r4bbrfu3","","<span style=""color:Black; font-size:50px;"">Agent B","null","","","","",""
"null","","","video-keyboard-response","334","966707","0.0-334.0","r4bbrfu3","","","null","","Agent B","scrambled","FOR_REV_MAP_BLOBBY_STIM/713633.bmp_pp58_L1_V1.0_veridical_freeview_isoTrue_fps144_reversed_REAL.mp4",""
"","","","call-function","335","966707","0.0-335.0","r4bbrfu3","","","","","","","",""
"2543.359999999986","{""judgement"":0}","[0]","survey-likert","336","969251","0.0-336.0","r4bbrfu3","","","","","","","","0"
"2648.1450000000186","{""confidence"":2}","[0]","survey-likert","337","971900","0.0-337.0","r4bbrfu3","","","","","","","",""
"4394.04999999993","","","instructions","338","976295","0.0-338.0","r4bbrfu3","[{""page_index"":0,""viewing_time"":1477.1199999999953},{""page_index"":1,""viewing_time"":1808.875},{""page_index"":2,""viewing_time"":1107.9000000000233}]","","","","","","",""
"3668.609999999986","","","instructions","339","979964","0.0-339.0","r4bbrfu3","[{""page_index"":0,""viewing_time"":1044.3899999998976},{""page_index"":1,""viewing_time"":1475.2550000000047},{""page_index"":2,""viewing_time"":1148.8550000000978}]","","","","","","",""
"","","","call-function","340","979964","0.0-340.0","r4bbrfu3","","","","","","","",""
"null","","","html-keyboard-response","341","981467","0.0-341.0","r4bbrfu3","","<span style=""color:Black; font-size:50px;"">Agent A","null","","","","",""
"null","","","video-keyboard-response","342","984268","0.0-342.0","r4bbrfu3","","","null","","Agent A","scrambled","FOR_REV_MAP_BLOBBY_STIM/286034.bmp_pp69_L3_V1.0_veridical_freeview_isoTrue_fps144_reversed_REAL.mp4",""
"null","","","html-keyboard-response","343","985773","0.0-343.0","r4bbrfu3","","<span style=""color:Black; font-size:50px;"">Agent B","null","","","","",""
"null","","","video-keyboard-response","344","988571","0.0-344.0","r4bbrfu3","","","null","","Agent B","veridical","FOR_REV_MAP_BLOBBY_STIM/286034.bmp_pp69_L3_V1.0_veridical_freeview_isoTrue_fps144.mp4",""
"","","","call-function","345","988571","0.0-345.0","r4bbrfu3","","","","","","","",""
"3854.3499999999767","{""judgement"":0}","[0]","survey-likert","346","992426","0.0-346.0","r4bbrfu3","","","","","","","","1"
"2081.6900000000605","{""confidence"":1}","[0]","survey-likert","347","994509","0.0-347.0","r4bbrfu3","","","","","","","",""
"","","","call-function","348","994510","0.0-348.0","r4bbrfu3","","","","","","","",""
"null","","","html-keyboard-response","349","996014","0.0-349.0","r4bbrfu3","","<span style=""color:Black; font-size:50px;"">Agent A","null","","","","",""
"null","","","video-keyboard-response","350","998781","0.0-350.0","r4bbrfu3","","","null","","Agent A","scrambled","FOR_REV_MAP_BLOBBY_STIM/1592047.bmp_pp51_L1_V1.0_veridical_freeview_isoTrue_fps144_reversed_REAL.mp4",""
"null","","","html-keyboard-response","351","1000285","0.0-351.0","r4bbrfu3","","<span style=""color:Black; font-size:50px;"">Agent B","null","","","","",""
"null","","","video-keyboard-response","352","1003054","0.0-352.0","r4bbrfu3","","","null","","Agent B","veridical","FOR_REV_MAP_BLOBBY_STIM/1592047.bmp_pp51_L1_V1.0_veridical_freeview_isoTrue_fps144.mp4",""
"","","","call-function","353","1003054","0.0-353.0","r4bbrfu3","","","","","","","",""
"4082.5050000000047","{""judgement"":1}","[0]","survey-likert","354","1007138","0.0-354.0","r4bbrfu3","","","","","","","","1"
"1797.8350000000792","{""confidence"":0}","[0]","survey-likert","355","1008937","0.0-355.0","r4bbrfu3","","","","","","","",""
"","","","call-function","356","1008938","0.0-356.0","r4bbrfu3","","","","","","","",""
"null","","","html-keyboard-response","357","1010441","0.0-357.0","r4bbrfu3","","<span style=""color:Black; font-size:50px;"">Agent A","null","","","","",""
"null","","","video-keyboard-response","358","1013257","0.0-358.0","r4bbrfu3","","","null","","Agent A","veridical","FOR_REV_MAP_BLOBBY_STIM/1592314.bmp_pp100_L3_V1.0_veridical_freeview_isoTrue_fps144.mp4",""
"null","","","html-keyboard-response","359","1014760","0.0-359.0","r4bbrfu3","","<span style=""color:Black; font-size:50px;"">Agent B","null","","","","",""
"null","","","video-keyboard-response","360","1017586","0.0-360.0","r4bbrfu3","","","null","","Agent B","scrambled","FOR_REV_MAP_BLOBBY_STIM/1592314.bmp_pp100_L3_V1.0_veridical_freeview_isoTrue_fps144_reversed_REAL.mp4",""
"","","","call-function","361","1017587","0.0-361.0","r4bbrfu3","","","","","","","",""
"3946.9949999999953","{""judgement"":0}","[0]","survey-likert","362","1021536","0.0-362.0","r4bbrfu3","","","","","","","","0"
"2342.8699999999953","{""confidence"":1}","[0]","survey-likert","363","1023880","0.0-363.0","r4bbrfu3","","","","","","","",""
"","","","call-function","364","1023882","0.0-364.0","r4bbrfu3","","","","","","","",""
"null","","","html-keyboard-response","365","1025386","0.0-365.0","r4bbrfu3","","<span style=""color:Black; font-size:50px;"">Agent A","null","","","","",""
"null","","","video-keyboard-response","366","1028066","0.0-366.0","r4bbrfu3","","","null","","Agent A","veridical","FOR_REV_MAP_BLOBBY_STIM/498398.bmp_pp81_L1_V1.0_veridical_freeview_isoTrue_fps144.mp4",""
"null","","","html-keyboard-response","367","1029569","0.0-367.0","r4bbrfu3","","<span style=""color:Black; font-size:50px;"">Agent B","null","","","","",""
"null","","","video-keyboard-response","368","1032131","0.0-368.0","r4bbrfu3","","","null","","Agent B","scrambled","FOR_REV_MAP_BLOBBY_STIM/498398.bmp_pp81_L1_V1.0_veridical_freeview_isoTrue_fps144_reversed_REAL.mp4",""
"","","","call-function","369","1032131","0.0-369.0","r4bbrfu3","","","","","","","",""
"2344.094999999972","{""judgement"":0}","[0]","survey-likert","370","1034476","0.0-370.0","r4bbrfu3","","","","","","","","0"
"1975.7600000000093","{""confidence"":1}","[0]","survey-likert","371","1036453","0.0-371.0","r4bbrfu3","","","","","","","",""
"","","","call-function","372","1036454","0.0-372.0","r4bbrfu3","","","","","","","",""
"null","","","html-keyboard-response","373","1037958","0.0-373.0","r4bbrfu3","","<span style=""color:Black; font-size:50px;"">Agent A","null","","","","",""
"null","","","video-keyboard-response","374","1040777","0.0-374.0","r4bbrfu3","","","null","","Agent A","scrambled","FOR_REV_MAP_BLOBBY_STIM/1159508.bmp_pp151_L1_V1.0_veridical_freeview_isoTrue_fps144_reversed_REAL.mp4",""
"null","","","html-keyboard-response","375","1042280","0.0-375.0","r4bbrfu3","","<span style=""color:Black; font-size:50px;"">Agent B","null","","","","",""
"null","","","video-keyboard-response","376","1045103","0.0-376.0","r4bbrfu3","","","null","","Agent B","veridical","FOR_REV_MAP_BLOBBY_STIM/1159508.bmp_pp151_L1_V1.0_veridical_freeview_isoTrue_fps144.mp4",""
"","","","call-function","377","1045103","0.0-377.0","r4bbrfu3","","","","","","","",""
"3034.329999999958","{""judgement"":1}","[0]","survey-likert","378","1048139","0.0-378.0","r4bbrfu3","","","","","","","","1"
"2258.6549999999115","{""confidence"":1}","[0]","survey-likert","379","1050398","0.0-379.0","r4bbrfu3","","","","","","","",""
"","","","call-function","380","1050399","0.0-380.0","r4bbrfu3","","","","","","","",""
"null","","","html-keyboard-response","381","1051902","0.0-381.0","r4bbrfu3","","<span style=""color:Black; font-size:50px;"">Agent A","null","","","","",""
"null","","","video-keyboard-response","382","1054770","0.0-382.0","r4bbrfu3","","","null","","Agent A","scrambled","FOR_REV_MAP_BLOBBY_STIM/1160204.bmp_pp54_L2_V1.0_veridical_freeview_isoTrue_fps144_reversed_REAL.mp4",""
"null","","","html-keyboard-response","383","1056276","0.0-383.0","r4bbrfu3","","<span style=""color:Black; font-size:50px;"">Agent B","null","","","","",""
"null","","","video-keyboard-response","384","1059128","0.0-384.0","r4bbrfu3","","","null","","Agent B","veridical","FOR_REV_MAP_BLOBBY_STIM/1160204.bmp_pp54_L2_V1.0_veridical_freeview_isoTrue_fps144.mp4",""
"","","","call-function","385","1059129","0.0-385.0","r4bbrfu3","","","","","","","",""
"2330.810000000056","{""judgement"":0}","[0]","survey-likert","386","1061460","0.0-386.0","r4bbrfu3","","","","","","","","1"
"1516.969999999972","{""confidence"":1}","[0]","survey-likert","387","1062978","0.0-387.0","r4bbrfu3","","","","","","","",""
"","","","call-function","388","1062979","0.0-388.0","r4bbrfu3","","","","","","","",""
"null","","","html-keyboard-response","389","1064481","0.0-389.0","r4bbrfu3","","<span style=""color:Black; font-size:50px;"">Agent A","null","","","","",""
"null","","","video-keyboard-response","390","1067254","0.0-390.0","r4bbrfu3","","","null","","Agent A","scrambled","FOR_REV_MAP_BLOBBY_STIM/1592747.bmp_pp53_L2_V1.0_veridical_freeview_isoTrue_fps144_reversed_REAL.mp4",""
"null","","","html-keyboard-response","391","1068756","0.0-391.0","r4bbrfu3","","<span style=""color:Black; font-size:50px;"">Agent B","null","","","","",""
"null","","","video-keyboard-response","392","1071532","0.0-392.0","r4bbrfu3","","","null","","Agent B","veridical","FOR_REV_MAP_BLOBBY_STIM/1592747.bmp_pp53_L2_V1.0_veridical_freeview_isoTrue_fps144.mp4",""
"","","","call-function","393","1071532","0.0-393.0","r4bbrfu3","","","","","","","",""
"1847.0250000001397","{""judgement"":0}","[0]","survey-likert","394","1073380","0.0-394.0","r4bbrfu3","","","","","","","","1"
"1971.4599999999627","{""confidence"":1}","[0]","survey-likert","395","1075353","0.0-395.0","r4bbrfu3","","","","","","","",""
"","","","call-function","396","1075353","0.0-396.0","r4bbrfu3","","","","","","","",""
"null","","","html-keyboard-response","397","1076858","0.0-397.0","r4bbrfu3","","<span style=""color:Black; font-size:50px;"">Agent A","null","","","","",""
"null","","","video-keyboard-response","398","1079701","0.0-398.0","r4bbrfu3","","","null","","Agent A","veridical","FOR_REV_MAP_BLOBBY_STIM/107955.bmp_pp90_L2_V1.0_veridical_freeview_isoTrue_fps144.mp4",""
"null","","","html-keyboard-response","399","1081207","0.0-399.0","r4bbrfu3","","<span style=""color:Black; font-size:50px;"">Agent B","null","","","","",""
"null","","","video-keyboard-response","400","1084043","0.0-400.0","r4bbrfu3","","","null","","Agent B","scrambled","FOR_REV_MAP_BLOBBY_STIM/107955.bmp_pp90_L2_V1.0_veridical_freeview_isoTrue_fps144_reversed_REAL.mp4",""
"","","","call-function","401","1084043","0.0-401.0","r4bbrfu3","","","","","","","",""
"5389.369999999879","{""judgement"":0}","[0]","survey-likert","402","1089433","0.0-402.0","r4bbrfu3","","","","","","","","0"
"1682.8649999999907","{""confidence"":0}","[0]","survey-likert","403","1091117","0.0-403.0","r4bbrfu3","","","","","","","",""
"","","","call-function","404","1091118","0.0-404.0","r4bbrfu3","","","","","","","",""
"null","","","html-keyboard-response","405","1092621","0.0-405.0","r4bbrfu3","","<span style=""color:Black; font-size:50px;"">Agent A","null","","","","",""
"null","","","video-keyboard-response","406","1095472","0.0-406.0","r4bbrfu3","","","null","","Agent A","veridical","FOR_REV_MAP_BLOBBY_STIM/498261.bmp_pp84_L3_V1.0_veridical_freeview_isoTrue_fps144.mp4",""
"null","","","html-keyboard-response","407","1096976","0.0-407.0","r4bbrfu3","","<span style=""color:Black; font-size:50px;"">Agent B","null","","","","",""
"null","","","video-keyboard-response","408","1099811","0.0-408.0","r4bbrfu3","","","null","","Agent B","scrambled","FOR_REV_MAP_BLOBBY_STIM/498261.bmp_pp84_L3_V1.0_veridical_freeview_isoTrue_fps144_reversed_REAL.mp4",""
"","","","call-function","409","1099811","0.0-409.0","r4bbrfu3","","","","","","","",""
"2356.5849999999627","{""judgement"":0}","[0]","survey-likert","410","1102168","0.0-410.0","r4bbrfu3","","","","","","","","0"
"1692.8400000000838","{""confidence"":1}","[0]","survey-likert","411","1103863","0.0-411.0","r4bbrfu3","","","","","","","",""
"","","","call-function","412","1103863","0.0-412.0","r4bbrfu3","","","","","","","",""
"null","","","html-keyboard-response","413","1105365","0.0-413.0","r4bbrfu3","","<span style=""color:Black; font-size:50px;"">Agent A","null","","","","",""
"null","","","video-keyboard-response","414","1108141","0.0-414.0","r4bbrfu3","","","null","","Agent A","veridical","FOR_REV_MAP_BLOBBY_STIM/150277.bmp_pp65_L3_V1.0_veridical_freeview_isoTrue_fps144.mp4",""
"null","","","html-keyboard-response","415","1109648","0.0-415.0","r4bbrfu3","","<span style=""color:Black; font-size:50px;"">Agent B","null","","","","",""
"null","","","video-keyboard-response","416","1112416","0.0-416.0","r4bbrfu3","","","null","","Agent B","scrambled","FOR_REV_MAP_BLOBBY_STIM/150277.bmp_pp65_L3_V1.0_veridical_freeview_isoTrue_fps144_reversed_REAL.mp4",""
"","","","call-function","417","1112417","0.0-417.0","r4bbrfu3","","","","","","","",""
"2053.2299999999814","{""judgement"":0}","[0]","survey-likert","418","1114471","0.0-418.0","r4bbrfu3","","","","","","","","0"
"1402.7900000000373","{""confidence"":1}","[0]","survey-likert","419","1115875","0.0-419.0","r4bbrfu3","","","","","","","",""
"3474.1299999998882","","","instructions","420","1119349","0.0-420.0","r4bbrfu3","[{""page_index"":0,""viewing_time"":1723.0549999999348},{""page_index"":1,""viewing_time"":942.8799999998882},{""page_index"":2,""viewing_time"":808.0450000001583}]","","","","","","",""
"2436.6149999999907","","","instructions","421","1121786","0.0-421.0","r4bbrfu3","[{""page_index"":0,""viewing_time"":801.5349999999162},{""page_index"":1,""viewing_time"":785.8850000000093},{""page_index"":2,""viewing_time"":849.0900000000838}]","","","","","","",""
"","","","call-function","422","1121787","0.0-422.0","r4bbrfu3","","","","","","","",""
"null","","","html-keyboard-response","423","1123289","0.0-423.0","r4bbrfu3","","<span style=""color:Black; font-size:50px;"">Agent A","null","","","","",""
"null","","","video-keyboard-response","424","1126100","0.0-424.0","r4bbrfu3","","","null","","Agent A","scrambled","FOR_REV_MAP_BLOBBY_STIM/1592298.bmp_pp56_L3_V1.0_veridical_freeview_isoTrue_fps144_reversed_REAL.mp4",""
"null","","","html-keyboard-response","425","1127602","0.0-425.0","r4bbrfu3","","<span style=""color:Black; font-size:50px;"">Agent B","null","","","","",""
"null","","","video-keyboard-response","426","1130363","0.0-426.0","r4bbrfu3","","","null","","Agent B","veridical","FOR_REV_MAP_BLOBBY_STIM/1592298.bmp_pp56_L3_V1.0_veridical_freeview_isoTrue_fps144.mp4",""
"","","","call-function","427","1130364","0.0-427.0","r4bbrfu3","","","","","","","",""
"4185.284999999916","{""judgement"":0}","[0]","survey-likert","428","1134551","0.0-428.0","r4bbrfu3","","","","","","","","1"
"1646.9950000001118","{""confidence"":1}","[0]","survey-likert","429","1136199","0.0-429.0","r4bbrfu3","","","","","","","",""
"","","","call-function","430","1136199","0.0-430.0","r4bbrfu3","","","","","","","",""
"null","","","html-keyboard-response","431","1137703","0.0-431.0","r4bbrfu3","","<span style=""color:Black; font-size:50px;"">Agent A","null","","","","",""
"null","","","video-keyboard-response","432","1140415","0.0-432.0","r4bbrfu3","","","null","","Agent A","veridical","FOR_REV_MAP_BLOBBY_STIM/713858.bmp_pp57_L1_V1.0_veridical_freeview_isoTrue_fps144.mp4",""
"null","","","html-keyboard-response","433","1141918","0.0-433.0","r4bbrfu3","","<span style=""color:Black; font-size:50px;"">Agent B","null","","","","",""
"null","","","video-keyboard-response","434","1144607","0.0-434.0","r4bbrfu3","","","null","","Agent B","scrambled","FOR_REV_MAP_BLOBBY_STIM/713858.bmp_pp57_L1_V1.0_veridical_freeview_isoTrue_fps144_reversed_REAL.mp4",""
"","","","call-function","435","1144608","0.0-435.0","r4bbrfu3","","","","","","","",""
"1785.7249999998603","{""judgement"":0}","[0]","survey-likert","436","1146395","0.0-436.0","r4bbrfu3","","","","","","","","0"
"1565.5700000000652","{""confidence"":1}","[0]","survey-likert","437","1147962","0.0-437.0","r4bbrfu3","","","","","","","",""
"","","","call-function","438","1147962","0.0-438.0","r4bbrfu3","","","","","","","",""
"null","","","html-keyboard-response","439","1149464","0.0-439.0","r4bbrfu3","","<span style=""color:Black; font-size:50px;"">Agent A","null","","","","",""
"null","","","video-keyboard-response","440","1152146","0.0-440.0","r4bbrfu3","","","null","","Agent A","veridical","FOR_REV_MAP_BLOBBY_STIM/61513.bmp_pp75_L1_V1.0_veridical_freeview_isoTrue_fps144.mp4",""
"null","","","html-keyboard-response","441","1153648","0.0-441.0","r4bbrfu3","","<span style=""color:Black; font-size:50px;"">Agent B","null","","","","",""
"null","","","video-keyboard-response","442","1156340","0.0-442.0","r4bbrfu3","","","null","","Agent B","scrambled","FOR_REV_MAP_BLOBBY_STIM/61513.bmp_pp75_L1_V1.0_veridical_freeview_isoTrue_fps144_reversed_REAL.mp4",""
"","","","call-function","443","1156340","0.0-443.0","r4bbrfu3","","","","","","","",""
"5258.159999999916","{""judgement"":1}","[0]","survey-likert","444","1161599","0.0-444.0","r4bbrfu3","","","","","","","","0"
"2383.2700000000186","{""confidence"":0}","[0]","survey-likert","445","1163984","0.0-445.0","r4bbrfu3","","","","","","","",""
"","","","call-function","446","1163984","0.0-446.0","r4bbrfu3","","","","","","","",""
"null","","","html-keyboard-response","447","1165488","0.0-447.0","r4bbrfu3","","<span style=""color:Black; font-size:50px;"">Agent A","null","","","","",""
"null","","","video-keyboard-response","448","1168336","0.0-448.0","r4bbrfu3","","","null","","Agent A","veridical","FOR_REV_MAP_BLOBBY_STIM/498258.bmp_pp51_L1_V1.0_veridical_freeview_isoTrue_fps144.mp4",""
"null","","","html-keyboard-response","449","1169840","0.0-449.0","r4bbrfu3","","<span style=""color:Black; font-size:50px;"">Agent B","null","","","","",""
"null","","","video-keyboard-response","450","1172654","0.0-450.0","r4bbrfu3","","","null","","Agent B","scrambled","FOR_REV_MAP_BLOBBY_STIM/498258.bmp_pp51_L1_V1.0_veridical_freeview_isoTrue_fps144_reversed_REAL.mp4",""
"","","","call-function","451","1172655","0.0-451.0","r4bbrfu3","","","","","","","",""
"5980.840000000084","{""judgement"":0}","[0]","survey-likert","452","1178636","0.0-452.0","r4bbrfu3","","","","","","","","0"
"3337.0400000000373","{""confidence"":1}","[0]","survey-likert","453","1181975","0.0-453.0","r4bbrfu3","","","","","","","",""
"","","","call-function","454","1181975","0.0-454.0","r4bbrfu3","","","","","","","",""
"null","","","html-keyboard-response","455","1183477","0.0-455.0","r4bbrfu3","","<span style=""color:Black; font-size:50px;"">Agent A","null","","","","",""
"null","","","video-keyboard-response","456","1186268","0.0-456.0","r4bbrfu3","","","null","","Agent A","scrambled","FOR_REV_MAP_BLOBBY_STIM/713328.bmp_pp86_L2_V1.0_veridical_freeview_isoTrue_fps144_reversed_REAL.mp4",""
"null","","","html-keyboard-response","457","1187769","0.0-457.0","r4bbrfu3","","<span style=""color:Black; font-size:50px;"">Agent B","null","","","","",""
"null","","","video-keyboard-response","458","1190609","0.0-458.0","r4bbrfu3","","","null","","Agent B","veridical","FOR_REV_MAP_BLOBBY_STIM/713328.bmp_pp86_L2_V1.0_veridical_freeview_isoTrue_fps144.mp4",""
"","","","call-function","459","1190610","0.0-459.0","r4bbrfu3","","","","","","","",""
"3129.024999999907","{""judgement"":1}","[0]","survey-likert","460","1193739","0.0-460.0","r4bbrfu3","","","","","","","","1"
"2064.6500000001397","{""confidence"":1}","[0]","survey-likert","461","1195805","0.0-461.0","r4bbrfu3","","","","","","","",""
"","","","call-function","462","1195805","0.0-462.0","r4bbrfu3","","","","","","","",""
"null","","","html-keyboard-response","463","1197308","0.0-463.0","r4bbrfu3","","<span style=""color:Black; font-size:50px;"">Agent A","null","","","","",""
"null","","","video-keyboard-response","464","1200177","0.0-464.0","r4bbrfu3","","","null","","Agent A","scrambled","FOR_REV_MAP_BLOBBY_STIM/1160189.bmp_pp64_L1_V1.0_veridical_freeview_isoTrue_fps144_reversed_REAL.mp4",""
"null","","","html-keyboard-response","465","1201678","0.0-465.0","r4bbrfu3","","<span style=""color:Black; font-size:50px;"">Agent B","null","","","","",""
"null","","","video-keyboard-response","466","1204541","0.0-466.0","r4bbrfu3","","","null","","Agent B","veridical","FOR_REV_MAP_BLOBBY_STIM/1160189.bmp_pp64_L1_V1.0_veridical_freeview_isoTrue_fps144.mp4",""
"","","","call-function","467","1204541","0.0-467.0","r4bbrfu3","","","","","","","",""
"3303.4250000000466","{""judgement"":0}","[0]","survey-likert","468","1207845","0.0-468.0","r4bbrfu3","","","","","","","","1"
"3291.219999999972","{""confidence"":1}","[0]","survey-likert","469","1211138","0.0-469.0","r4bbrfu3","","","","","","","",""
"","","","call-function","470","1211138","0.0-470.0","r4bbrfu3","","","","","","","",""
"null","","","html-keyboard-response","471","1212641","0.0-471.0","r4bbrfu3","","<span style=""color:Black; font-size:50px;"">Agent A","null","","","","",""
"null","","","video-keyboard-response","472","1215393","0.0-472.0","r4bbrfu3","","","null","","Agent A","scrambled","FOR_REV_MAP_BLOBBY_STIM/1160247.bmp_pp54_L2_V1.0_veridical_freeview_isoTrue_fps144_reversed_REAL.mp4",""
"null","","","html-keyboard-response","473","1216899","0.0-473.0","r4bbrfu3","","<span style=""color:Black; font-size:50px;"">Agent B","null","","","","",""
"null","","","video-keyboard-response","474","1219653","0.0-474.0","r4bbrfu3","","","null","","Agent B","veridical","FOR_REV_MAP_BLOBBY_STIM/1160247.bmp_pp54_L2_V1.0_veridical_freeview_isoTrue_fps144.mp4",""
"","","","call-function","475","1219653","0.0-475.0","r4bbrfu3","","","","","","","",""
"2626.2600000000093","{""judgement"":0}","[0]","survey-likert","476","1222280","0.0-476.0","r4bbrfu3","","","","","","","","1"
"2234.9199999999255","{""confidence"":2}","[0]","survey-likert","477","1224516","0.0-477.0","r4bbrfu3","","","","","","","",""
"","","","call-function","478","1224517","0.0-478.0","r4bbrfu3","","","","","","","",""
"null","","","html-keyboard-response","479","1226023","0.0-479.0","r4bbrfu3","","<span style=""color:Black; font-size:50px;"">Agent A","null","","","","",""
"null","","","video-keyboard-response","480","1228741","0.0-480.0","r4bbrfu3","","","null","","Agent A","veridical","FOR_REV_MAP_BLOBBY_STIM/1592038.bmp_pp79_L2_V1.0_veridical_freeview_isoTrue_fps144.mp4",""
"null","","","html-keyboard-response","481","1230246","0.0-481.0","r4bbrfu3","","<span style=""color:Black; font-size:50px;"">Agent B","null","","","","",""
"null","","","video-keyboard-response","482","1232954","0.0-482.0","r4bbrfu3","","","null","","Agent B","scrambled","FOR_REV_MAP_BLOBBY_STIM/1592038.bmp_pp79_L2_V1.0_veridical_freeview_isoTrue_fps144_reversed_REAL.mp4",""
"","","","call-function","483","1232955","0.0-483.0","r4bbrfu3","","","","","","","",""
"2357.7600000000093","{""judgement"":0}","[0]","survey-likert","484","1235314","0.0-484.0","r4bbrfu3","","","","","","","","0"
"1787.5249999999069","{""confidence"":2}","[0]","survey-likert","485","1237103","0.0-485.0","r4bbrfu3","","","","","","","",""
"","","","call-function","486","1237104","0.0-486.0","r4bbrfu3","","","","","","","",""
"null","","","html-keyboard-response","487","1238607","0.0-487.0","r4bbrfu3","","<span style=""color:Black; font-size:50px;"">Agent A","null","","","","",""
"null","","","video-keyboard-response","488","1241405","0.0-488.0","r4bbrfu3","","","null","","Agent A","scrambled","FOR_REV_MAP_BLOBBY_STIM/1159392.bmp_pp96_L2_V1.0_veridical_freeview_isoTrue_fps144_reversed_REAL.mp4",""
"null","","","html-keyboard-response","489","1242907","0.0-489.0","r4bbrfu3","","<span style=""color:Black; font-size:50px;"">Agent B","null","","","","",""
"null","","","video-keyboard-response","490","1245714","0.0-490.0","r4bbrfu3","","","null","","Agent B","veridical","FOR_REV_MAP_BLOBBY_STIM/1159392.bmp_pp96_L2_V1.0_veridical_freeview_isoTrue_fps144.mp4",""
"","","","call-function","491","1245715","0.0-491.0","r4bbrfu3","","","","","","","",""
"3432.220000000205","{""judgement"":1}","[0]","survey-likert","492","1249148","0.0-492.0","r4bbrfu3","","","","","","","","1"
"2482.405000000028","{""confidence"":2}","[0]","survey-likert","493","1251632","0.0-493.0","r4bbrfu3","","","","","","","",""
"","","","call-function","494","1251632","0.0-494.0","r4bbrfu3","","","","","","","",""
"null","","","html-keyboard-response","495","1253135","0.0-495.0","r4bbrfu3","","<span style=""color:Black; font-size:50px;"">Agent A","null","","","","",""
"null","","","video-keyboard-response","496","1255918","0.0-496.0","r4bbrfu3","","","null","","Agent A","veridical","FOR_REV_MAP_BLOBBY_STIM/1160049.bmp_pp53_L2_V1.0_veridical_freeview_isoTrue_fps144.mp4",""
"null","","","html-keyboard-response","497","1257424","0.0-497.0","r4bbrfu3","","<span style=""color:Black; font-size:50px;"">Agent B","null","","","","",""
"null","","","video-keyboard-response","498","1260201","0.0-498.0","r4bbrfu3","","","null","","Agent B","scrambled","FOR_REV_MAP_BLOBBY_STIM/1160049.bmp_pp53_L2_V1.0_veridical_freeview_isoTrue_fps144_reversed_REAL.mp4",""
"","","","call-function","499","1260202","0.0-499.0","r4bbrfu3","","","","","","","",""
"3418.064999999944","{""judgement"":0}","[0]","survey-likert","500","1263621","0.0-500.0","r4bbrfu3","","","","","","","","0"
"3507.0200000000186","{""confidence"":2}","[0]","survey-likert","501","1267129","0.0-501.0","r4bbrfu3","","","","","","","",""
"2888.1049999999814","","","instructions","502","1270017","0.0-502.0","r4bbrfu3","[{""page_index"":0,""viewing_time"":1361.970000000205},{""page_index"":1,""viewing_time"":816.8499999998603},{""page_index"":2,""viewing_time"":709.1300000001211}]","","","","","","",""
"1608.7399999999907","","","instructions","503","1271627","0.0-503.0","r4bbrfu3","[{""page_index"":0,""viewing_time"":571.4000000001397},{""page_index"":1,""viewing_time"":491.9799999999814},{""page_index"":2,""viewing_time"":545.1499999999069}]","","","","","","",""
"","","","call-function","504","1271627","0.0-504.0","r4bbrfu3","","","","","","","",""
"null","","","html-keyboard-response","505","1273133","0.0-505.0","r4bbrfu3","","<span style=""color:Black; font-size:50px;"">Agent A","null","","","","",""
"null","","","video-keyboard-response","506","1275924","0.0-506.0","r4bbrfu3","","","null","","Agent A","veridical","FOR_REV_MAP_BLOBBY_STIM/1592017.bmp_pp154_L1_V1.0_veridical_freeview_isoTrue_fps144.mp4",""
"null","","","html-keyboard-response","507","1277430","0.0-507.0","r4bbrfu3","","<span style=""color:Black; font-size:50px;"">Agent B","null","","","","",""
"null","","","video-keyboard-response","508","1280209","0.0-508.0","r4bbrfu3","","","null","","Agent B","scrambled","FOR_REV_MAP_BLOBBY_STIM/1592017.bmp_pp154_L1_V1.0_veridical_freeview_isoTrue_fps144_reversed_REAL.mp4",""
"","","","call-function","509","1280209","0.0-509.0","r4bbrfu3","","","","","","","",""
"3231.755000000121","{""judgement"":0}","[0]","survey-likert","510","1283442","0.0-510.0","r4bbrfu3","","","","","","","","0"
"3120.9499999999534","{""confidence"":2}","[0]","survey-likert","511","1286564","0.0-511.0","r4bbrfu3","","","","","","","",""
"","","","call-function","512","1286564","0.0-512.0","r4bbrfu3","","","","","","","",""
"null","","","html-keyboard-response","513","1288070","0.0-513.0","r4bbrfu3","","<span style=""color:Black; font-size:50px;"">Agent A","null","","","","",""
"null","","","video-keyboard-response","514","1290861","0.0-514.0","r4bbrfu3","","","null","","Agent A","veridical","FOR_REV_MAP_BLOBBY_STIM/285684.bmp_pp80_L3_V1.0_veridical_freeview_isoTrue_fps144.mp4",""
"null","","","html-keyboard-response","515","1292364","0.0-515.0","r4bbrfu3","","<span style=""color:Black; font-size:50px;"">Agent B","null","","","","",""
"null","","","video-keyboard-response","516","1295142","0.0-516.0","r4bbrfu3","","","null","","Agent B","scrambled","FOR_REV_MAP_BLOBBY_STIM/285684.bmp_pp80_L3_V1.0_veridical_freeview_isoTrue_fps144_reversed_REAL.mp4",""
"","","","call-function","517","1295142","0.0-517.0","r4bbrfu3","","","","","","","",""
"2670.8000000000466","{""judgement"":0}","[0]","survey-likert","518","1297814","0.0-518.0","r4bbrfu3","","","","","","","","0"
"1762.0200000000186","{""confidence"":2}","[0]","survey-likert","519","1299577","0.0-519.0","r4bbrfu3","","","","","","","",""
"","","","call-function","520","1299577","0.0-520.0","r4bbrfu3","","","","","","","",""
"null","","","html-keyboard-response","521","1301079","0.0-521.0","r4bbrfu3","","<span style=""color:Black; font-size:50px;"">Agent A","null","","","","",""
"null","","","video-keyboard-response","522","1303816","0.0-522.0","r4bbrfu3","","","null","","Agent A","veridical","FOR_REV_MAP_BLOBBY_STIM/1159592.bmp_pp91_L3_V1.0_veridical_freeview_isoTrue_fps144.mp4",""
"null","","","html-keyboard-response","523","1305318","0.0-523.0","r4bbrfu3","","<span style=""color:Black; font-size:50px;"">Agent B","null","","","","",""
"null","","","video-keyboard-response","524","1308073","0.0-524.0","r4bbrfu3","","","null","","Agent B","scrambled","FOR_REV_MAP_BLOBBY_STIM/1159592.bmp_pp91_L3_V1.0_veridical_freeview_isoTrue_fps144_reversed_REAL.mp4",""
"","","","call-function","525","1308074","0.0-525.0","r4bbrfu3","","","","","","","",""
"2695.119999999879","{""judgement"":0}","[0]","survey-likert","526","1310770","0.0-526.0","r4bbrfu3","","","","","","","","0"
"2001.9850000001024","{""confidence"":2}","[0]","survey-likert","527","1312773","0.0-527.0","r4bbrfu3","","","","","","","",""
"","","","call-function","528","1312773","0.0-528.0","r4bbrfu3","","","","","","","",""
"null","","","html-keyboard-response","529","1314277","0.0-529.0","r4bbrfu3","","<span style=""color:Black; font-size:50px;"">Agent A","null","","","","",""
"null","","","video-keyboard-response","530","1317123","0.0-530.0","r4bbrfu3","","","null","","Agent A","scrambled","FOR_REV_MAP_BLOBBY_STIM/713742.bmp_pp91_L3_V1.0_veridical_freeview_isoTrue_fps144_reversed_REAL.mp4",""
"null","","","html-keyboard-response","531","1318629","0.0-531.0","r4bbrfu3","","<span style=""color:Black; font-size:50px;"">Agent B","null","","","","",""
"null","","","video-keyboard-response","532","1321456","0.0-532.0","r4bbrfu3","","","null","","Agent B","veridical","FOR_REV_MAP_BLOBBY_STIM/713742.bmp_pp91_L3_V1.0_veridical_freeview_isoTrue_fps144.mp4",""
"","","","call-function","533","1321457","0.0-533.0","r4bbrfu3","","","","","","","",""
"3533.1100000001024","{""judgement"":1}","[0]","survey-likert","534","1324991","0.0-534.0","r4bbrfu3","","","","","","","","1"
"2050.8599999998696","{""confidence"":2}","[0]","survey-likert","535","1327043","0.0-535.0","r4bbrfu3","","","","","","","",""
"","","","call-function","536","1327043","0.0-536.0","r4bbrfu3","","","","","","","",""
"null","","","html-keyboard-response","537","1328547","0.0-537.0","r4bbrfu3","","<span style=""color:Black; font-size:50px;"">Agent A","null","","","","",""
"null","","","video-keyboard-response","538","1331391","0.0-538.0","r4bbrfu3","","","null","","Agent A","scrambled","FOR_REV_MAP_BLOBBY_STIM/498326.bmp_pp57_L1_V1.0_veridical_freeview_isoTrue_fps144_reversed_REAL.mp4",""
"null","","","html-keyboard-response","539","1332893","0.0-539.0","r4bbrfu3","","<span style=""color:Black; font-size:50px;"">Agent B","null","","","","",""
"null","","","video-keyboard-response","540","1335749","0.0-540.0","r4bbrfu3","","","null","","Agent B","veridical","FOR_REV_MAP_BLOBBY_STIM/498326.bmp_pp57_L1_V1.0_veridical_freeview_isoTrue_fps144.mp4",""
"","","","call-function","541","1335750","0.0-541.0","r4bbrfu3","","","","","","","",""
"3338.659999999916","{""judgement"":1}","[0]","survey-likert","542","1339090","0.0-542.0","r4bbrfu3","","","","","","","","1"
"1652.9599999999627","{""confidence"":1}","[0]","survey-likert","543","1340745","0.0-543.0","r4bbrfu3","","","","","","","",""
"","","","call-function","544","1340746","0.0-544.0","r4bbrfu3","","","","","","","",""
"null","","","html-keyboard-response","545","1342253","0.0-545.0","r4bbrfu3","","<span style=""color:Black; font-size:50px;"">Agent A","null","","","","",""
"null","","","video-keyboard-response","546","1345081","0.0-546.0","r4bbrfu3","","","null","","Agent A","scrambled","FOR_REV_MAP_BLOBBY_STIM/1592150.bmp_pp77_L3_V1.0_veridical_freeview_isoTrue_fps144_reversed_REAL.mp4",""
"null","","","html-keyboard-response","547","1346587","0.0-547.0","r4bbrfu3","","<span style=""color:Black; font-size:50px;"">Agent B","null","","","","",""
"null","","","video-keyboard-response","548","1349391","0.0-548.0","r4bbrfu3","","","null","","Agent B","veridical","FOR_REV_MAP_BLOBBY_STIM/1592150.bmp_pp77_L3_V1.0_veridical_freeview_isoTrue_fps144.mp4",""
"","","","call-function","549","1349391","0.0-549.0","r4bbrfu3","","","","","","","",""
"2410.804999999935","{""judgement"":0}","[0]","survey-likert","550","1351803","0.0-550.0","r4bbrfu3","","","","","","","","1"
"1961.0349999999162","{""confidence"":2}","[0]","survey-likert","551","1353766","0.0-551.0","r4bbrfu3","","","","","","","",""
"","","","call-function","552","1353767","0.0-552.0","r4bbrfu3","","","","","","","",""
"null","","","html-keyboard-response","553","1355272","0.0-553.0","r4bbrfu3","","<span style=""color:Black; font-size:50px;"">Agent A","null","","","","",""
"null","","","video-keyboard-response","554","1358198","0.0-554.0","r4bbrfu3","","","null","","Agent A","scrambled","FOR_REV_MAP_BLOBBY_STIM/498025.bmp_pp81_L1_V1.0_veridical_freeview_isoTrue_fps144_reversed_REAL.mp4",""
"null","","","html-keyboard-response","555","1359701","0.0-555.0","r4bbrfu3","","<span style=""color:Black; font-size:50px;"">Agent B","null","","","","",""
"null","","","video-keyboard-response","556","1362631","0.0-556.0","r4bbrfu3","","","null","","Agent B","veridical","FOR_REV_MAP_BLOBBY_STIM/498025.bmp_pp81_L1_V1.0_veridical_freeview_isoTrue_fps144.mp4",""
"","","","call-function","557","1362632","0.0-557.0","r4bbrfu3","","","","","","","",""
"3261.969999999972","{""judgement"":1}","[0]","survey-likert","558","1365895","0.0-558.0","r4bbrfu3","","","","","","","","1"
"1623.375","{""confidence"":1}","[0]","survey-likert","559","1367519","0.0-559.0","r4bbrfu3","","","","","","","",""
"","","","call-function","560","1367520","0.0-560.0","r4bbrfu3","","","","","","","",""
"null","","","html-keyboard-response","561","1369022","0.0-561.0","r4bbrfu3","","<span style=""color:Black; font-size:50px;"">Agent A","null","","","","",""
"null","","","video-keyboard-response","562","1371509","0.0-562.0","r4bbrfu3","","","null","","Agent A","veridical","FOR_REV_MAP_BLOBBY_STIM/1592951.bmp_pp80_L3_V1.0_veridical_freeview_isoTrue_fps144.mp4",""
"null","","","html-keyboard-response","563","1373012","0.0-563.0","r4bbrfu3","","<span style=""color:Black; font-size:50px;"">Agent B","null","","","","",""
"null","","","video-keyboard-response","564","1375445","0.0-564.0","r4bbrfu3","","","null","","Agent B","scrambled","FOR_REV_MAP_BLOBBY_STIM/1592951.bmp_pp80_L3_V1.0_veridical_freeview_isoTrue_fps144_reversed_REAL.mp4",""
"","","","call-function","565","1375446","0.0-565.0","r4bbrfu3","","","","","","","",""
"2539.030000000028","{""judgement"":1}","[0]","survey-likert","566","1377986","0.0-566.0","r4bbrfu3","","","","","","","","0"
"1940.3049999999348","{""confidence"":2}","[0]","survey-likert","567","1379927","0.0-567.0","r4bbrfu3","","","","","","","",""
"","","","call-function","568","1379927","0.0-568.0","r4bbrfu3","","","","","","","",""
"null","","","html-keyboard-response","569","1381430","0.0-569.0","r4bbrfu3","","<span style=""color:Black; font-size:50px;"">Agent A","null","","","","",""
"null","","","video-keyboard-response","570","1384268","0.0-570.0","r4bbrfu3","","","null","","Agent A","scrambled","FOR_REV_MAP_BLOBBY_STIM/1592025.bmp_pp68_L1_V1.0_veridical_freeview_isoTrue_fps144_reversed_REAL.mp4",""
"null","","","html-keyboard-response","571","1385773","0.0-571.0","r4bbrfu3","","<span style=""color:Black; font-size:50px;"">Agent B","null","","","","",""
"null","","","video-keyboard-response","572","1388609","0.0-572.0","r4bbrfu3","","","null","","Agent B","veridical","FOR_REV_MAP_BLOBBY_STIM/1592025.bmp_pp68_L1_V1.0_veridical_freeview_isoTrue_fps144.mp4",""
"","","","call-function","573","1388610","0.0-573.0","r4bbrfu3","","","","","","","",""
"2363.189999999944","{""judgement"":1}","[0]","survey-likert","574","1390974","0.0-574.0","r4bbrfu3","","","","","","","","1"
"1541.4650000000838","{""confidence"":2}","[0]","survey-likert","575","1392517","0.0-575.0","r4bbrfu3","","","","","","","",""
"","","","call-function","576","1392517","0.0-576.0","r4bbrfu3","","","","","","","",""
"null","","","html-keyboard-response","577","1394019","0.0-577.0","r4bbrfu3","","<span style=""color:Black; font-size:50px;"">Agent A","null","","","","",""
"null","","","video-keyboard-response","578","1396853","0.0-578.0","r4bbrfu3","","","null","","Agent A","veridical","FOR_REV_MAP_BLOBBY_STIM/713689.bmp_pp153_L3_V1.0_veridical_freeview_isoTrue_fps144.mp4",""
"null","","","html-keyboard-response","579","1398355","0.0-579.0","r4bbrfu3","","<span style=""color:Black; font-size:50px;"">Agent B","null","","","","",""
"null","","","video-keyboard-response","580","1401168","0.0-580.0","r4bbrfu3","","","null","","Agent B","scrambled","FOR_REV_MAP_BLOBBY_STIM/713689.bmp_pp153_L3_V1.0_veridical_freeview_isoTrue_fps144_reversed_REAL.mp4",""
"","","","call-function","581","1401168","0.0-581.0","r4bbrfu3","","","","","","","",""
"2981.340000000084","{""judgement"":1}","[0]","survey-likert","582","1404151","0.0-582.0","r4bbrfu3","","","","","","","","0"
"1533.1499999999069","{""confidence"":1}","[0]","survey-likert","583","1405685","0.0-583.0","r4bbrfu3","","","","","","","",""
"1706.1450000000186","","","instructions","584","1407392","0.0-584.0","r4bbrfu3","[{""page_index"":0,""viewing_time"":1705.9199999999255}]","","","","","","",""
"7785.630000000121","","","instructions","585","1415179","0.0-585.0","r4bbrfu3","[{""page_index"":0,""viewing_time"":7785.52500000014}]","","","","","","",""
"10649.709999999963","{""post-1"":1}","[0]","survey-likert","586","1425830","0.0-586.0","r4bbrfu3","","","","","","","",""
"16238.204999999842","{""post-1"":1}","[0]","survey-likert","587","1442069","0.0-587.0","r4bbrfu3","","","","","","","",""
"14709.23999999999","{""post-2"":1}","[0]","survey-likert","588","1456780","0.0-588.0","r4bbrfu3","","","","","","","",""
"6715.8300000000745","{""post-2"":1}","[0]","survey-likert","589","1463498","0.0-589.0","r4bbrfu3","","","","","","","",""
"9096.770000000019","{""post-3"":2}","[0]","survey-likert","590","1472597","0.0-590.0","r4bbrfu3","","","","","","","",""
"7441.72499999986","{""post-3"":0}","[0]","survey-likert","591","1480040","0.0-591.0","r4bbrfu3","","","","","","","",""
"7807.854999999981","{""post-4"":1}","[0]","survey-likert","592","1487849","0.0-592.0","r4bbrfu3","","","","","","","",""
"2587.595000000205","{""post-4"":1}","[0]","survey-likert","593","1490438","0.0-593.0","r4bbrfu3","","","","","","","",""
"6959.064999999944","{""post-5"":1}","[0]","survey-likert","594","1497398","0.0-594.0","r4bbrfu3","","","","","","","",""
"3884.3850000000093","{""post-5"":2}","[0]","survey-likert","595","1501284","0.0-595.0","r4bbrfu3","","","","","","","",""
"351735.655","{""Q0"":""I suppose the brain tends to try and find pattern out of chaos, I naturally tried to find a comparative pattern between the A and the B images over time, and halfway through the experiment I realized that B seemed to be the mirror image of A--or A played backwards. In real life, attention is drawn by whatever \""excites\"" our senses in the world we're perceiving, so I wouldn't expect perfect predictability in how our attention \""unfolds,\"" so to speak. But, assuming a world that we are at liberty to perceive/\""read,\"" our understanding tends to move left to right (at least my literate mind does). It was at that moment that I realized that the perception patterns that seemed more human were the ones displaying mostly a left-to-right trajectory. This is just a hypothesis, but it helped cement my level of confidence going forward.""}","","survey-text","596","1853030","0.0-596.0","r4bbrfu3","","","","","","","",""
"140007.54000000004","{""Q0"":""I relaxed into a conviction that I would never feel perfectly confident, so that made it easy vs. stressful (also, no timed clicking!). Actively looking for a pattern is probably the only strategy I used.""}","","survey-text","597","1993041","0.0-597.0","r4bbrfu3","","","","","","","",""
"64055.060000000056","{""Q0"":""Imagining what the \""agent\"" could be looking at that would send them moving faster vs. slower, lingering, etc. Also, building a tolerance for lack of confidence. :)""}","","survey-text","598","2057100","0.0-598.0","r4bbrfu3","","","","","","","",""
"1993.565000000177","","","instructions","599","2059095","0.0-599.0","r4bbrfu3","[{""page_index"":0,""viewing_time"":1993.4350000000559}]","","","","","","",""
"51616.85000000009","{""Experimenter_end"":[""Printed ID# r4bbrfu3 on consent form"",""Given subject SONA credit or payment"",""Given the subject debrief form""]}","[0]","survey-multi-select","600","2110714","0.0-600.0","r4bbrfu3","","","","","","","",""
