"rt","responses","question_order","trial_type","trial_index","time_elapsed","internal_node_id","ID","view_history","stimulus","key_press","value","agent","condition","image","correct_answer"
"88230.81000000001","{""Experimenter"":[""Confirmed subject's identity"",""Confirmed normal or corrected-to-normal vision"",""Obtained consent (signature and date)"",""Checked the test room lighting"",""Checked computer screen lighting"",""Checked distance from screen to chin rest (50cm)"",""Cleaned and adjusted chin rest"",""Counterbalanced the order of the tasks"",""Opened the experiment in Firefox"",""Made the experiment full screen"",""Encouraged subject to silence phone, put away distractors, etc.""]}","[0]","survey-multi-select","0","88238","0.0-0.0","ra8t9q98","","","","","","","",""
"1655.409999999989","","","instructions","1","89895","0.0-1.0","ra8t9q98","[{""page_index"":0,""viewing_time"":1655.25499999999}]","","","","","","",""
"16058.654999999999","{""Age"":8,""Sex"":1,""Gender"":1}","[0,1,2]","survey-likert","2","105957","0.0-2.0","ra8t9q98","","","","","","","",""
"41956.70999999999","","","instructions","3","147915","0.0-3.0","ra8t9q98","[{""page_index"":0,""viewing_time"":32918.41},{""page_index"":1,""viewing_time"":1027.9049999999988},{""page_index"":2,""viewing_time"":8010.149999999994}]","","","","","","",""
"2390.9400000000023","","","instructions","4","150307","0.0-4.0","ra8t9q98","[{""page_index"":0,""viewing_time"":2390.8399999999965}]","","","","","","",""
"null","","","video-keyboard-response","5","153453","0.0-5.0","ra8t9q98","","","null","","","","",""
"8142.889999999985","","","instructions","6","161597","0.0-6.0","ra8t9q98","[{""page_index"":0,""viewing_time"":2356.7149999999965},{""page_index"":1,""viewing_time"":2451.470000000001},{""page_index"":2,""viewing_time"":3334.600000000006}]","","","","","","",""
"2365.625","","","instructions","7","163963","0.0-7.0","ra8t9q98","[{""page_index"":0,""viewing_time"":2365.529999999999}]","","","","","","",""
"1098.570000000007","","","instructions","8","165062","0.0-8.0","ra8t9q98","[{""page_index"":0,""viewing_time"":1098.4700000000012}]","","","","","","",""
"null","","","video-keyboard-response","9","168137","0.0-9.0","ra8t9q98","","","null","","","","",""
"8465.369999999995","","","instructions","10","176603","0.0-10.0","ra8t9q98","[{""page_index"":0,""viewing_time"":1399.0950000000012},{""page_index"":1,""viewing_time"":3372.9899999999907},{""page_index"":2,""viewing_time"":3693.045000000013}]","","","","","","",""
"3452.3649999999907","","","instructions","11","180055","0.0-11.0","ra8t9q98","[{""page_index"":0,""viewing_time"":3452.25}]","","","","","","",""
"","","","call-function","12","180056","0.0-12.0","ra8t9q98","","","","","","","",""
"null","","","html-keyboard-response","13","181561","0.0-13.0","ra8t9q98","","<span style=""color:Black; font-size:50px;"">Agent A","null","","","","",""
"null","","","video-keyboard-response","14","184391","0.0-14.0","ra8t9q98","","","null","","Agent A","scrambled","FOR_REV_MAP_BLOBBY_STIM/1592025.bmp_pp68_L1_V1.0_veridical_freeview_isoTrue_fps144_reversed_REAL.mp4",""
"null","","","html-keyboard-response","15","185893","0.0-15.0","ra8t9q98","","<span style=""color:Black; font-size:50px;"">Agent B","null","","","","",""
"null","","","video-keyboard-response","16","188771","0.0-16.0","ra8t9q98","","","null","","Agent B","veridical","FOR_REV_MAP_BLOBBY_STIM/1592025.bmp_pp68_L1_V1.0_veridical_freeview_isoTrue_fps144.mp4",""
"","","","call-function","17","188771","0.0-17.0","ra8t9q98","","","","","","","",""
"2004.7149999999965","{""judgement"":1}","[0]","survey-likert","18","190777","0.0-18.0","ra8t9q98","","","","","","","","1"
"2577.764999999985","{""confidence"":2}","[0]","survey-likert","19","193356","0.0-19.0","ra8t9q98","","","","","","","",""
"","","","call-function","20","193356","0.0-20.0","ra8t9q98","","","","","","","",""
"null","","","html-keyboard-response","21","194859","0.0-21.0","ra8t9q98","","<span style=""color:Black; font-size:50px;"">Agent A","null","","","","",""
"null","","","video-keyboard-response","22","197680","0.0-22.0","ra8t9q98","","","null","","Agent A","scrambled","FOR_REV_MAP_BLOBBY_STIM/498258.bmp_pp51_L1_V1.0_veridical_freeview_isoTrue_fps144_reversed_REAL.mp4",""
"null","","","html-keyboard-response","23","199186","0.0-23.0","ra8t9q98","","<span style=""color:Black; font-size:50px;"">Agent B","null","","","","",""
"null","","","video-keyboard-response","24","202004","0.0-24.0","ra8t9q98","","","null","","Agent B","veridical","FOR_REV_MAP_BLOBBY_STIM/498258.bmp_pp51_L1_V1.0_veridical_freeview_isoTrue_fps144.mp4",""
"","","","call-function","25","202004","0.0-25.0","ra8t9q98","","","","","","","",""
"3861.929999999993","{""judgement"":1}","[0]","survey-likert","26","205867","0.0-26.0","ra8t9q98","","","","","","","","1"
"2284.850000000006","{""confidence"":1}","[0]","survey-likert","27","208153","0.0-27.0","ra8t9q98","","","","","","","",""
"","","","call-function","28","208153","0.0-28.0","ra8t9q98","","","","","","","",""
"null","","","html-keyboard-response","29","209657","0.0-29.0","ra8t9q98","","<span style=""color:Black; font-size:50px;"">Agent A","null","","","","",""
"null","","","video-keyboard-response","30","212464","0.0-30.0","ra8t9q98","","","null","","Agent A","scrambled","FOR_REV_MAP_BLOBBY_STIM/1592567.bmp_pp70_L2_V1.0_veridical_freeview_isoTrue_fps144_reversed_REAL.mp4",""
"null","","","html-keyboard-response","31","213966","0.0-31.0","ra8t9q98","","<span style=""color:Black; font-size:50px;"">Agent B","null","","","","",""
"null","","","video-keyboard-response","32","216744","0.0-32.0","ra8t9q98","","","null","","Agent B","veridical","FOR_REV_MAP_BLOBBY_STIM/1592567.bmp_pp70_L2_V1.0_veridical_freeview_isoTrue_fps144.mp4",""
"","","","call-function","33","216745","0.0-33.0","ra8t9q98","","","","","","","",""
"3277.25999999998","{""judgement"":1}","[0]","survey-likert","34","220023","0.0-34.0","ra8t9q98","","","","","","","","1"
"2050.0599999999977","{""confidence"":0}","[0]","survey-likert","35","222074","0.0-35.0","ra8t9q98","","","","","","","",""
"","","","call-function","36","222074","0.0-36.0","ra8t9q98","","","","","","","",""
"null","","","html-keyboard-response","37","223579","0.0-37.0","ra8t9q98","","<span style=""color:Black; font-size:50px;"">Agent A","null","","","","",""
"null","","","video-keyboard-response","38","226318","0.0-38.0","ra8t9q98","","","null","","Agent A","scrambled","FOR_REV_MAP_BLOBBY_STIM/1159956.bmp_pp59_L3_V1.0_veridical_freeview_isoTrue_fps144_reversed_REAL.mp4",""
"null","","","html-keyboard-response","39","227820","0.0-39.0","ra8t9q98","","<span style=""color:Black; font-size:50px;"">Agent B","null","","","","",""
"null","","","video-keyboard-response","40","230581","0.0-40.0","ra8t9q98","","","null","","Agent B","veridical","FOR_REV_MAP_BLOBBY_STIM/1159956.bmp_pp59_L3_V1.0_veridical_freeview_isoTrue_fps144.mp4",""
"","","","call-function","41","230581","0.0-41.0","ra8t9q98","","","","","","","",""
"3127.889999999985","{""judgement"":0}","[0]","survey-likert","42","233710","0.0-42.0","ra8t9q98","","","","","","","","1"
"2010.1900000000023","{""confidence"":1}","[0]","survey-likert","43","235721","0.0-43.0","ra8t9q98","","","","","","","",""
"","","","call-function","44","235722","0.0-44.0","ra8t9q98","","","","","","","",""
"null","","","html-keyboard-response","45","237224","0.0-45.0","ra8t9q98","","<span style=""color:Black; font-size:50px;"">Agent A","null","","","","",""
"null","","","video-keyboard-response","46","239933","0.0-46.0","ra8t9q98","","","null","","Agent A","veridical","FOR_REV_MAP_BLOBBY_STIM/1159427.bmp_pp98_L1_V1.0_veridical_freeview_isoTrue_fps144.mp4",""
"null","","","html-keyboard-response","47","241439","0.0-47.0","ra8t9q98","","<span style=""color:Black; font-size:50px;"">Agent B","null","","","","",""
"null","","","video-keyboard-response","48","244168","0.0-48.0","ra8t9q98","","","null","","Agent B","scrambled","FOR_REV_MAP_BLOBBY_STIM/1159427.bmp_pp98_L1_V1.0_veridical_freeview_isoTrue_fps144_reversed_REAL.mp4",""
"","","","call-function","49","244168","0.0-49.0","ra8t9q98","","","","","","","",""
"2767.860000000015","{""judgement"":0}","[0]","survey-likert","50","246937","0.0-50.0","ra8t9q98","","","","","","","","0"
"1275.8549999999814","{""confidence"":0}","[0]","survey-likert","51","248214","0.0-51.0","ra8t9q98","","","","","","","",""
"","","","call-function","52","248214","0.0-52.0","ra8t9q98","","","","","","","",""
"null","","","html-keyboard-response","53","249716","0.0-53.0","ra8t9q98","","<span style=""color:Black; font-size:50px;"">Agent A","null","","","","",""
"null","","","video-keyboard-response","54","252580","0.0-54.0","ra8t9q98","","","null","","Agent A","scrambled","FOR_REV_MAP_BLOBBY_STIM/1160189.bmp_pp64_L1_V1.0_veridical_freeview_isoTrue_fps144_reversed_REAL.mp4",""
"null","","","html-keyboard-response","55","254084","0.0-55.0","ra8t9q98","","<span style=""color:Black; font-size:50px;"">Agent B","null","","","","",""
"null","","","video-keyboard-response","56","256962","0.0-56.0","ra8t9q98","","","null","","Agent B","veridical","FOR_REV_MAP_BLOBBY_STIM/1160189.bmp_pp64_L1_V1.0_veridical_freeview_isoTrue_fps144.mp4",""
"","","","call-function","57","256962","0.0-57.0","ra8t9q98","","","","","","","",""
"1564.4100000000035","{""judgement"":1}","[0]","survey-likert","58","258529","0.0-58.0","ra8t9q98","","","","","","","","1"
"2510.1699999999837","{""confidence"":2}","[0]","survey-likert","59","261040","0.0-59.0","ra8t9q98","","","","","","","",""
"","","","call-function","60","261040","0.0-60.0","ra8t9q98","","","","","","","",""
"null","","","html-keyboard-response","61","262543","0.0-61.0","ra8t9q98","","<span style=""color:Black; font-size:50px;"">Agent A","null","","","","",""
"null","","","video-keyboard-response","62","265316","0.0-62.0","ra8t9q98","","","null","","Agent A","veridical","FOR_REV_MAP_BLOBBY_STIM/1592017.bmp_pp154_L1_V1.0_veridical_freeview_isoTrue_fps144.mp4",""
"null","","","html-keyboard-response","63","266821","0.0-63.0","ra8t9q98","","<span style=""color:Black; font-size:50px;"">Agent B","null","","","","",""
"null","","","video-keyboard-response","64","269591","0.0-64.0","ra8t9q98","","","null","","Agent B","scrambled","FOR_REV_MAP_BLOBBY_STIM/1592017.bmp_pp154_L1_V1.0_veridical_freeview_isoTrue_fps144_reversed_REAL.mp4",""
"","","","call-function","65","269591","0.0-65.0","ra8t9q98","","","","","","","",""
"1547.954999999958","{""judgement"":0}","[0]","survey-likert","66","271141","0.0-66.0","ra8t9q98","","","","","","","","0"
"2224.2150000000256","{""confidence"":2}","[0]","survey-likert","67","273367","0.0-67.0","ra8t9q98","","","","","","","",""
"","","","call-function","68","273367","0.0-68.0","ra8t9q98","","","","","","","",""
"null","","","html-keyboard-response","69","274872","0.0-69.0","ra8t9q98","","<span style=""color:Black; font-size:50px;"">Agent A","null","","","","",""
"null","","","video-keyboard-response","70","277716","0.0-70.0","ra8t9q98","","","null","","Agent A","veridical","FOR_REV_MAP_BLOBBY_STIM/498326.bmp_pp57_L1_V1.0_veridical_freeview_isoTrue_fps144.mp4",""
"null","","","html-keyboard-response","71","279220","0.0-71.0","ra8t9q98","","<span style=""color:Black; font-size:50px;"">Agent B","null","","","","",""
"null","","","video-keyboard-response","72","282063","0.0-72.0","ra8t9q98","","","null","","Agent B","scrambled","FOR_REV_MAP_BLOBBY_STIM/498326.bmp_pp57_L1_V1.0_veridical_freeview_isoTrue_fps144_reversed_REAL.mp4",""
"","","","call-function","73","282063","0.0-73.0","ra8t9q98","","","","","","","",""
"1838.2000000000116","{""judgement"":0}","[0]","survey-likert","74","283902","0.0-74.0","ra8t9q98","","","","","","","","0"
"1783.8099999999977","{""confidence"":0}","[0]","survey-likert","75","285687","0.0-75.0","ra8t9q98","","","","","","","",""
"","","","call-function","76","285688","0.0-76.0","ra8t9q98","","","","","","","",""
"null","","","html-keyboard-response","77","287193","0.0-77.0","ra8t9q98","","<span style=""color:Black; font-size:50px;"">Agent A","null","","","","",""
"null","","","video-keyboard-response","78","290003","0.0-78.0","ra8t9q98","","","null","","Agent A","scrambled","FOR_REV_MAP_BLOBBY_STIM/1592530.bmp_pp75_L1_V1.0_veridical_freeview_isoTrue_fps144_reversed_REAL.mp4",""
"null","","","html-keyboard-response","79","291508","0.0-79.0","ra8t9q98","","<span style=""color:Black; font-size:50px;"">Agent B","null","","","","",""
"null","","","video-keyboard-response","80","294329","0.0-80.0","ra8t9q98","","","null","","Agent B","veridical","FOR_REV_MAP_BLOBBY_STIM/1592530.bmp_pp75_L1_V1.0_veridical_freeview_isoTrue_fps144.mp4",""
"","","","call-function","81","294330","0.0-81.0","ra8t9q98","","","","","","","",""
"1612.4850000000442","{""judgement"":1}","[0]","survey-likert","82","295943","0.0-82.0","ra8t9q98","","","","","","","","1"
"1416.6900000000023","{""confidence"":2}","[0]","survey-likert","83","297361","0.0-83.0","ra8t9q98","","","","","","","",""
"","","","call-function","84","297361","0.0-84.0","ra8t9q98","","","","","","","",""
"null","","","html-keyboard-response","85","298864","0.0-85.0","ra8t9q98","","<span style=""color:Black; font-size:50px;"">Agent A","null","","","","",""
"null","","","video-keyboard-response","86","301650","0.0-86.0","ra8t9q98","","","null","","Agent A","scrambled","FOR_REV_MAP_BLOBBY_STIM/1160049.bmp_pp53_L2_V1.0_veridical_freeview_isoTrue_fps144_reversed_REAL.mp4",""
"null","","","html-keyboard-response","87","303153","0.0-87.0","ra8t9q98","","<span style=""color:Black; font-size:50px;"">Agent B","null","","","","",""
"null","","","video-keyboard-response","88","305934","0.0-88.0","ra8t9q98","","","null","","Agent B","veridical","FOR_REV_MAP_BLOBBY_STIM/1160049.bmp_pp53_L2_V1.0_veridical_freeview_isoTrue_fps144.mp4",""
"","","","call-function","89","305935","0.0-89.0","ra8t9q98","","","","","","","",""
"1459.6849999999977","{""judgement"":1}","[0]","survey-likert","90","307395","0.0-90.0","ra8t9q98","","","","","","","","1"
"1766.045000000042","{""confidence"":2}","[0]","survey-likert","91","309162","0.0-91.0","ra8t9q98","","","","","","","",""
"2908.109999999986","","","instructions","92","312071","0.0-92.0","ra8t9q98","[{""page_index"":0,""viewing_time"":1067.9049999999697},{""page_index"":1,""viewing_time"":1039.9199999999837},{""page_index"":2,""viewing_time"":800.0750000000116}]","","","","","","",""
"3626.4349999999977","","","instructions","93","315698","0.0-93.0","ra8t9q98","[{""page_index"":0,""viewing_time"":887.4750000000349},{""page_index"":1,""viewing_time"":1861.875},{""page_index"":2,""viewing_time"":876.9749999999767}]","","","","","","",""
"","","","call-function","94","315698","0.0-94.0","ra8t9q98","","","","","","","",""
"null","","","html-keyboard-response","95","317199","0.0-95.0","ra8t9q98","","<span style=""color:Black; font-size:50px;"">Agent A","null","","","","",""
"null","","","video-keyboard-response","96","319908","0.0-96.0","ra8t9q98","","","null","","Agent A","veridical","FOR_REV_MAP_BLOBBY_STIM/1592350.bmp_pp55_L3_V1.0_veridical_freeview_isoTrue_fps144.mp4",""
"null","","","html-keyboard-response","97","321412","0.0-97.0","ra8t9q98","","<span style=""color:Black; font-size:50px;"">Agent B","null","","","","",""
"null","","","video-keyboard-response","98","324111","0.0-98.0","ra8t9q98","","","null","","Agent B","scrambled","FOR_REV_MAP_BLOBBY_STIM/1592350.bmp_pp55_L3_V1.0_veridical_freeview_isoTrue_fps144_reversed_REAL.mp4",""
"","","","call-function","99","324111","0.0-99.0","ra8t9q98","","","","","","","",""
"1743.7249999999767","{""judgement"":1}","[0]","survey-likert","100","325855","0.0-100.0","ra8t9q98","","","","","","","","0"
"1858.844999999972","{""confidence"":1}","[0]","survey-likert","101","327715","0.0-101.0","ra8t9q98","","","","","","","",""
"","","","call-function","102","327716","0.0-102.0","ra8t9q98","","","","","","","",""
"null","","","html-keyboard-response","103","329220","0.0-103.0","ra8t9q98","","<span style=""color:Black; font-size:50px;"">Agent A","null","","","","",""
"null","","","video-keyboard-response","104","331988","0.0-104.0","ra8t9q98","","","null","","Agent A","scrambled","FOR_REV_MAP_BLOBBY_STIM/1592168.bmp_pp71_L1_V1.0_veridical_freeview_isoTrue_fps144_reversed_REAL.mp4",""
"null","","","html-keyboard-response","105","333492","0.0-105.0","ra8t9q98","","<span style=""color:Black; font-size:50px;"">Agent B","null","","","","",""
"null","","","video-keyboard-response","106","336265","0.0-106.0","ra8t9q98","","","null","","Agent B","veridical","FOR_REV_MAP_BLOBBY_STIM/1592168.bmp_pp71_L1_V1.0_veridical_freeview_isoTrue_fps144.mp4",""
"","","","call-function","107","336265","0.0-107.0","ra8t9q98","","","","","","","",""
"1895.2249999999767","{""judgement"":1}","[0]","survey-likert","108","338161","0.0-108.0","ra8t9q98","","","","","","","","1"
"3204.570000000007","{""confidence"":2}","[0]","survey-likert","109","341367","0.0-109.0","ra8t9q98","","","","","","","",""
"","","","call-function","110","341367","0.0-110.0","ra8t9q98","","","","","","","",""
"null","","","html-keyboard-response","111","342869","0.0-111.0","ra8t9q98","","<span style=""color:Black; font-size:50px;"">Agent A","null","","","","",""
"null","","","video-keyboard-response","112","345695","0.0-112.0","ra8t9q98","","","null","","Agent A","scrambled","FOR_REV_MAP_BLOBBY_STIM/713770.bmp_pp89_L1_V1.0_veridical_freeview_isoTrue_fps144_reversed_REAL.mp4",""
"null","","","html-keyboard-response","113","347199","0.0-113.0","ra8t9q98","","<span style=""color:Black; font-size:50px;"">Agent B","null","","","","",""
"null","","","video-keyboard-response","114","350022","0.0-114.0","ra8t9q98","","","null","","Agent B","veridical","FOR_REV_MAP_BLOBBY_STIM/713770.bmp_pp89_L1_V1.0_veridical_freeview_isoTrue_fps144.mp4",""
"","","","call-function","115","350023","0.0-115.0","ra8t9q98","","","","","","","",""
"1945.6450000000186","{""judgement"":0}","[0]","survey-likert","116","351969","0.0-116.0","ra8t9q98","","","","","","","","1"
"1043.1449999999604","{""confidence"":2}","[0]","survey-likert","117","353013","0.0-117.0","ra8t9q98","","","","","","","",""
"","","","call-function","118","353014","0.0-118.0","ra8t9q98","","","","","","","",""
"null","","","html-keyboard-response","119","354516","0.0-119.0","ra8t9q98","","<span style=""color:Black; font-size:50px;"">Agent A","null","","","","",""
"null","","","video-keyboard-response","120","357103","0.0-120.0","ra8t9q98","","","null","","Agent A","scrambled","FOR_REV_MAP_BLOBBY_STIM/498398.bmp_pp81_L1_V1.0_veridical_freeview_isoTrue_fps144_reversed_REAL.mp4",""
"null","","","html-keyboard-response","121","358605","0.0-121.0","ra8t9q98","","<span style=""color:Black; font-size:50px;"">Agent B","null","","","","",""
"null","","","video-keyboard-response","122","361201","0.0-122.0","ra8t9q98","","","null","","Agent B","veridical","FOR_REV_MAP_BLOBBY_STIM/498398.bmp_pp81_L1_V1.0_veridical_freeview_isoTrue_fps144.mp4",""
"","","","call-function","123","361201","0.0-123.0","ra8t9q98","","","","","","","",""
"1748.2149999999674","{""judgement"":0}","[0]","survey-likert","124","362950","0.0-124.0","ra8t9q98","","","","","","","","1"
"1190.6199999999953","{""confidence"":0}","[0]","survey-likert","125","364142","0.0-125.0","ra8t9q98","","","","","","","",""
"","","","call-function","126","364142","0.0-126.0","ra8t9q98","","","","","","","",""
"null","","","html-keyboard-response","127","365647","0.0-127.0","ra8t9q98","","<span style=""color:Black; font-size:50px;"">Agent A","null","","","","",""
"null","","","video-keyboard-response","128","368461","0.0-128.0","ra8t9q98","","","null","","Agent A","veridical","FOR_REV_MAP_BLOBBY_STIM/1591781.bmp_pp63_L1_V1.0_veridical_freeview_isoTrue_fps144.mp4",""
"null","","","html-keyboard-response","129","369965","0.0-129.0","ra8t9q98","","<span style=""color:Black; font-size:50px;"">Agent B","null","","","","",""
"null","","","video-keyboard-response","130","372772","0.0-130.0","ra8t9q98","","","null","","Agent B","scrambled","FOR_REV_MAP_BLOBBY_STIM/1591781.bmp_pp63_L1_V1.0_veridical_freeview_isoTrue_fps144_reversed_REAL.mp4",""
"","","","call-function","131","372772","0.0-131.0","ra8t9q98","","","","","","","",""
"1982.5999999999767","{""judgement"":0}","[0]","survey-likert","132","374756","0.0-132.0","ra8t9q98","","","","","","","","0"
"1325.7849999999744","{""confidence"":0}","[0]","survey-likert","133","376082","0.0-133.0","ra8t9q98","","","","","","","",""
"","","","call-function","134","376083","0.0-134.0","ra8t9q98","","","","","","","",""
"null","","","html-keyboard-response","135","377589","0.0-135.0","ra8t9q98","","<span style=""color:Black; font-size:50px;"">Agent A","null","","","","",""
"null","","","video-keyboard-response","136","380324","0.0-136.0","ra8t9q98","","","null","","Agent A","veridical","FOR_REV_MAP_BLOBBY_STIM/285715.bmp_pp67_L2_V1.0_veridical_freeview_isoTrue_fps144.mp4",""
"null","","","html-keyboard-response","137","381828","0.0-137.0","ra8t9q98","","<span style=""color:Black; font-size:50px;"">Agent B","null","","","","",""
"null","","","video-keyboard-response","138","384559","0.0-138.0","ra8t9q98","","","null","","Agent B","scrambled","FOR_REV_MAP_BLOBBY_STIM/285715.bmp_pp67_L2_V1.0_veridical_freeview_isoTrue_fps144_reversed_REAL.mp4",""
"","","","call-function","139","384560","0.0-139.0","ra8t9q98","","","","","","","",""
"1048.2200000000303","{""judgement"":0}","[0]","survey-likert","140","385610","0.0-140.0","ra8t9q98","","","","","","","","0"
"879.6849999999977","{""confidence"":1}","[0]","survey-likert","141","386491","0.0-141.0","ra8t9q98","","","","","","","",""
"","","","call-function","142","386491","0.0-142.0","ra8t9q98","","","","","","","",""
"null","","","html-keyboard-response","143","387993","0.0-143.0","ra8t9q98","","<span style=""color:Black; font-size:50px;"">Agent A","null","","","","",""
"null","","","video-keyboard-response","144","390794","0.0-144.0","ra8t9q98","","","null","","Agent A","scrambled","FOR_REV_MAP_BLOBBY_STIM/1592921.bmp_pp69_L3_V1.0_veridical_freeview_isoTrue_fps144_reversed_REAL.mp4",""
"null","","","html-keyboard-response","145","392297","0.0-145.0","ra8t9q98","","<span style=""color:Black; font-size:50px;"">Agent B","null","","","","",""
"null","","","video-keyboard-response","146","395113","0.0-146.0","ra8t9q98","","","null","","Agent B","veridical","FOR_REV_MAP_BLOBBY_STIM/1592921.bmp_pp69_L3_V1.0_veridical_freeview_isoTrue_fps144.mp4",""
"","","","call-function","147","395114","0.0-147.0","ra8t9q98","","","","","","","",""
"2309.7099999999627","{""judgement"":0}","[0]","survey-likert","148","397425","0.0-148.0","ra8t9q98","","","","","","","","1"
"1599.9000000000233","{""confidence"":1}","[0]","survey-likert","149","399026","0.0-149.0","ra8t9q98","","","","","","","",""
"","","","call-function","150","399026","0.0-150.0","ra8t9q98","","","","","","","",""
"null","","","html-keyboard-response","151","400529","0.0-151.0","ra8t9q98","","<span style=""color:Black; font-size:50px;"">Agent A","null","","","","",""
"null","","","video-keyboard-response","152","403319","0.0-152.0","ra8t9q98","","","null","","Agent A","scrambled","FOR_REV_MAP_BLOBBY_STIM/1592289.bmp_pp92_L3_V1.0_veridical_freeview_isoTrue_fps144_reversed_REAL.mp4",""
"null","","","html-keyboard-response","153","404820","0.0-153.0","ra8t9q98","","<span style=""color:Black; font-size:50px;"">Agent B","null","","","","",""
"null","","","video-keyboard-response","154","407625","0.0-154.0","ra8t9q98","","","null","","Agent B","veridical","FOR_REV_MAP_BLOBBY_STIM/1592289.bmp_pp92_L3_V1.0_veridical_freeview_isoTrue_fps144.mp4",""
"","","","call-function","155","407626","0.0-155.0","ra8t9q98","","","","","","","",""
"1808.9349999999977","{""judgement"":1}","[0]","survey-likert","156","409436","0.0-156.0","ra8t9q98","","","","","","","","1"
"2115.469999999972","{""confidence"":1}","[0]","survey-likert","157","411552","0.0-157.0","ra8t9q98","","","","","","","",""
"","","","call-function","158","411553","0.0-158.0","ra8t9q98","","","","","","","",""
"null","","","html-keyboard-response","159","413055","0.0-159.0","ra8t9q98","","<span style=""color:Black; font-size:50px;"">Agent A","null","","","","",""
"null","","","video-keyboard-response","160","415826","0.0-160.0","ra8t9q98","","","null","","Agent A","veridical","FOR_REV_MAP_BLOBBY_STIM/1159325.bmp_pp67_L2_V1.0_veridical_freeview_isoTrue_fps144.mp4",""
"null","","","html-keyboard-response","161","417328","0.0-161.0","ra8t9q98","","<span style=""color:Black; font-size:50px;"">Agent B","null","","","","",""
"null","","","video-keyboard-response","162","420091","0.0-162.0","ra8t9q98","","","null","","Agent B","scrambled","FOR_REV_MAP_BLOBBY_STIM/1159325.bmp_pp67_L2_V1.0_veridical_freeview_isoTrue_fps144_reversed_REAL.mp4",""
"","","","call-function","163","420091","0.0-163.0","ra8t9q98","","","","","","","",""
"1456.2949999999837","{""judgement"":0}","[0]","survey-likert","164","421548","0.0-164.0","ra8t9q98","","","","","","","","0"
"1096.350000000035","{""confidence"":1}","[0]","survey-likert","165","422646","0.0-165.0","ra8t9q98","","","","","","","",""
"","","","call-function","166","422646","0.0-166.0","ra8t9q98","","","","","","","",""
"null","","","html-keyboard-response","167","424152","0.0-167.0","ra8t9q98","","<span style=""color:Black; font-size:50px;"">Agent A","null","","","","",""
"null","","","video-keyboard-response","168","426946","0.0-168.0","ra8t9q98","","","null","","Agent A","scrambled","FOR_REV_MAP_BLOBBY_STIM/150463.bmp_pp55_L3_V1.0_veridical_freeview_isoTrue_fps144_reversed_REAL.mp4",""
"null","","","html-keyboard-response","169","428452","0.0-169.0","ra8t9q98","","<span style=""color:Black; font-size:50px;"">Agent B","null","","","","",""
"null","","","video-keyboard-response","170","431246","0.0-170.0","ra8t9q98","","","null","","Agent B","veridical","FOR_REV_MAP_BLOBBY_STIM/150463.bmp_pp55_L3_V1.0_veridical_freeview_isoTrue_fps144.mp4",""
"","","","call-function","171","431246","0.0-171.0","ra8t9q98","","","","","","","",""
"1195.2849999999744","{""judgement"":1}","[0]","survey-likert","172","432443","0.0-172.0","ra8t9q98","","","","","","","","1"
"1006.3649999999907","{""confidence"":2}","[0]","survey-likert","173","433450","0.0-173.0","ra8t9q98","","","","","","","",""
"2770.844999999972","","","instructions","174","436221","0.0-174.0","ra8t9q98","[{""page_index"":0,""viewing_time"":1133.4349999999977},{""page_index"":1,""viewing_time"":1118.3400000000256},{""page_index"":2,""viewing_time"":518.7949999999837}]","","","","","","",""
"1429.5499999999884","","","instructions","175","437651","0.0-175.0","ra8t9q98","[{""page_index"":0,""viewing_time"":476.25},{""page_index"":1,""viewing_time"":473.0199999999604},{""page_index"":2,""viewing_time"":480.09500000003027}]","","","","","","",""
"","","","call-function","176","437652","0.0-176.0","ra8t9q98","","","","","","","",""
"null","","","html-keyboard-response","177","439156","0.0-177.0","ra8t9q98","","<span style=""color:Black; font-size:50px;"">Agent A","null","","","","",""
"null","","","video-keyboard-response","178","442051","0.0-178.0","ra8t9q98","","","null","","Agent A","scrambled","FOR_REV_MAP_BLOBBY_STIM/713920.bmp_pp76_L1_V1.0_veridical_freeview_isoTrue_fps144_reversed_REAL.mp4",""
"null","","","html-keyboard-response","179","443554","0.0-179.0","ra8t9q98","","<span style=""color:Black; font-size:50px;"">Agent B","null","","","","",""
"null","","","video-keyboard-response","180","446375","0.0-180.0","ra8t9q98","","","null","","Agent B","veridical","FOR_REV_MAP_BLOBBY_STIM/713920.bmp_pp76_L1_V1.0_veridical_freeview_isoTrue_fps144.mp4",""
"","","","call-function","181","446375","0.0-181.0","ra8t9q98","","","","","","","",""
"1251.3499999999767","{""judgement"":0}","[0]","survey-likert","182","447627","0.0-182.0","ra8t9q98","","","","","","","","1"
"1825.4550000000163","{""confidence"":2}","[0]","survey-likert","183","449454","0.0-183.0","ra8t9q98","","","","","","","",""
"","","","call-function","184","449454","0.0-184.0","ra8t9q98","","","","","","","",""
"null","","","html-keyboard-response","185","450956","0.0-185.0","ra8t9q98","","<span style=""color:Black; font-size:50px;"">Agent A","null","","","","",""
"null","","","video-keyboard-response","186","453732","0.0-186.0","ra8t9q98","","","null","","Agent A","veridical","FOR_REV_MAP_BLOBBY_STIM/1159329.bmp_pp61_L2_V1.0_veridical_freeview_isoTrue_fps144.mp4",""
"null","","","html-keyboard-response","187","455237","0.0-187.0","ra8t9q98","","<span style=""color:Black; font-size:50px;"">Agent B","null","","","","",""
"null","","","video-keyboard-response","188","458010","0.0-188.0","ra8t9q98","","","null","","Agent B","scrambled","FOR_REV_MAP_BLOBBY_STIM/1159329.bmp_pp61_L2_V1.0_veridical_freeview_isoTrue_fps144_reversed_REAL.mp4",""
"","","","call-function","189","458011","0.0-189.0","ra8t9q98","","","","","","","",""
"1255.9899999999907","{""judgement"":0}","[0]","survey-likert","190","459267","0.0-190.0","ra8t9q98","","","","","","","","0"
"1501.9649999999674","{""confidence"":1}","[0]","survey-likert","191","460770","0.0-191.0","ra8t9q98","","","","","","","",""
"","","","call-function","192","460771","0.0-192.0","ra8t9q98","","","","","","","",""
"null","","","html-keyboard-response","193","462273","0.0-193.0","ra8t9q98","","<span style=""color:Black; font-size:50px;"">Agent A","null","","","","",""
"null","","","video-keyboard-response","194","465081","0.0-194.0","ra8t9q98","","","null","","Agent A","veridical","FOR_REV_MAP_BLOBBY_STIM/107909.bmp_pp95_L2_V1.0_veridical_freeview_isoTrue_fps144.mp4",""
"null","","","html-keyboard-response","195","466586","0.0-195.0","ra8t9q98","","<span style=""color:Black; font-size:50px;"">Agent B","null","","","","",""
"null","","","video-keyboard-response","196","469376","0.0-196.0","ra8t9q98","","","null","","Agent B","scrambled","FOR_REV_MAP_BLOBBY_STIM/107909.bmp_pp95_L2_V1.0_veridical_freeview_isoTrue_fps144_reversed_REAL.mp4",""
"","","","call-function","197","469376","0.0-197.0","ra8t9q98","","","","","","","",""
"1512.640000000014","{""judgement"":0}","[0]","survey-likert","198","470890","0.0-198.0","ra8t9q98","","","","","","","","0"
"1083.765000000014","{""confidence"":2}","[0]","survey-likert","199","471975","0.0-199.0","ra8t9q98","","","","","","","",""
"","","","call-function","200","471975","0.0-200.0","ra8t9q98","","","","","","","",""
"null","","","html-keyboard-response","201","473476","0.0-201.0","ra8t9q98","","<span style=""color:Black; font-size:50px;"">Agent A","null","","","","",""
"null","","","video-keyboard-response","202","476279","0.0-202.0","ra8t9q98","","","null","","Agent A","veridical","FOR_REV_MAP_BLOBBY_STIM/713790.bmp_pp100_L3_V1.0_veridical_freeview_isoTrue_fps144.mp4",""
"null","","","html-keyboard-response","203","477780","0.0-203.0","ra8t9q98","","<span style=""color:Black; font-size:50px;"">Agent B","null","","","","",""
"null","","","video-keyboard-response","204","480676","0.0-204.0","ra8t9q98","","","null","","Agent B","scrambled","FOR_REV_MAP_BLOBBY_STIM/713790.bmp_pp100_L3_V1.0_veridical_freeview_isoTrue_fps144_reversed_REAL.mp4",""
"","","","call-function","205","480676","0.0-205.0","ra8t9q98","","","","","","","",""
"2085.2000000000116","{""judgement"":0}","[0]","survey-likert","206","482762","0.0-206.0","ra8t9q98","","","","","","","","0"
"1376.0900000000256","{""confidence"":2}","[0]","survey-likert","207","484139","0.0-207.0","ra8t9q98","","","","","","","",""
"","","","call-function","208","484140","0.0-208.0","ra8t9q98","","","","","","","",""
"null","","","html-keyboard-response","209","485642","0.0-209.0","ra8t9q98","","<span style=""color:Black; font-size:50px;"">Agent A","null","","","","",""
"null","","","video-keyboard-response","210","488500","0.0-210.0","ra8t9q98","","","null","","Agent A","scrambled","FOR_REV_MAP_BLOBBY_STIM/713381.bmp_pp82_L2_V1.0_veridical_freeview_isoTrue_fps144_reversed_REAL.mp4",""
"null","","","html-keyboard-response","211","490004","0.0-211.0","ra8t9q98","","<span style=""color:Black; font-size:50px;"">Agent B","null","","","","",""
"null","","","video-keyboard-response","212","492853","0.0-212.0","ra8t9q98","","","null","","Agent B","veridical","FOR_REV_MAP_BLOBBY_STIM/713381.bmp_pp82_L2_V1.0_veridical_freeview_isoTrue_fps144.mp4",""
"","","","call-function","213","492853","0.0-213.0","ra8t9q98","","","","","","","",""
"1354.5449999999837","{""judgement"":1}","[0]","survey-likert","214","494209","0.0-214.0","ra8t9q98","","","","","","","","1"
"2267.3399999999674","{""confidence"":2}","[0]","survey-likert","215","496477","0.0-215.0","ra8t9q98","","","","","","","",""
"","","","call-function","216","496478","0.0-216.0","ra8t9q98","","","","","","","",""
"null","","","html-keyboard-response","217","497978","0.0-217.0","ra8t9q98","","<span style=""color:Black; font-size:50px;"">Agent A","null","","","","",""
"null","","","video-keyboard-response","218","500676","0.0-218.0","ra8t9q98","","","null","","Agent A","scrambled","FOR_REV_MAP_BLOBBY_STIM/713788.bmp_pp52_L1_V1.0_veridical_freeview_isoTrue_fps144_reversed_REAL.mp4",""
"null","","","html-keyboard-response","219","502180","0.0-219.0","ra8t9q98","","<span style=""color:Black; font-size:50px;"">Agent B","null","","","","",""
"null","","","video-keyboard-response","220","504878","0.0-220.0","ra8t9q98","","","null","","Agent B","veridical","FOR_REV_MAP_BLOBBY_STIM/713788.bmp_pp52_L1_V1.0_veridical_freeview_isoTrue_fps144.mp4",""
"","","","call-function","221","504878","0.0-221.0","ra8t9q98","","","","","","","",""
"2070.5500000000466","{""judgement"":0}","[0]","survey-likert","222","506950","0.0-222.0","ra8t9q98","","","","","","","","1"
"1048.1800000000512","{""confidence"":2}","[0]","survey-likert","223","507999","0.0-223.0","ra8t9q98","","","","","","","",""
"","","","call-function","224","507999","0.0-224.0","ra8t9q98","","","","","","","",""
"null","","","html-keyboard-response","225","509503","0.0-225.0","ra8t9q98","","<span style=""color:Black; font-size:50px;"">Agent A","null","","","","",""
"null","","","video-keyboard-response","226","512255","0.0-226.0","ra8t9q98","","","null","","Agent A","scrambled","FOR_REV_MAP_BLOBBY_STIM/285959.bmp_pp93_L1_V1.0_veridical_freeview_isoTrue_fps144_reversed_REAL.mp4",""
"null","","","html-keyboard-response","227","513760","0.0-227.0","ra8t9q98","","<span style=""color:Black; font-size:50px;"">Agent B","null","","","","",""
"null","","","video-keyboard-response","228","516490","0.0-228.0","ra8t9q98","","","null","","Agent B","veridical","FOR_REV_MAP_BLOBBY_STIM/285959.bmp_pp93_L1_V1.0_veridical_freeview_isoTrue_fps144.mp4",""
"","","","call-function","229","516491","0.0-229.0","ra8t9q98","","","","","","","",""
"1296.0049999999464","{""judgement"":1}","[0]","survey-likert","230","517788","0.0-230.0","ra8t9q98","","","","","","","","1"
"1760.1199999999953","{""confidence"":0}","[0]","survey-likert","231","519550","0.0-231.0","ra8t9q98","","","","","","","",""
"","","","call-function","232","519551","0.0-232.0","ra8t9q98","","","","","","","",""
"null","","","html-keyboard-response","233","521055","0.0-233.0","ra8t9q98","","<span style=""color:Black; font-size:50px;"">Agent A","null","","","","",""
"null","","","video-keyboard-response","234","523836","0.0-234.0","ra8t9q98","","","null","","Agent A","scrambled","FOR_REV_MAP_BLOBBY_STIM/1592044.bmp_pp94_L2_V1.0_veridical_freeview_isoTrue_fps144_reversed_REAL.mp4",""
"null","","","html-keyboard-response","235","525338","0.0-235.0","ra8t9q98","","<span style=""color:Black; font-size:50px;"">Agent B","null","","","","",""
"null","","","video-keyboard-response","236","528104","0.0-236.0","ra8t9q98","","","null","","Agent B","veridical","FOR_REV_MAP_BLOBBY_STIM/1592044.bmp_pp94_L2_V1.0_veridical_freeview_isoTrue_fps144.mp4",""
"","","","call-function","237","528104","0.0-237.0","ra8t9q98","","","","","","","",""
"2611.7750000000233","{""judgement"":0}","[0]","survey-likert","238","530717","0.0-238.0","ra8t9q98","","","","","","","","1"
"1315.8300000000745","{""confidence"":1}","[0]","survey-likert","239","532034","0.0-239.0","ra8t9q98","","","","","","","",""
"","","","call-function","240","532034","0.0-240.0","ra8t9q98","","","","","","","",""
"null","","","html-keyboard-response","241","533540","0.0-241.0","ra8t9q98","","<span style=""color:Black; font-size:50px;"">Agent A","null","","","","",""
"null","","","video-keyboard-response","242","536388","0.0-242.0","ra8t9q98","","","null","","Agent A","scrambled","FOR_REV_MAP_BLOBBY_STIM/713742.bmp_pp91_L3_V1.0_veridical_freeview_isoTrue_fps144_reversed_REAL.mp4",""
"null","","","html-keyboard-response","243","537893","0.0-243.0","ra8t9q98","","<span style=""color:Black; font-size:50px;"">Agent B","null","","","","",""
"null","","","video-keyboard-response","244","540730","0.0-244.0","ra8t9q98","","","null","","Agent B","veridical","FOR_REV_MAP_BLOBBY_STIM/713742.bmp_pp91_L3_V1.0_veridical_freeview_isoTrue_fps144.mp4",""
"","","","call-function","245","540731","0.0-245.0","ra8t9q98","","","","","","","",""
"1196.3950000000186","{""judgement"":1}","[0]","survey-likert","246","541928","0.0-246.0","ra8t9q98","","","","","","","","1"
"1592.9100000000326","{""confidence"":2}","[0]","survey-likert","247","543522","0.0-247.0","ra8t9q98","","","","","","","",""
"","","","call-function","248","543522","0.0-248.0","ra8t9q98","","","","","","","",""
"null","","","html-keyboard-response","249","545023","0.0-249.0","ra8t9q98","","<span style=""color:Black; font-size:50px;"">Agent A","null","","","","",""
"null","","","video-keyboard-response","250","547780","0.0-250.0","ra8t9q98","","","null","","Agent A","scrambled","FOR_REV_MAP_BLOBBY_STIM/1159819.bmp_pp151_L1_V1.0_veridical_freeview_isoTrue_fps144_reversed_REAL.mp4",""
"null","","","html-keyboard-response","251","549285","0.0-251.0","ra8t9q98","","<span style=""color:Black; font-size:50px;"">Agent B","null","","","","",""
"null","","","video-keyboard-response","252","552047","0.0-252.0","ra8t9q98","","","null","","Agent B","veridical","FOR_REV_MAP_BLOBBY_STIM/1159819.bmp_pp151_L1_V1.0_veridical_freeview_isoTrue_fps144.mp4",""
"","","","call-function","253","552047","0.0-253.0","ra8t9q98","","","","","","","",""
"1131.609999999986","{""judgement"":1}","[0]","survey-likert","254","553180","0.0-254.0","ra8t9q98","","","","","","","","1"
"941.9649999999674","{""confidence"":1}","[0]","survey-likert","255","554123","0.0-255.0","ra8t9q98","","","","","","","",""
"2044.625","","","instructions","256","556168","0.0-256.0","ra8t9q98","[{""page_index"":0,""viewing_time"":1045.4500000000698},{""page_index"":1,""viewing_time"":590.0050000000047},{""page_index"":2,""viewing_time"":408.96999999997206}]","","","","","","",""
"1807.9400000000605","","","instructions","257","557976","0.0-257.0","ra8t9q98","[{""page_index"":0,""viewing_time"":352.5600000000559},{""page_index"":1,""viewing_time"":957.9599999999627},{""page_index"":2,""viewing_time"":497.3100000000559}]","","","","","","",""
"","","","call-function","258","557977","0.0-258.0","ra8t9q98","","","","","","","",""
"null","","","html-keyboard-response","259","559483","0.0-259.0","ra8t9q98","","<span style=""color:Black; font-size:50px;"">Agent A","null","","","","",""
"null","","","video-keyboard-response","260","562216","0.0-260.0","ra8t9q98","","","null","","Agent A","veridical","FOR_REV_MAP_BLOBBY_STIM/1159592.bmp_pp91_L3_V1.0_veridical_freeview_isoTrue_fps144.mp4",""
"null","","","html-keyboard-response","261","563721","0.0-261.0","ra8t9q98","","<span style=""color:Black; font-size:50px;"">Agent B","null","","","","",""
"null","","","video-keyboard-response","262","566463","0.0-262.0","ra8t9q98","","","null","","Agent B","scrambled","FOR_REV_MAP_BLOBBY_STIM/1159592.bmp_pp91_L3_V1.0_veridical_freeview_isoTrue_fps144_reversed_REAL.mp4",""
"","","","call-function","263","566463","0.0-263.0","ra8t9q98","","","","","","","",""
"1220.5100000000093","{""judgement"":0}","[0]","survey-likert","264","567685","0.0-264.0","ra8t9q98","","","","","","","","0"
"1333.9449999999488","{""confidence"":2}","[0]","survey-likert","265","569020","0.0-265.0","ra8t9q98","","","","","","","",""
"","","","call-function","266","569021","0.0-266.0","ra8t9q98","","","","","","","",""
"null","","","html-keyboard-response","267","570522","0.0-267.0","ra8t9q98","","<span style=""color:Black; font-size:50px;"">Agent A","null","","","","",""
"null","","","video-keyboard-response","268","573306","0.0-268.0","ra8t9q98","","","null","","Agent A","veridical","FOR_REV_MAP_BLOBBY_STIM/713328.bmp_pp86_L2_V1.0_veridical_freeview_isoTrue_fps144.mp4",""
"null","","","html-keyboard-response","269","574809","0.0-269.0","ra8t9q98","","<span style=""color:Black; font-size:50px;"">Agent B","null","","","","",""
"null","","","video-keyboard-response","270","577574","0.0-270.0","ra8t9q98","","","null","","Agent B","scrambled","FOR_REV_MAP_BLOBBY_STIM/713328.bmp_pp86_L2_V1.0_veridical_freeview_isoTrue_fps144_reversed_REAL.mp4",""
"","","","call-function","271","577574","0.0-271.0","ra8t9q98","","","","","","","",""
"1462.8800000000047","{""judgement"":0}","[0]","survey-likert","272","579038","0.0-272.0","ra8t9q98","","","","","","","","0"
"2111.5999999999767","{""confidence"":1}","[0]","survey-likert","273","581151","0.0-273.0","ra8t9q98","","","","","","","",""
"","","","call-function","274","581151","0.0-274.0","ra8t9q98","","","","","","","",""
"null","","","html-keyboard-response","275","582655","0.0-275.0","ra8t9q98","","<span style=""color:Black; font-size:50px;"">Agent A","null","","","","",""
"null","","","video-keyboard-response","276","585495","0.0-276.0","ra8t9q98","","","null","","Agent A","scrambled","FOR_REV_MAP_BLOBBY_STIM/107955.bmp_pp90_L2_V1.0_veridical_freeview_isoTrue_fps144_reversed_REAL.mp4",""
"null","","","html-keyboard-response","277","586997","0.0-277.0","ra8t9q98","","<span style=""color:Black; font-size:50px;"">Agent B","null","","","","",""
"null","","","video-keyboard-response","278","589827","0.0-278.0","ra8t9q98","","","null","","Agent B","veridical","FOR_REV_MAP_BLOBBY_STIM/107955.bmp_pp90_L2_V1.0_veridical_freeview_isoTrue_fps144.mp4",""
"","","","call-function","279","589827","0.0-279.0","ra8t9q98","","","","","","","",""
"1485.4250000000466","{""judgement"":0}","[0]","survey-likert","280","591314","0.0-280.0","ra8t9q98","","","","","","","","1"
"1693.3300000000745","{""confidence"":1}","[0]","survey-likert","281","593008","0.0-281.0","ra8t9q98","","","","","","","",""
"","","","call-function","282","593009","0.0-282.0","ra8t9q98","","","","","","","",""
"null","","","html-keyboard-response","283","594511","0.0-283.0","ra8t9q98","","<span style=""color:Black; font-size:50px;"">Agent A","null","","","","",""
"null","","","video-keyboard-response","284","596602","0.0-284.0","ra8t9q98","","","null","","Agent A","veridical","FOR_REV_MAP_BLOBBY_STIM/1159973.bmp_pp98_L1_V1.0_veridical_freeview_isoTrue_fps144.mp4",""
"null","","","html-keyboard-response","285","598106","0.0-285.0","ra8t9q98","","<span style=""color:Black; font-size:50px;"">Agent B","null","","","","",""
"null","","","video-keyboard-response","286","600196","0.0-286.0","ra8t9q98","","","null","","Agent B","scrambled","FOR_REV_MAP_BLOBBY_STIM/1159973.bmp_pp98_L1_V1.0_veridical_freeview_isoTrue_fps144_reversed_REAL.mp4",""
"","","","call-function","287","600197","0.0-287.0","ra8t9q98","","","","","","","",""
"1892.6750000000466","{""judgement"":1}","[0]","survey-likert","288","602090","0.0-288.0","ra8t9q98","","","","","","","","0"
"950.2800000000279","{""confidence"":2}","[0]","survey-likert","289","603042","0.0-289.0","ra8t9q98","","","","","","","",""
"","","","call-function","290","603042","0.0-290.0","ra8t9q98","","","","","","","",""
"null","","","html-keyboard-response","291","604546","0.0-291.0","ra8t9q98","","<span style=""color:Black; font-size:50px;"">Agent A","null","","","","",""
"null","","","video-keyboard-response","292","607237","0.0-292.0","ra8t9q98","","","null","","Agent A","veridical","FOR_REV_MAP_BLOBBY_STIM/61513.bmp_pp75_L1_V1.0_veridical_freeview_isoTrue_fps144.mp4",""
"null","","","html-keyboard-response","293","608741","0.0-293.0","ra8t9q98","","<span style=""color:Black; font-size:50px;"">Agent B","null","","","","",""
"null","","","video-keyboard-response","294","611421","0.0-294.0","ra8t9q98","","","null","","Agent B","scrambled","FOR_REV_MAP_BLOBBY_STIM/61513.bmp_pp75_L1_V1.0_veridical_freeview_isoTrue_fps144_reversed_REAL.mp4",""
"","","","call-function","295","611422","0.0-295.0","ra8t9q98","","","","","","","",""
"1512.25","{""judgement"":0}","[0]","survey-likert","296","612935","0.0-296.0","ra8t9q98","","","","","","","","0"
"1331.8150000000605","{""confidence"":0}","[0]","survey-likert","297","614267","0.0-297.0","ra8t9q98","","","","","","","",""
"","","","call-function","298","614268","0.0-298.0","ra8t9q98","","","","","","","",""
"null","","","html-keyboard-response","299","615770","0.0-299.0","ra8t9q98","","<span style=""color:Black; font-size:50px;"">Agent A","null","","","","",""
"null","","","video-keyboard-response","300","618578","0.0-300.0","ra8t9q98","","","null","","Agent A","veridical","FOR_REV_MAP_BLOBBY_STIM/1592047.bmp_pp51_L1_V1.0_veridical_freeview_isoTrue_fps144.mp4",""
"null","","","html-keyboard-response","301","620079","0.0-301.0","ra8t9q98","","<span style=""color:Black; font-size:50px;"">Agent B","null","","","","",""
"null","","","video-keyboard-response","302","622866","0.0-302.0","ra8t9q98","","","null","","Agent B","scrambled","FOR_REV_MAP_BLOBBY_STIM/1592047.bmp_pp51_L1_V1.0_veridical_freeview_isoTrue_fps144_reversed_REAL.mp4",""
"","","","call-function","303","622866","0.0-303.0","ra8t9q98","","","","","","","",""
"1350.75","{""judgement"":1}","[0]","survey-likert","304","624218","0.0-304.0","ra8t9q98","","","","","","","","0"
"1085.1299999998882","{""confidence"":2}","[0]","survey-likert","305","625304","0.0-305.0","ra8t9q98","","","","","","","",""
"","","","call-function","306","625305","0.0-306.0","ra8t9q98","","","","","","","",""
"null","","","html-keyboard-response","307","626809","0.0-307.0","ra8t9q98","","<span style=""color:Black; font-size:50px;"">Agent A","null","","","","",""
"null","","","video-keyboard-response","308","629636","0.0-308.0","ra8t9q98","","","null","","Agent A","veridical","FOR_REV_MAP_BLOBBY_STIM/713652.bmp_pp89_L1_V1.0_veridical_freeview_isoTrue_fps144.mp4",""
"null","","","html-keyboard-response","309","631139","0.0-309.0","ra8t9q98","","<span style=""color:Black; font-size:50px;"">Agent B","null","","","","",""
"null","","","video-keyboard-response","310","633951","0.0-310.0","ra8t9q98","","","null","","Agent B","scrambled","FOR_REV_MAP_BLOBBY_STIM/713652.bmp_pp89_L1_V1.0_veridical_freeview_isoTrue_fps144_reversed_REAL.mp4",""
"","","","call-function","311","633953","0.0-311.0","ra8t9q98","","","","","","","",""
"2799.1350000000093","{""judgement"":0}","[0]","survey-likert","312","636754","0.0-312.0","ra8t9q98","","","","","","","","0"
"1225.375","{""confidence"":0}","[0]","survey-likert","313","637980","0.0-313.0","ra8t9q98","","","","","","","",""
"","","","call-function","314","637981","0.0-314.0","ra8t9q98","","","","","","","",""
"null","","","html-keyboard-response","315","639482","0.0-315.0","ra8t9q98","","<span style=""color:Black; font-size:50px;"">Agent A","null","","","","",""
"null","","","video-keyboard-response","316","642254","0.0-316.0","ra8t9q98","","","null","","Agent A","scrambled","FOR_REV_MAP_BLOBBY_STIM/150277.bmp_pp65_L3_V1.0_veridical_freeview_isoTrue_fps144_reversed_REAL.mp4",""
"null","","","html-keyboard-response","317","643758","0.0-317.0","ra8t9q98","","<span style=""color:Black; font-size:50px;"">Agent B","null","","","","",""
"null","","","video-keyboard-response","318","646523","0.0-318.0","ra8t9q98","","","null","","Agent B","veridical","FOR_REV_MAP_BLOBBY_STIM/150277.bmp_pp65_L3_V1.0_veridical_freeview_isoTrue_fps144.mp4",""
"","","","call-function","319","646525","0.0-319.0","ra8t9q98","","","","","","","",""
"2473.2299999999814","{""judgement"":1}","[0]","survey-likert","320","648999","0.0-320.0","ra8t9q98","","","","","","","","1"
"1945.0850000000792","{""confidence"":1}","[0]","survey-likert","321","650945","0.0-321.0","ra8t9q98","","","","","","","",""
"","","","call-function","322","650946","0.0-322.0","ra8t9q98","","","","","","","",""
"null","","","html-keyboard-response","323","652447","0.0-323.0","ra8t9q98","","<span style=""color:Black; font-size:50px;"">Agent A","null","","","","",""
"null","","","video-keyboard-response","324","655335","0.0-324.0","ra8t9q98","","","null","","Agent A","veridical","FOR_REV_MAP_BLOBBY_STIM/1159508.bmp_pp151_L1_V1.0_veridical_freeview_isoTrue_fps144.mp4",""
"null","","","html-keyboard-response","325","656837","0.0-325.0","ra8t9q98","","<span style=""color:Black; font-size:50px;"">Agent B","null","","","","",""
"null","","","video-keyboard-response","326","659663","0.0-326.0","ra8t9q98","","","null","","Agent B","scrambled","FOR_REV_MAP_BLOBBY_STIM/1159508.bmp_pp151_L1_V1.0_veridical_freeview_isoTrue_fps144_reversed_REAL.mp4",""
"","","","call-function","327","659664","0.0-327.0","ra8t9q98","","","","","","","",""
"2164.4499999999534","{""judgement"":0}","[0]","survey-likert","328","661829","0.0-328.0","ra8t9q98","","","","","","","","0"
"2104.9749999999767","{""confidence"":2}","[0]","survey-likert","329","663935","0.0-329.0","ra8t9q98","","","","","","","",""
"","","","call-function","330","663936","0.0-330.0","ra8t9q98","","","","","","","",""
"null","","","html-keyboard-response","331","665441","0.0-331.0","ra8t9q98","","<span style=""color:Black; font-size:50px;"">Agent A","null","","","","",""
"null","","","video-keyboard-response","332","668228","0.0-332.0","ra8t9q98","","","null","","Agent A","scrambled","FOR_REV_MAP_BLOBBY_STIM/285684.bmp_pp80_L3_V1.0_veridical_freeview_isoTrue_fps144_reversed_REAL.mp4",""
"null","","","html-keyboard-response","333","669733","0.0-333.0","ra8t9q98","","<span style=""color:Black; font-size:50px;"">Agent B","null","","","","",""
"null","","","video-keyboard-response","334","672516","0.0-334.0","ra8t9q98","","","null","","Agent B","veridical","FOR_REV_MAP_BLOBBY_STIM/285684.bmp_pp80_L3_V1.0_veridical_freeview_isoTrue_fps144.mp4",""
"","","","call-function","335","672517","0.0-335.0","ra8t9q98","","","","","","","",""
"1334.155000000028","{""judgement"":0}","[0]","survey-likert","336","673852","0.0-336.0","ra8t9q98","","","","","","","","1"
"2208.2149999999674","{""confidence"":2}","[0]","survey-likert","337","676061","0.0-337.0","ra8t9q98","","","","","","","",""
"4246.959999999963","","","instructions","338","680308","0.0-338.0","ra8t9q98","[{""page_index"":0,""viewing_time"":1839.6699999999255},{""page_index"":1,""viewing_time"":2005.045000000042},{""page_index"":2,""viewing_time"":401.9300000000512}]","","","","","","",""
"1109.4250000000466","","","instructions","339","681418","0.0-339.0","ra8t9q98","[{""page_index"":0,""viewing_time"":401.3100000000559},{""page_index"":1,""viewing_time"":350.96999999997206},{""page_index"":2,""viewing_time"":357.04000000003725}]","","","","","","",""
"","","","call-function","340","681419","0.0-340.0","ra8t9q98","","","","","","","",""
"null","","","html-keyboard-response","341","682921","0.0-341.0","ra8t9q98","","<span style=""color:Black; font-size:50px;"">Agent A","null","","","","",""
"null","","","video-keyboard-response","342","685861","0.0-342.0","ra8t9q98","","","null","","Agent A","scrambled","FOR_REV_MAP_BLOBBY_STIM/498025.bmp_pp81_L1_V1.0_veridical_freeview_isoTrue_fps144_reversed_REAL.mp4",""
"null","","","html-keyboard-response","343","687365","0.0-343.0","ra8t9q98","","<span style=""color:Black; font-size:50px;"">Agent B","null","","","","",""
"null","","","video-keyboard-response","344","690300","0.0-344.0","ra8t9q98","","","null","","Agent B","veridical","FOR_REV_MAP_BLOBBY_STIM/498025.bmp_pp81_L1_V1.0_veridical_freeview_isoTrue_fps144.mp4",""
"","","","call-function","345","690300","0.0-345.0","ra8t9q98","","","","","","","",""
"1241.1750000000466","{""judgement"":0}","[0]","survey-likert","346","691543","0.0-346.0","ra8t9q98","","","","","","","","1"
"1571.0800000000745","{""confidence"":1}","[0]","survey-likert","347","693115","0.0-347.0","ra8t9q98","","","","","","","",""
"","","","call-function","348","693115","0.0-348.0","ra8t9q98","","","","","","","",""
"null","","","html-keyboard-response","349","694618","0.0-349.0","ra8t9q98","","<span style=""color:Black; font-size:50px;"">Agent A","null","","","","",""
"null","","","video-keyboard-response","350","697462","0.0-350.0","ra8t9q98","","","null","","Agent A","scrambled","FOR_REV_MAP_BLOBBY_STIM/1592857.bmp_pp52_L1_V1.0_veridical_freeview_isoTrue_fps144_reversed_REAL.mp4",""
"null","","","html-keyboard-response","351","698964","0.0-351.0","ra8t9q98","","<span style=""color:Black; font-size:50px;"">Agent B","null","","","","",""
"null","","","video-keyboard-response","352","701803","0.0-352.0","ra8t9q98","","","null","","Agent B","veridical","FOR_REV_MAP_BLOBBY_STIM/1592857.bmp_pp52_L1_V1.0_veridical_freeview_isoTrue_fps144.mp4",""
"","","","call-function","353","701804","0.0-353.0","ra8t9q98","","","","","","","",""
"1364.204999999958","{""judgement"":0}","[0]","survey-likert","354","703169","0.0-354.0","ra8t9q98","","","","","","","","1"
"926.3099999999395","{""confidence"":2}","[0]","survey-likert","355","704096","0.0-355.0","ra8t9q98","","","","","","","",""
"","","","call-function","356","704097","0.0-356.0","ra8t9q98","","","","","","","",""
"null","","","html-keyboard-response","357","705600","0.0-357.0","ra8t9q98","","<span style=""color:Black; font-size:50px;"">Agent A","null","","","","",""
"null","","","video-keyboard-response","358","708315","0.0-358.0","ra8t9q98","","","null","","Agent A","scrambled","FOR_REV_MAP_BLOBBY_STIM/713858.bmp_pp57_L1_V1.0_veridical_freeview_isoTrue_fps144_reversed_REAL.mp4",""
"null","","","html-keyboard-response","359","709820","0.0-359.0","ra8t9q98","","<span style=""color:Black; font-size:50px;"">Agent B","null","","","","",""
"null","","","video-keyboard-response","360","712527","0.0-360.0","ra8t9q98","","","null","","Agent B","veridical","FOR_REV_MAP_BLOBBY_STIM/713858.bmp_pp57_L1_V1.0_veridical_freeview_isoTrue_fps144.mp4",""
"","","","call-function","361","712528","0.0-361.0","ra8t9q98","","","","","","","",""
"1225.8549999999814","{""judgement"":0}","[0]","survey-likert","362","713755","0.0-362.0","ra8t9q98","","","","","","","","1"
"2054.2249999999767","{""confidence"":0}","[0]","survey-likert","363","715810","0.0-363.0","ra8t9q98","","","","","","","",""
"","","","call-function","364","715810","0.0-364.0","ra8t9q98","","","","","","","",""
"null","","","html-keyboard-response","365","717315","0.0-365.0","ra8t9q98","","<span style=""color:Black; font-size:50px;"">Agent A","null","","","","",""
"null","","","video-keyboard-response","366","719919","0.0-366.0","ra8t9q98","","","null","","Agent A","scrambled","FOR_REV_MAP_BLOBBY_STIM/713633.bmp_pp58_L1_V1.0_veridical_freeview_isoTrue_fps144_reversed_REAL.mp4",""
"null","","","html-keyboard-response","367","721422","0.0-367.0","ra8t9q98","","<span style=""color:Black; font-size:50px;"">Agent B","null","","","","",""
"null","","","video-keyboard-response","368","724011","0.0-368.0","ra8t9q98","","","null","","Agent B","veridical","FOR_REV_MAP_BLOBBY_STIM/713633.bmp_pp58_L1_V1.0_veridical_freeview_isoTrue_fps144.mp4",""
"","","","call-function","369","724012","0.0-369.0","ra8t9q98","","","","","","","",""
"1749.2550000000047","{""judgement"":0}","[0]","survey-likert","370","725762","0.0-370.0","ra8t9q98","","","","","","","","1"
"1678.2600000000093","{""confidence"":1}","[0]","survey-likert","371","727441","0.0-371.0","ra8t9q98","","","","","","","",""
"","","","call-function","372","727442","0.0-372.0","ra8t9q98","","","","","","","",""
"null","","","html-keyboard-response","373","728944","0.0-373.0","ra8t9q98","","<span style=""color:Black; font-size:50px;"">Agent A","null","","","","",""
"null","","","video-keyboard-response","374","731786","0.0-374.0","ra8t9q98","","","null","","Agent A","scrambled","FOR_REV_MAP_BLOBBY_STIM/1160204.bmp_pp54_L2_V1.0_veridical_freeview_isoTrue_fps144_reversed_REAL.mp4",""
"null","","","html-keyboard-response","375","733293","0.0-375.0","ra8t9q98","","<span style=""color:Black; font-size:50px;"">Agent B","null","","","","",""
"null","","","video-keyboard-response","376","736143","0.0-376.0","ra8t9q98","","","null","","Agent B","veridical","FOR_REV_MAP_BLOBBY_STIM/1160204.bmp_pp54_L2_V1.0_veridical_freeview_isoTrue_fps144.mp4",""
"","","","call-function","377","736143","0.0-377.0","ra8t9q98","","","","","","","",""
"1657.1399999998976","{""judgement"":1}","[0]","survey-likert","378","737802","0.0-378.0","ra8t9q98","","","","","","","","1"
"1265.6799999999348","{""confidence"":2}","[0]","survey-likert","379","739068","0.0-379.0","ra8t9q98","","","","","","","",""
"","","","call-function","380","739069","0.0-380.0","ra8t9q98","","","","","","","",""
"null","","","html-keyboard-response","381","740570","0.0-381.0","ra8t9q98","","<span style=""color:Black; font-size:50px;"">Agent A","null","","","","",""
"null","","","video-keyboard-response","382","743279","0.0-382.0","ra8t9q98","","","null","","Agent A","scrambled","FOR_REV_MAP_BLOBBY_STIM/1592038.bmp_pp79_L2_V1.0_veridical_freeview_isoTrue_fps144_reversed_REAL.mp4",""
"null","","","html-keyboard-response","383","744784","0.0-383.0","ra8t9q98","","<span style=""color:Black; font-size:50px;"">Agent B","null","","","","",""
"null","","","video-keyboard-response","384","747493","0.0-384.0","ra8t9q98","","","null","","Agent B","veridical","FOR_REV_MAP_BLOBBY_STIM/1592038.bmp_pp79_L2_V1.0_veridical_freeview_isoTrue_fps144.mp4",""
"","","","call-function","385","747493","0.0-385.0","ra8t9q98","","","","","","","",""
"1572.9550000000745","{""judgement"":1}","[0]","survey-likert","386","749067","0.0-386.0","ra8t9q98","","","","","","","","1"
"1211.1500000000233","{""confidence"":0}","[0]","survey-likert","387","750279","0.0-387.0","ra8t9q98","","","","","","","",""
"","","","call-function","388","750279","0.0-388.0","ra8t9q98","","","","","","","",""
"null","","","html-keyboard-response","389","751781","0.0-389.0","ra8t9q98","","<span style=""color:Black; font-size:50px;"">Agent A","null","","","","",""
"null","","","video-keyboard-response","390","753687","0.0-390.0","ra8t9q98","","","null","","Agent A","scrambled","FOR_REV_MAP_BLOBBY_STIM/285946.bmp_pp79_L2_V1.0_veridical_freeview_isoTrue_fps144_reversed_REAL.mp4",""
"null","","","html-keyboard-response","391","755194","0.0-391.0","ra8t9q98","","<span style=""color:Black; font-size:50px;"">Agent B","null","","","","",""
"null","","","video-keyboard-response","392","757086","0.0-392.0","ra8t9q98","","","null","","Agent B","veridical","FOR_REV_MAP_BLOBBY_STIM/285946.bmp_pp79_L2_V1.0_veridical_freeview_isoTrue_fps144.mp4",""
"","","","call-function","393","757087","0.0-393.0","ra8t9q98","","","","","","","",""
"2610.1049999999814","{""judgement"":0}","[0]","survey-likert","394","759698","0.0-394.0","ra8t9q98","","","","","","","","1"
"1857.234999999986","{""confidence"":0}","[0]","survey-likert","395","761556","0.0-395.0","ra8t9q98","","","","","","","",""
"","","","call-function","396","761557","0.0-396.0","ra8t9q98","","","","","","","",""
"null","","","html-keyboard-response","397","763059","0.0-397.0","ra8t9q98","","<span style=""color:Black; font-size:50px;"">Agent A","null","","","","",""
"null","","","video-keyboard-response","398","765853","0.0-398.0","ra8t9q98","","","null","","Agent A","veridical","FOR_REV_MAP_BLOBBY_STIM/286034.bmp_pp69_L3_V1.0_veridical_freeview_isoTrue_fps144.mp4",""
"null","","","html-keyboard-response","399","767355","0.0-399.0","ra8t9q98","","<span style=""color:Black; font-size:50px;"">Agent B","null","","","","",""
"null","","","video-keyboard-response","400","770151","0.0-400.0","ra8t9q98","","","null","","Agent B","scrambled","FOR_REV_MAP_BLOBBY_STIM/286034.bmp_pp69_L3_V1.0_veridical_freeview_isoTrue_fps144_reversed_REAL.mp4",""
"","","","call-function","401","770152","0.0-401.0","ra8t9q98","","","","","","","",""
"1609.1799999999348","{""judgement"":0}","[0]","survey-likert","402","771763","0.0-402.0","ra8t9q98","","","","","","","","0"
"1428.8399999999674","{""confidence"":1}","[0]","survey-likert","403","773194","0.0-403.0","ra8t9q98","","","","","","","",""
"","","","call-function","404","773194","0.0-404.0","ra8t9q98","","","","","","","",""
"null","","","html-keyboard-response","405","774701","0.0-405.0","ra8t9q98","","<span style=""color:Black; font-size:50px;"">Agent A","null","","","","",""
"null","","","video-keyboard-response","406","777512","0.0-406.0","ra8t9q98","","","null","","Agent A","veridical","FOR_REV_MAP_BLOBBY_STIM/713689.bmp_pp153_L3_V1.0_veridical_freeview_isoTrue_fps144.mp4",""
"null","","","html-keyboard-response","407","779019","0.0-407.0","ra8t9q98","","<span style=""color:Black; font-size:50px;"">Agent B","null","","","","",""
"null","","","video-keyboard-response","408","781823","0.0-408.0","ra8t9q98","","","null","","Agent B","scrambled","FOR_REV_MAP_BLOBBY_STIM/713689.bmp_pp153_L3_V1.0_veridical_freeview_isoTrue_fps144_reversed_REAL.mp4",""
"","","","call-function","409","781824","0.0-409.0","ra8t9q98","","","","","","","",""
"1347.1199999999953","{""judgement"":0}","[0]","survey-likert","410","783173","0.0-410.0","ra8t9q98","","","","","","","","0"
"1249.2850000000326","{""confidence"":2}","[0]","survey-likert","411","784423","0.0-411.0","ra8t9q98","","","","","","","",""
"","","","call-function","412","784424","0.0-412.0","ra8t9q98","","","","","","","",""
"null","","","html-keyboard-response","413","785925","0.0-413.0","ra8t9q98","","<span style=""color:Black; font-size:50px;"">Agent A","null","","","","",""
"null","","","video-keyboard-response","414","788775","0.0-414.0","ra8t9q98","","","null","","Agent A","scrambled","FOR_REV_MAP_BLOBBY_STIM/498261.bmp_pp84_L3_V1.0_veridical_freeview_isoTrue_fps144_reversed_REAL.mp4",""
"null","","","html-keyboard-response","415","790277","0.0-415.0","ra8t9q98","","<span style=""color:Black; font-size:50px;"">Agent B","null","","","","",""
"null","","","video-keyboard-response","416","793123","0.0-416.0","ra8t9q98","","","null","","Agent B","veridical","FOR_REV_MAP_BLOBBY_STIM/498261.bmp_pp84_L3_V1.0_veridical_freeview_isoTrue_fps144.mp4",""
"","","","call-function","417","793124","0.0-417.0","ra8t9q98","","","","","","","",""
"1131.6950000000652","{""judgement"":1}","[0]","survey-likert","418","794257","0.0-418.0","ra8t9q98","","","","","","","","1"
"1865.4899999999907","{""confidence"":1}","[0]","survey-likert","419","796124","0.0-419.0","ra8t9q98","","","","","","","",""
"1733.5650000000605","","","instructions","420","797858","0.0-420.0","ra8t9q98","[{""page_index"":0,""viewing_time"":1370.2250000000931},{""page_index"":1,""viewing_time"":177.0899999999674},{""page_index"":2,""viewing_time"":186.02500000002328}]","","","","","","",""
"1071.9949999999953","","","instructions","421","798930","0.0-421.0","ra8t9q98","[{""page_index"":0,""viewing_time"":237.90500000002794},{""page_index"":1,""viewing_time"":424.07499999995343},{""page_index"":2,""viewing_time"":409.91500000003725}]","","","","","","",""
"","","","call-function","422","798931","0.0-422.0","ra8t9q98","","","","","","","",""
"null","","","html-keyboard-response","423","800435","0.0-423.0","ra8t9q98","","<span style=""color:Black; font-size:50px;"">Agent A","null","","","","",""
"null","","","video-keyboard-response","424","803227","0.0-424.0","ra8t9q98","","","null","","Agent A","scrambled","FOR_REV_MAP_BLOBBY_STIM/1159860.bmp_pp152_L2_V1.0_veridical_freeview_isoTrue_fps144_reversed_REAL.mp4",""
"null","","","html-keyboard-response","425","804729","0.0-425.0","ra8t9q98","","<span style=""color:Black; font-size:50px;"">Agent B","null","","","","",""
"null","","","video-keyboard-response","426","807589","0.0-426.0","ra8t9q98","","","null","","Agent B","veridical","FOR_REV_MAP_BLOBBY_STIM/1159860.bmp_pp152_L2_V1.0_veridical_freeview_isoTrue_fps144.mp4",""
"","","","call-function","427","807589","0.0-427.0","ra8t9q98","","","","","","","",""
"1425.094999999972","{""judgement"":0}","[0]","survey-likert","428","809015","0.0-428.0","ra8t9q98","","","","","","","","1"
"1759.1600000000326","{""confidence"":1}","[0]","survey-likert","429","810775","0.0-429.0","ra8t9q98","","","","","","","",""
"","","","call-function","430","810776","0.0-430.0","ra8t9q98","","","","","","","",""
"null","","","html-keyboard-response","431","812282","0.0-431.0","ra8t9q98","","<span style=""color:Black; font-size:50px;"">Agent A","null","","","","",""
"null","","","video-keyboard-response","432","815110","0.0-432.0","ra8t9q98","","","null","","Agent A","scrambled","FOR_REV_MAP_BLOBBY_STIM/1592314.bmp_pp100_L3_V1.0_veridical_freeview_isoTrue_fps144_reversed_REAL.mp4",""
"null","","","html-keyboard-response","433","816613","0.0-433.0","ra8t9q98","","<span style=""color:Black; font-size:50px;"">Agent B","null","","","","",""
"null","","","video-keyboard-response","434","819436","0.0-434.0","ra8t9q98","","","null","","Agent B","veridical","FOR_REV_MAP_BLOBBY_STIM/1592314.bmp_pp100_L3_V1.0_veridical_freeview_isoTrue_fps144.mp4",""
"","","","call-function","435","819436","0.0-435.0","ra8t9q98","","","","","","","",""
"2263.185000000056","{""judgement"":0}","[0]","survey-likert","436","821700","0.0-436.0","ra8t9q98","","","","","","","","1"
"1419.8850000000093","{""confidence"":2}","[0]","survey-likert","437","823121","0.0-437.0","ra8t9q98","","","","","","","",""
"","","","call-function","438","823122","0.0-438.0","ra8t9q98","","","","","","","",""
"null","","","html-keyboard-response","439","824626","0.0-439.0","ra8t9q98","","<span style=""color:Black; font-size:50px;"">Agent A","null","","","","",""
"null","","","video-keyboard-response","440","827479","0.0-440.0","ra8t9q98","","","null","","Agent A","veridical","FOR_REV_MAP_BLOBBY_STIM/498396.bmp_pp99_L2_V1.0_veridical_freeview_isoTrue_fps144.mp4",""
"null","","","html-keyboard-response","441","828981","0.0-441.0","ra8t9q98","","<span style=""color:Black; font-size:50px;"">Agent B","null","","","","",""
"null","","","video-keyboard-response","442","831837","0.0-442.0","ra8t9q98","","","null","","Agent B","scrambled","FOR_REV_MAP_BLOBBY_STIM/498396.bmp_pp99_L2_V1.0_veridical_freeview_isoTrue_fps144_reversed_REAL.mp4",""
"","","","call-function","443","831837","0.0-443.0","ra8t9q98","","","","","","","",""
"2130.890000000014","{""judgement"":0}","[0]","survey-likert","444","833969","0.0-444.0","ra8t9q98","","","","","","","","0"
"1009.8399999999674","{""confidence"":0}","[0]","survey-likert","445","834980","0.0-445.0","ra8t9q98","","","","","","","",""
"","","","call-function","446","834981","0.0-446.0","ra8t9q98","","","","","","","",""
"null","","","html-keyboard-response","447","836482","0.0-447.0","ra8t9q98","","<span style=""color:Black; font-size:50px;"">Agent A","null","","","","",""
"null","","","video-keyboard-response","448","839263","0.0-448.0","ra8t9q98","","","null","","Agent A","veridical","FOR_REV_MAP_BLOBBY_STIM/1592298.bmp_pp56_L3_V1.0_veridical_freeview_isoTrue_fps144.mp4",""
"null","","","html-keyboard-response","449","840765","0.0-449.0","ra8t9q98","","<span style=""color:Black; font-size:50px;"">Agent B","null","","","","",""
"null","","","video-keyboard-response","450","843524","0.0-450.0","ra8t9q98","","","null","","Agent B","scrambled","FOR_REV_MAP_BLOBBY_STIM/1592298.bmp_pp56_L3_V1.0_veridical_freeview_isoTrue_fps144_reversed_REAL.mp4",""
"","","","call-function","451","843524","0.0-451.0","ra8t9q98","","","","","","","",""
"2055.6300000000047","{""judgement"":1}","[0]","survey-likert","452","845581","0.0-452.0","ra8t9q98","","","","","","","","0"
"1211.2700000000186","{""confidence"":1}","[0]","survey-likert","453","846793","0.0-453.0","ra8t9q98","","","","","","","",""
"","","","call-function","454","846794","0.0-454.0","ra8t9q98","","","","","","","",""
"null","","","html-keyboard-response","455","848296","0.0-455.0","ra8t9q98","","<span style=""color:Black; font-size:50px;"">Agent A","null","","","","",""
"null","","","video-keyboard-response","456","851066","0.0-456.0","ra8t9q98","","","null","","Agent A","scrambled","FOR_REV_MAP_BLOBBY_STIM/498372.bmp_pp95_L2_V1.0_veridical_freeview_isoTrue_fps144_reversed_REAL.mp4",""
"null","","","html-keyboard-response","457","852569","0.0-457.0","ra8t9q98","","<span style=""color:Black; font-size:50px;"">Agent B","null","","","","",""
"null","","","video-keyboard-response","458","855339","0.0-458.0","ra8t9q98","","","null","","Agent B","veridical","FOR_REV_MAP_BLOBBY_STIM/498372.bmp_pp95_L2_V1.0_veridical_freeview_isoTrue_fps144.mp4",""
"","","","call-function","459","855340","0.0-459.0","ra8t9q98","","","","","","","",""
"1112.6549999999115","{""judgement"":1}","[0]","survey-likert","460","856453","0.0-460.0","ra8t9q98","","","","","","","","1"
"1739.3850000000093","{""confidence"":1}","[0]","survey-likert","461","858194","0.0-461.0","ra8t9q98","","","","","","","",""
"","","","call-function","462","858194","0.0-462.0","ra8t9q98","","","","","","","",""
"null","","","html-keyboard-response","463","859696","0.0-463.0","ra8t9q98","","<span style=""color:Black; font-size:50px;"">Agent A","null","","","","",""
"null","","","video-keyboard-response","464","862511","0.0-464.0","ra8t9q98","","","null","","Agent A","scrambled","FOR_REV_MAP_BLOBBY_STIM/1592305.bmp_pp65_L3_V1.0_veridical_freeview_isoTrue_fps144_reversed_REAL.mp4",""
"null","","","html-keyboard-response","465","864016","0.0-465.0","ra8t9q98","","<span style=""color:Black; font-size:50px;"">Agent B","null","","","","",""
"null","","","video-keyboard-response","466","866827","0.0-466.0","ra8t9q98","","","null","","Agent B","veridical","FOR_REV_MAP_BLOBBY_STIM/1592305.bmp_pp65_L3_V1.0_veridical_freeview_isoTrue_fps144.mp4",""
"","","","call-function","467","866827","0.0-467.0","ra8t9q98","","","","","","","",""
"1258.0899999999674","{""judgement"":0}","[0]","survey-likert","468","868086","0.0-468.0","ra8t9q98","","","","","","","","1"
"1299.9099999999162","{""confidence"":1}","[0]","survey-likert","469","869387","0.0-469.0","ra8t9q98","","","","","","","",""
"","","","call-function","470","869388","0.0-470.0","ra8t9q98","","","","","","","",""
"null","","","html-keyboard-response","471","870891","0.0-471.0","ra8t9q98","","<span style=""color:Black; font-size:50px;"">Agent A","null","","","","",""
"null","","","video-keyboard-response","472","873833","0.0-472.0","ra8t9q98","","","null","","Agent A","scrambled","FOR_REV_MAP_BLOBBY_STIM/713829.bmp_pp60_L3_V1.0_veridical_freeview_isoTrue_fps144_reversed_REAL.mp4",""
"null","","","html-keyboard-response","473","875334","0.0-473.0","ra8t9q98","","<span style=""color:Black; font-size:50px;"">Agent B","null","","","","",""
"null","","","video-keyboard-response","474","878180","0.0-474.0","ra8t9q98","","","null","","Agent B","veridical","FOR_REV_MAP_BLOBBY_STIM/713829.bmp_pp60_L3_V1.0_veridical_freeview_isoTrue_fps144.mp4",""
"","","","call-function","475","878181","0.0-475.0","ra8t9q98","","","","","","","",""
"3052.189999999944","{""judgement"":0}","[0]","survey-likert","476","881234","0.0-476.0","ra8t9q98","","","","","","","","1"
"2058.945000000065","{""confidence"":1}","[0]","survey-likert","477","883294","0.0-477.0","ra8t9q98","","","","","","","",""
"","","","call-function","478","883295","0.0-478.0","ra8t9q98","","","","","","","",""
"null","","","html-keyboard-response","479","884796","0.0-479.0","ra8t9q98","","<span style=""color:Black; font-size:50px;"">Agent A","null","","","","",""
"null","","","video-keyboard-response","480","887243","0.0-480.0","ra8t9q98","","","null","","Agent A","scrambled","FOR_REV_MAP_BLOBBY_STIM/1592951.bmp_pp80_L3_V1.0_veridical_freeview_isoTrue_fps144_reversed_REAL.mp4",""
"null","","","html-keyboard-response","481","888747","0.0-481.0","ra8t9q98","","<span style=""color:Black; font-size:50px;"">Agent B","null","","","","",""
"null","","","video-keyboard-response","482","891183","0.0-482.0","ra8t9q98","","","null","","Agent B","veridical","FOR_REV_MAP_BLOBBY_STIM/1592951.bmp_pp80_L3_V1.0_veridical_freeview_isoTrue_fps144.mp4",""
"","","","call-function","483","891184","0.0-483.0","ra8t9q98","","","","","","","",""
"1077.1149999999907","{""judgement"":0}","[0]","survey-likert","484","892262","0.0-484.0","ra8t9q98","","","","","","","","1"
"1278.890000000014","{""confidence"":1}","[0]","survey-likert","485","893543","0.0-485.0","ra8t9q98","","","","","","","",""
"","","","call-function","486","893543","0.0-486.0","ra8t9q98","","","","","","","",""
"null","","","html-keyboard-response","487","895046","0.0-487.0","ra8t9q98","","<span style=""color:Black; font-size:50px;"">Agent A","null","","","","",""
"null","","","video-keyboard-response","488","897987","0.0-488.0","ra8t9q98","","","null","","Agent A","veridical","FOR_REV_MAP_BLOBBY_STIM/1592568.bmp_pp71_L1_V1.0_veridical_freeview_isoTrue_fps144.mp4",""
"null","","","html-keyboard-response","489","899493","0.0-489.0","ra8t9q98","","<span style=""color:Black; font-size:50px;"">Agent B","null","","","","",""
"null","","","video-keyboard-response","490","902431","0.0-490.0","ra8t9q98","","","null","","Agent B","scrambled","FOR_REV_MAP_BLOBBY_STIM/1592568.bmp_pp71_L1_V1.0_veridical_freeview_isoTrue_fps144_reversed_REAL.mp4",""
"","","","call-function","491","902432","0.0-491.0","ra8t9q98","","","","","","","",""
"1226.5250000000233","{""judgement"":0}","[0]","survey-likert","492","903660","0.0-492.0","ra8t9q98","","","","","","","","0"
"888","{""confidence"":1}","[0]","survey-likert","493","904549","0.0-493.0","ra8t9q98","","","","","","","",""
"","","","call-function","494","904549","0.0-494.0","ra8t9q98","","","","","","","",""
"null","","","html-keyboard-response","495","906053","0.0-495.0","ra8t9q98","","<span style=""color:Black; font-size:50px;"">Agent A","null","","","","",""
"null","","","video-keyboard-response","496","908815","0.0-496.0","ra8t9q98","","","null","","Agent A","scrambled","FOR_REV_MAP_BLOBBY_STIM/1160247.bmp_pp54_L2_V1.0_veridical_freeview_isoTrue_fps144_reversed_REAL.mp4",""
"null","","","html-keyboard-response","497","910319","0.0-497.0","ra8t9q98","","<span style=""color:Black; font-size:50px;"">Agent B","null","","","","",""
"null","","","video-keyboard-response","498","913081","0.0-498.0","ra8t9q98","","","null","","Agent B","veridical","FOR_REV_MAP_BLOBBY_STIM/1160247.bmp_pp54_L2_V1.0_veridical_freeview_isoTrue_fps144.mp4",""
"","","","call-function","499","913082","0.0-499.0","ra8t9q98","","","","","","","",""
"1148.905000000028","{""judgement"":0}","[0]","survey-likert","500","914231","0.0-500.0","ra8t9q98","","","","","","","","1"
"915.9800000000978","{""confidence"":1}","[0]","survey-likert","501","915149","0.0-501.0","ra8t9q98","","","","","","","",""
"1871.1149999999907","","","instructions","502","917020","0.0-502.0","ra8t9q98","[{""page_index"":0,""viewing_time"":1287.5750000000698},{""page_index"":1,""viewing_time"":410.8399999999674},{""page_index"":2,""viewing_time"":172.47999999998137}]","","","","","","",""
"1033.1049999999814","","","instructions","503","918054","0.0-503.0","ra8t9q98","[{""page_index"":0,""viewing_time"":153.30500000005122},{""page_index"":1,""viewing_time"":404.6549999999115},{""page_index"":2,""viewing_time"":474.9350000000559}]","","","","","","",""
"","","","call-function","504","918054","0.0-504.0","ra8t9q98","","","","","","","",""
"null","","","html-keyboard-response","505","919557","0.0-505.0","ra8t9q98","","<span style=""color:Black; font-size:50px;"">Agent A","null","","","","",""
"null","","","video-keyboard-response","506","922335","0.0-506.0","ra8t9q98","","","null","","Agent A","scrambled","FOR_REV_MAP_BLOBBY_STIM/285932.bmp_pp64_L1_V1.0_veridical_freeview_isoTrue_fps144_reversed_REAL.mp4",""
"null","","","html-keyboard-response","507","923840","0.0-507.0","ra8t9q98","","<span style=""color:Black; font-size:50px;"">Agent B","null","","","","",""
"null","","","video-keyboard-response","508","926620","0.0-508.0","ra8t9q98","","","null","","Agent B","veridical","FOR_REV_MAP_BLOBBY_STIM/285932.bmp_pp64_L1_V1.0_veridical_freeview_isoTrue_fps144.mp4",""
"","","","call-function","509","926620","0.0-509.0","ra8t9q98","","","","","","","",""
"1406.2750000000233","{""judgement"":0}","[0]","survey-likert","510","928027","0.0-510.0","ra8t9q98","","","","","","","","1"
"1098.295000000042","{""confidence"":0}","[0]","survey-likert","511","929126","0.0-511.0","ra8t9q98","","","","","","","",""
"","","","call-function","512","929127","0.0-512.0","ra8t9q98","","","","","","","",""
"null","","","html-keyboard-response","513","930629","0.0-513.0","ra8t9q98","","<span style=""color:Black; font-size:50px;"">Agent A","null","","","","",""
"null","","","video-keyboard-response","514","933370","0.0-514.0","ra8t9q98","","","null","","Agent A","scrambled","FOR_REV_MAP_BLOBBY_STIM/1591975.bmp_pp88_L2_V1.0_veridical_freeview_isoTrue_fps144_reversed_REAL.mp4",""
"null","","","html-keyboard-response","515","934875","0.0-515.0","ra8t9q98","","<span style=""color:Black; font-size:50px;"">Agent B","null","","","","",""
"null","","","video-keyboard-response","516","937647","0.0-516.0","ra8t9q98","","","null","","Agent B","veridical","FOR_REV_MAP_BLOBBY_STIM/1591975.bmp_pp88_L2_V1.0_veridical_freeview_isoTrue_fps144.mp4",""
"","","","call-function","517","937648","0.0-517.0","ra8t9q98","","","","","","","",""
"1224.6999999999534","{""judgement"":0}","[0]","survey-likert","518","938873","0.0-518.0","ra8t9q98","","","","","","","","1"
"4313.239999999991","{""confidence"":1}","[0]","survey-likert","519","943188","0.0-519.0","ra8t9q98","","","","","","","",""
"","","","call-function","520","943188","0.0-520.0","ra8t9q98","","","","","","","",""
"null","","","html-keyboard-response","521","944690","0.0-521.0","ra8t9q98","","<span style=""color:Black; font-size:50px;"">Agent A","null","","","","",""
"null","","","video-keyboard-response","522","947511","0.0-522.0","ra8t9q98","","","null","","Agent A","veridical","FOR_REV_MAP_BLOBBY_STIM/1591920.bmp_pp97_L3_V1.0_veridical_freeview_isoTrue_fps144.mp4",""
"null","","","html-keyboard-response","523","949015","0.0-523.0","ra8t9q98","","<span style=""color:Black; font-size:50px;"">Agent B","null","","","","",""
"null","","","video-keyboard-response","524","951829","0.0-524.0","ra8t9q98","","","null","","Agent B","scrambled","FOR_REV_MAP_BLOBBY_STIM/1591920.bmp_pp97_L3_V1.0_veridical_freeview_isoTrue_fps144_reversed_REAL.mp4",""
"","","","call-function","525","951829","0.0-525.0","ra8t9q98","","","","","","","",""
"2052.765000000014","{""judgement"":0}","[0]","survey-likert","526","953883","0.0-526.0","ra8t9q98","","","","","","","","0"
"1432.9649999999674","{""confidence"":0}","[0]","survey-likert","527","955317","0.0-527.0","ra8t9q98","","","","","","","",""
"","","","call-function","528","955318","0.0-528.0","ra8t9q98","","","","","","","",""
"null","","","html-keyboard-response","529","956820","0.0-529.0","ra8t9q98","","<span style=""color:Black; font-size:50px;"">Agent A","null","","","","",""
"null","","","video-keyboard-response","530","959685","0.0-530.0","ra8t9q98","","","null","","Agent A","scrambled","FOR_REV_MAP_BLOBBY_STIM/1592201.bmp_pp97_L3_V1.0_veridical_freeview_isoTrue_fps144_reversed_REAL.mp4",""
"null","","","html-keyboard-response","531","961189","0.0-531.0","ra8t9q98","","<span style=""color:Black; font-size:50px;"">Agent B","null","","","","",""
"null","","","video-keyboard-response","532","964043","0.0-532.0","ra8t9q98","","","null","","Agent B","veridical","FOR_REV_MAP_BLOBBY_STIM/1592201.bmp_pp97_L3_V1.0_veridical_freeview_isoTrue_fps144.mp4",""
"","","","call-function","533","964044","0.0-533.0","ra8t9q98","","","","","","","",""
"1202.4100000000326","{""judgement"":0}","[0]","survey-likert","534","965247","0.0-534.0","ra8t9q98","","","","","","","","1"
"2011.579999999958","{""confidence"":3}","[0]","survey-likert","535","967260","0.0-535.0","ra8t9q98","","","","","","","",""
"","","","call-function","536","967260","0.0-536.0","ra8t9q98","","","","","","","",""
"null","","","html-keyboard-response","537","968763","0.0-537.0","ra8t9q98","","<span style=""color:Black; font-size:50px;"">Agent A","null","","","","",""
"null","","","video-keyboard-response","538","971577","0.0-538.0","ra8t9q98","","","null","","Agent A","scrambled","FOR_REV_MAP_BLOBBY_STIM/1592150.bmp_pp77_L3_V1.0_veridical_freeview_isoTrue_fps144_reversed_REAL.mp4",""
"null","","","html-keyboard-response","539","973083","0.0-539.0","ra8t9q98","","<span style=""color:Black; font-size:50px;"">Agent B","null","","","","",""
"null","","","video-keyboard-response","540","975877","0.0-540.0","ra8t9q98","","","null","","Agent B","veridical","FOR_REV_MAP_BLOBBY_STIM/1592150.bmp_pp77_L3_V1.0_veridical_freeview_isoTrue_fps144.mp4",""
"","","","call-function","541","975877","0.0-541.0","ra8t9q98","","","","","","","",""
"1400.045000000042","{""judgement"":0}","[0]","survey-likert","542","977278","0.0-542.0","ra8t9q98","","","","","","","","1"
"1246.8950000000186","{""confidence"":2}","[0]","survey-likert","543","978526","0.0-543.0","ra8t9q98","","","","","","","",""
"","","","call-function","544","978527","0.0-544.0","ra8t9q98","","","","","","","",""
"null","","","html-keyboard-response","545","980029","0.0-545.0","ra8t9q98","","<span style=""color:Black; font-size:50px;"">Agent A","null","","","","",""
"null","","","video-keyboard-response","546","982842","0.0-546.0","ra8t9q98","","","null","","Agent A","veridical","FOR_REV_MAP_BLOBBY_STIM/1159392.bmp_pp96_L2_V1.0_veridical_freeview_isoTrue_fps144.mp4",""
"null","","","html-keyboard-response","547","984347","0.0-547.0","ra8t9q98","","<span style=""color:Black; font-size:50px;"">Agent B","null","","","","",""
"null","","","video-keyboard-response","548","987149","0.0-548.0","ra8t9q98","","","null","","Agent B","scrambled","FOR_REV_MAP_BLOBBY_STIM/1159392.bmp_pp96_L2_V1.0_veridical_freeview_isoTrue_fps144_reversed_REAL.mp4",""
"","","","call-function","549","987149","0.0-549.0","ra8t9q98","","","","","","","",""
"1514.420000000042","{""judgement"":0}","[0]","survey-likert","550","988664","0.0-550.0","ra8t9q98","","","","","","","","0"
"2885.569999999949","{""confidence"":3}","[0]","survey-likert","551","991552","0.0-551.0","ra8t9q98","","","","","","","",""
"","","","call-function","552","991552","0.0-552.0","ra8t9q98","","","","","","","",""
"null","","","html-keyboard-response","553","993056","0.0-553.0","ra8t9q98","","<span style=""color:Black; font-size:50px;"">Agent A","null","","","","",""
"null","","","video-keyboard-response","554","995826","0.0-554.0","ra8t9q98","","","null","","Agent A","veridical","FOR_REV_MAP_BLOBBY_STIM/1592747.bmp_pp53_L2_V1.0_veridical_freeview_isoTrue_fps144.mp4",""
"null","","","html-keyboard-response","555","997327","0.0-555.0","ra8t9q98","","<span style=""color:Black; font-size:50px;"">Agent B","null","","","","",""
"null","","","video-keyboard-response","556","1000098","0.0-556.0","ra8t9q98","","","null","","Agent B","scrambled","FOR_REV_MAP_BLOBBY_STIM/1592747.bmp_pp53_L2_V1.0_veridical_freeview_isoTrue_fps144_reversed_REAL.mp4",""
"","","","call-function","557","1000099","0.0-557.0","ra8t9q98","","","","","","","",""
"1281.1850000000559","{""judgement"":1}","[0]","survey-likert","558","1001381","0.0-558.0","ra8t9q98","","","","","","","","0"
"1091.734999999986","{""confidence"":2}","[0]","survey-likert","559","1002474","0.0-559.0","ra8t9q98","","","","","","","",""
"","","","call-function","560","1002474","0.0-560.0","ra8t9q98","","","","","","","",""
"null","","","html-keyboard-response","561","1003977","0.0-561.0","ra8t9q98","","<span style=""color:Black; font-size:50px;"">Agent A","null","","","","",""
"null","","","video-keyboard-response","562","1006759","0.0-562.0","ra8t9q98","","","null","","Agent A","scrambled","FOR_REV_MAP_BLOBBY_STIM/1592129.bmp_pp153_L3_V1.0_veridical_freeview_isoTrue_fps144_reversed_REAL.mp4",""
"null","","","html-keyboard-response","563","1008262","0.0-563.0","ra8t9q98","","<span style=""color:Black; font-size:50px;"">Agent B","null","","","","",""
"null","","","video-keyboard-response","564","1011040","0.0-564.0","ra8t9q98","","","null","","Agent B","veridical","FOR_REV_MAP_BLOBBY_STIM/1592129.bmp_pp153_L3_V1.0_veridical_freeview_isoTrue_fps144.mp4",""
"","","","call-function","565","1011040","0.0-565.0","ra8t9q98","","","","","","","",""
"1563.4599999999627","{""judgement"":1}","[0]","survey-likert","566","1012605","0.0-566.0","ra8t9q98","","","","","","","","1"
"1464.375","{""confidence"":1}","[0]","survey-likert","567","1014071","0.0-567.0","ra8t9q98","","","","","","","",""
"","","","call-function","568","1014071","0.0-568.0","ra8t9q98","","","","","","","",""
"null","","","html-keyboard-response","569","1015573","0.0-569.0","ra8t9q98","","<span style=""color:Black; font-size:50px;"">Agent A","null","","","","",""
"null","","","video-keyboard-response","570","1018181","0.0-570.0","ra8t9q98","","","null","","Agent A","scrambled","FOR_REV_MAP_BLOBBY_STIM/1159874.bmp_pp96_L2_V1.0_veridical_freeview_isoTrue_fps144_reversed_REAL.mp4",""
"null","","","html-keyboard-response","571","1019686","0.0-571.0","ra8t9q98","","<span style=""color:Black; font-size:50px;"">Agent B","null","","","","",""
"null","","","video-keyboard-response","572","1022298","0.0-572.0","ra8t9q98","","","null","","Agent B","veridical","FOR_REV_MAP_BLOBBY_STIM/1159874.bmp_pp96_L2_V1.0_veridical_freeview_isoTrue_fps144.mp4",""
"","","","call-function","573","1022299","0.0-573.0","ra8t9q98","","","","","","","",""
"2171.7149999999674","{""judgement"":0}","[0]","survey-likert","574","1024471","0.0-574.0","ra8t9q98","","","","","","","","1"
"1508.9350000000559","{""confidence"":1}","[0]","survey-likert","575","1025982","0.0-575.0","ra8t9q98","","","","","","","",""
"","","","call-function","576","1025982","0.0-576.0","ra8t9q98","","","","","","","",""
"null","","","html-keyboard-response","577","1027488","0.0-577.0","ra8t9q98","","<span style=""color:Black; font-size:50px;"">Agent A","null","","","","",""
"null","","","video-keyboard-response","578","1030299","0.0-578.0","ra8t9q98","","","null","","Agent A","scrambled","FOR_REV_MAP_BLOBBY_STIM/713274.bmp_pp73_L3_V1.0_veridical_freeview_isoTrue_fps144_reversed_REAL.mp4",""
"null","","","html-keyboard-response","579","1031803","0.0-579.0","ra8t9q98","","<span style=""color:Black; font-size:50px;"">Agent B","null","","","","",""
"null","","","video-keyboard-response","580","1034602","0.0-580.0","ra8t9q98","","","null","","Agent B","veridical","FOR_REV_MAP_BLOBBY_STIM/713274.bmp_pp73_L3_V1.0_veridical_freeview_isoTrue_fps144.mp4",""
"","","","call-function","581","1034602","0.0-581.0","ra8t9q98","","","","","","","",""
"2933.905000000028","{""judgement"":1}","[0]","survey-likert","582","1037537","0.0-582.0","ra8t9q98","","","","","","","","1"
"1975.640000000014","{""confidence"":1}","[0]","survey-likert","583","1039514","0.0-583.0","ra8t9q98","","","","","","","",""
"2991.8000000000466","","","instructions","584","1042506","0.0-584.0","ra8t9q98","[{""page_index"":0,""viewing_time"":2991.5899999999674}]","","","","","","",""
"2449.45000000007","","","instructions","585","1044956","0.0-585.0","ra8t9q98","[{""page_index"":0,""viewing_time"":2449.32500000007}]","","","","","","",""
"10977.969999999972","{""post-1"":2}","[0]","survey-likert","586","1055935","0.0-586.0","ra8t9q98","","","","","","","",""
"4865.97499999986","{""post-1"":2}","[0]","survey-likert","587","1060802","0.0-587.0","ra8t9q98","","","","","","","",""
"5100.934999999823","{""post-2"":3}","[0]","survey-likert","588","1065904","0.0-588.0","ra8t9q98","","","","","","","",""
"3735.7350000001024","{""post-2"":3}","[0]","survey-likert","589","1069641","0.0-589.0","ra8t9q98","","","","","","","",""
"5862.155000000028","{""post-3"":1}","[0]","survey-likert","590","1075504","0.0-590.0","ra8t9q98","","","","","","","",""
"2655.6650000000373","{""post-3"":1}","[0]","survey-likert","591","1078161","0.0-591.0","ra8t9q98","","","","","","","",""
"6427.725000000093","{""post-4"":0}","[0]","survey-likert","592","1084590","0.0-592.0","ra8t9q98","","","","","","","",""
"2646.0849999999627","{""post-4"":0}","[0]","survey-likert","593","1087237","0.0-593.0","ra8t9q98","","","","","","","",""
"5272.729999999981","{""post-5"":2}","[0]","survey-likert","594","1092511","0.0-594.0","ra8t9q98","","","","","","","",""
"3857.2099999999627","{""post-5"":2}","[0]","survey-likert","595","1096370","0.0-595.0","ra8t9q98","","","","","","","",""
"98640.05500000017","{""Q0"":""I noticed halfway through that the hotspot A vs. B were just reverses of one another. I also began to notice a pattern such that the hotspots would hover around a certain close space, and inferred that it's likely that a human might do that as their first attention sequence - which might be false, but that's what i used for my inference of the remainder of which A or B was human.""}","","survey-text","596","1195036","0.0-596.0","ra8t9q98","","","","","","","",""
"38999.84499999997","{""Q0"":""I used the inference described earlier - noticed a pattern of when the hotspots concentrated around one area, and determined that whichever agent did that at the beginning was more likely a human.""}","","survey-text","597","1234039","0.0-597.0","ra8t9q98","","","","","","","",""
"6291.73499999987","{""Q0"":""the repetition. I got bored""}","","survey-text","598","1240334","0.0-598.0","ra8t9q98","","","","","","","",""
"2100.9749999998603","","","instructions","599","1242436","0.0-599.0","ra8t9q98","[{""page_index"":0,""viewing_time"":2100.7649999998976}]","","","","","","",""
"9369514.195","{""Experimenter_end"":[""Printed ID# ra8t9q98 on consent form"",""Given subject SONA credit or payment"",""Given the subject debrief form""]}","[0]","survey-multi-select","600","10611969","0.0-600.0","ra8t9q98","","","","","","","",""
