"rt","responses","question_order","trial_type","trial_index","time_elapsed","internal_node_id","ID","view_history","stimulus","key_press","value","agent","condition","image","correct_answer"
"30764.875","{""Experimenter"":[""Confirmed subject's identity"",""Confirmed normal or corrected-to-normal vision"",""Obtained consent (signature and date)"",""Checked the test room lighting"",""Checked computer screen lighting"",""Checked distance from screen to chin rest (50cm)"",""Cleaned and adjusted chin rest"",""Counterbalanced the order of the tasks"",""Opened the experiment in Firefox"",""Made the experiment full screen"",""Encouraged subject to silence phone, put away distractors, etc.""]}","[0]","survey-multi-select","0","30774","0.0-0.0","rlnr8fkd","","","","","","","",""
"13066.73","","","instructions","1","43844","0.0-1.0","rlnr8fkd","[{""page_index"":0,""viewing_time"":13066.505000000001}]","","","","","","",""
"16207.155000000006","","","instructions","2","60053","0.0-2.0","rlnr8fkd","[{""page_index"":0,""viewing_time"":4667.915000000001},{""page_index"":1,""viewing_time"":1368.4150000000009},{""page_index"":2,""viewing_time"":10170.695}]","","","","","","",""
"2585.2649999999994","","","instructions","3","62639","0.0-3.0","rlnr8fkd","[{""page_index"":0,""viewing_time"":2585.159999999996}]","","","","","","",""
"null","","","video-keyboard-response","4","65721","0.0-4.0","rlnr8fkd","","","null","","","","",""
"13570.809999999998","","","instructions","5","79293","0.0-5.0","rlnr8fkd","[{""page_index"":0,""viewing_time"":2770.5149999999994},{""page_index"":1,""viewing_time"":2082.125},{""page_index"":2,""viewing_time"":8718.055000000008}]","","","","","","",""
"4053.4449999999924","","","instructions","6","83348","0.0-6.0","rlnr8fkd","[{""page_index"":0,""viewing_time"":4053.334999999992}]","","","","","","",""
"871.8499999999913","","","instructions","7","84222","0.0-7.0","rlnr8fkd","[{""page_index"":0,""viewing_time"":871.6149999999907}]","","","","","","",""
"null","","","video-keyboard-response","8","87297","0.0-8.0","rlnr8fkd","","","null","","","","",""
"14349.580000000002","","","instructions","9","101648","0.0-9.0","rlnr8fkd","[{""page_index"":0,""viewing_time"":1293.8600000000006},{""page_index"":1,""viewing_time"":5324.729999999996},{""page_index"":2,""viewing_time"":7730.845000000001}]","","","","","","",""
"3746.654999999999","","","instructions","10","105397","0.0-10.0","rlnr8fkd","[{""page_index"":0,""viewing_time"":3746.524999999994}]","","","","","","",""
"","","","call-function","11","105399","0.0-11.0","rlnr8fkd","","","","","","","",""
"null","","","html-keyboard-response","12","106905","0.0-12.0","rlnr8fkd","","<span style=""color:Black; font-size:50px;"">Agent A","null","","","","",""
"null","","","video-keyboard-response","13","109740","0.0-13.0","rlnr8fkd","","","null","","Agent A","scrambled","FOR_REV_MAP_BLOBBY_STIM/1592025.bmp_pp68_L1_V1.0_veridical_freeview_isoTrue_fps144_reversed_REAL.mp4",""
"null","","","html-keyboard-response","14","111248","0.0-14.0","rlnr8fkd","","<span style=""color:Black; font-size:50px;"">Agent B","null","","","","",""
"null","","","video-keyboard-response","15","114100","0.0-15.0","rlnr8fkd","","","null","","Agent B","veridical","FOR_REV_MAP_BLOBBY_STIM/1592025.bmp_pp68_L1_V1.0_veridical_freeview_isoTrue_fps144.mp4",""
"","","","call-function","16","114101","0.0-16.0","rlnr8fkd","","","","","","","",""
"1928.0149999999994","{""judgement"":1}","[0]","survey-likert","17","116030","0.0-17.0","rlnr8fkd","","","","","","","","1"
"2821.845000000001","{""confidence"":3}","[0]","survey-likert","18","118854","0.0-18.0","rlnr8fkd","","","","","","","",""
"","","","call-function","19","118856","0.0-19.0","rlnr8fkd","","","","","","","",""
"null","","","html-keyboard-response","20","120357","0.0-20.0","rlnr8fkd","","<span style=""color:Black; font-size:50px;"">Agent A","null","","","","",""
"null","","","video-keyboard-response","21","123168","0.0-21.0","rlnr8fkd","","","null","","Agent A","veridical","FOR_REV_MAP_BLOBBY_STIM/1592289.bmp_pp92_L3_V1.0_veridical_freeview_isoTrue_fps144.mp4",""
"null","","","html-keyboard-response","22","124671","0.0-22.0","rlnr8fkd","","<span style=""color:Black; font-size:50px;"">Agent B","null","","","","",""
"null","","","video-keyboard-response","23","127469","0.0-23.0","rlnr8fkd","","","null","","Agent B","scrambled","FOR_REV_MAP_BLOBBY_STIM/1592289.bmp_pp92_L3_V1.0_veridical_freeview_isoTrue_fps144_reversed_REAL.mp4",""
"","","","call-function","24","127470","0.0-24.0","rlnr8fkd","","","","","","","",""
"6462.404999999999","{""judgement"":0}","[0]","survey-likert","25","133933","0.0-25.0","rlnr8fkd","","","","","","","","0"
"1765.7200000000012","{""confidence"":2}","[0]","survey-likert","26","135701","0.0-26.0","rlnr8fkd","","","","","","","",""
"","","","call-function","27","135703","0.0-27.0","rlnr8fkd","","","","","","","",""
"null","","","html-keyboard-response","28","137208","0.0-28.0","rlnr8fkd","","<span style=""color:Black; font-size:50px;"">Agent A","null","","","","",""
"null","","","video-keyboard-response","29","139982","0.0-29.0","rlnr8fkd","","","null","","Agent A","veridical","FOR_REV_MAP_BLOBBY_STIM/150277.bmp_pp65_L3_V1.0_veridical_freeview_isoTrue_fps144.mp4",""
"null","","","html-keyboard-response","30","141485","0.0-30.0","rlnr8fkd","","<span style=""color:Black; font-size:50px;"">Agent B","null","","","","",""
"null","","","video-keyboard-response","31","144403","0.0-31.0","rlnr8fkd","","","null","","Agent B","scrambled","FOR_REV_MAP_BLOBBY_STIM/150277.bmp_pp65_L3_V1.0_veridical_freeview_isoTrue_fps144_reversed_REAL.mp4",""
"","","","call-function","32","144405","0.0-32.0","rlnr8fkd","","","","","","","",""
"10770.36499999999","{""judgement"":1}","[0]","survey-likert","33","155177","0.0-33.0","rlnr8fkd","","","","","","","","0"
"1245.2550000000047","{""confidence"":1}","[0]","survey-likert","34","156425","0.0-34.0","rlnr8fkd","","","","","","","",""
"","","","call-function","35","156427","0.0-35.0","rlnr8fkd","","","","","","","",""
"null","","","html-keyboard-response","36","157931","0.0-36.0","rlnr8fkd","","<span style=""color:Black; font-size:50px;"">Agent A","null","","","","",""
"null","","","video-keyboard-response","37","160769","0.0-37.0","rlnr8fkd","","","null","","Agent A","scrambled","FOR_REV_MAP_BLOBBY_STIM/1160247.bmp_pp54_L2_V1.0_veridical_freeview_isoTrue_fps144_reversed_REAL.mp4",""
"null","","","html-keyboard-response","38","162273","0.0-38.0","rlnr8fkd","","<span style=""color:Black; font-size:50px;"">Agent B","null","","","","",""
"null","","","video-keyboard-response","39","165030","0.0-39.0","rlnr8fkd","","","null","","Agent B","veridical","FOR_REV_MAP_BLOBBY_STIM/1160247.bmp_pp54_L2_V1.0_veridical_freeview_isoTrue_fps144.mp4",""
"","","","call-function","40","165031","0.0-40.0","rlnr8fkd","","","","","","","",""
"2229.170000000013","{""judgement"":0}","[0]","survey-likert","41","167261","0.0-41.0","rlnr8fkd","","","","","","","","1"
"1740.1850000000268","{""confidence"":1}","[0]","survey-likert","42","169004","0.0-42.0","rlnr8fkd","","","","","","","",""
"","","","call-function","43","169005","0.0-43.0","rlnr8fkd","","","","","","","",""
"null","","","html-keyboard-response","44","170509","0.0-44.0","rlnr8fkd","","<span style=""color:Black; font-size:50px;"">Agent A","null","","","","",""
"null","","","video-keyboard-response","45","173280","0.0-45.0","rlnr8fkd","","","null","","Agent A","scrambled","FOR_REV_MAP_BLOBBY_STIM/1592044.bmp_pp94_L2_V1.0_veridical_freeview_isoTrue_fps144_reversed_REAL.mp4",""
"null","","","html-keyboard-response","46","174784","0.0-46.0","rlnr8fkd","","<span style=""color:Black; font-size:50px;"">Agent B","null","","","","",""
"null","","","video-keyboard-response","47","177571","0.0-47.0","rlnr8fkd","","","null","","Agent B","veridical","FOR_REV_MAP_BLOBBY_STIM/1592044.bmp_pp94_L2_V1.0_veridical_freeview_isoTrue_fps144.mp4",""
"","","","call-function","48","177573","0.0-48.0","rlnr8fkd","","","","","","","",""
"1961.8999999999942","{""judgement"":0}","[0]","survey-likert","49","179535","0.0-49.0","rlnr8fkd","","","","","","","","1"
"1416.5650000000023","{""confidence"":2}","[0]","survey-likert","50","180954","0.0-50.0","rlnr8fkd","","","","","","","",""
"","","","call-function","51","180955","0.0-51.0","rlnr8fkd","","","","","","","",""
"null","","","html-keyboard-response","52","182458","0.0-52.0","rlnr8fkd","","<span style=""color:Black; font-size:50px;"">Agent A","null","","","","",""
"null","","","video-keyboard-response","53","185319","0.0-53.0","rlnr8fkd","","","null","","Agent A","scrambled","FOR_REV_MAP_BLOBBY_STIM/1592314.bmp_pp100_L3_V1.0_veridical_freeview_isoTrue_fps144_reversed_REAL.mp4",""
"null","","","html-keyboard-response","54","186826","0.0-54.0","rlnr8fkd","","<span style=""color:Black; font-size:50px;"">Agent B","null","","","","",""
"null","","","video-keyboard-response","55","189651","0.0-55.0","rlnr8fkd","","","null","","Agent B","veridical","FOR_REV_MAP_BLOBBY_STIM/1592314.bmp_pp100_L3_V1.0_veridical_freeview_isoTrue_fps144.mp4",""
"","","","call-function","56","189653","0.0-56.0","rlnr8fkd","","","","","","","",""
"20348.76000000001","{""judgement"":1}","[0]","survey-likert","57","210003","0.0-57.0","rlnr8fkd","","","","","","","","1"
"1657.5249999999942","{""confidence"":1}","[0]","survey-likert","58","211662","0.0-58.0","rlnr8fkd","","","","","","","",""
"","","","call-function","59","211664","0.0-59.0","rlnr8fkd","","","","","","","",""
"null","","","html-keyboard-response","60","213168","0.0-60.0","rlnr8fkd","","<span style=""color:Black; font-size:50px;"">Agent A","null","","","","",""
"null","","","video-keyboard-response","61","215989","0.0-61.0","rlnr8fkd","","","null","","Agent A","scrambled","FOR_REV_MAP_BLOBBY_STIM/286034.bmp_pp69_L3_V1.0_veridical_freeview_isoTrue_fps144_reversed_REAL.mp4",""
"null","","","html-keyboard-response","62","217493","0.0-62.0","rlnr8fkd","","<span style=""color:Black; font-size:50px;"">Agent B","null","","","","",""
"null","","","video-keyboard-response","63","220297","0.0-63.0","rlnr8fkd","","","null","","Agent B","veridical","FOR_REV_MAP_BLOBBY_STIM/286034.bmp_pp69_L3_V1.0_veridical_freeview_isoTrue_fps144.mp4",""
"","","","call-function","64","220298","0.0-64.0","rlnr8fkd","","","","","","","",""
"2338.0199999999895","{""judgement"":0}","[0]","survey-likert","65","222637","0.0-65.0","rlnr8fkd","","","","","","","","1"
"1440.210000000021","{""confidence"":2}","[0]","survey-likert","66","224080","0.0-66.0","rlnr8fkd","","","","","","","",""
"","","","call-function","67","224082","0.0-67.0","rlnr8fkd","","","","","","","",""
"null","","","html-keyboard-response","68","225583","0.0-68.0","rlnr8fkd","","<span style=""color:Black; font-size:50px;"">Agent A","null","","","","",""
"null","","","video-keyboard-response","69","228289","0.0-69.0","rlnr8fkd","","","null","","Agent A","scrambled","FOR_REV_MAP_BLOBBY_STIM/713788.bmp_pp52_L1_V1.0_veridical_freeview_isoTrue_fps144_reversed_REAL.mp4",""
"null","","","html-keyboard-response","70","229797","0.0-70.0","rlnr8fkd","","<span style=""color:Black; font-size:50px;"">Agent B","null","","","","",""
"null","","","video-keyboard-response","71","232491","0.0-71.0","rlnr8fkd","","","null","","Agent B","veridical","FOR_REV_MAP_BLOBBY_STIM/713788.bmp_pp52_L1_V1.0_veridical_freeview_isoTrue_fps144.mp4",""
"","","","call-function","72","232494","0.0-72.0","rlnr8fkd","","","","","","","",""
"2226.2050000000163","{""judgement"":0}","[0]","survey-likert","73","234721","0.0-73.0","rlnr8fkd","","","","","","","","1"
"4631.795000000013","{""confidence"":2}","[0]","survey-likert","74","239355","0.0-74.0","rlnr8fkd","","","","","","","",""
"","","","call-function","75","239356","0.0-75.0","rlnr8fkd","","","","","","","",""
"null","","","html-keyboard-response","76","240860","0.0-76.0","rlnr8fkd","","<span style=""color:Black; font-size:50px;"">Agent A","null","","","","",""
"null","","","video-keyboard-response","77","243644","0.0-77.0","rlnr8fkd","","","null","","Agent A","veridical","FOR_REV_MAP_BLOBBY_STIM/1159860.bmp_pp152_L2_V1.0_veridical_freeview_isoTrue_fps144.mp4",""
"null","","","html-keyboard-response","78","245148","0.0-78.0","rlnr8fkd","","<span style=""color:Black; font-size:50px;"">Agent B","null","","","","",""
"null","","","video-keyboard-response","79","247934","0.0-79.0","rlnr8fkd","","","null","","Agent B","scrambled","FOR_REV_MAP_BLOBBY_STIM/1159860.bmp_pp152_L2_V1.0_veridical_freeview_isoTrue_fps144_reversed_REAL.mp4",""
"","","","call-function","80","247935","0.0-80.0","rlnr8fkd","","","","","","","",""
"3173.1300000000047","{""judgement"":1}","[0]","survey-likert","81","251109","0.0-81.0","rlnr8fkd","","","","","","","","0"
"1641.4100000000035","{""confidence"":2}","[0]","survey-likert","82","252753","0.0-82.0","rlnr8fkd","","","","","","","",""
"","","","call-function","83","252754","0.0-83.0","rlnr8fkd","","","","","","","",""
"null","","","html-keyboard-response","84","254259","0.0-84.0","rlnr8fkd","","<span style=""color:Black; font-size:50px;"">Agent A","null","","","","",""
"null","","","video-keyboard-response","85","256914","0.0-85.0","rlnr8fkd","","","null","","Agent A","veridical","FOR_REV_MAP_BLOBBY_STIM/713633.bmp_pp58_L1_V1.0_veridical_freeview_isoTrue_fps144.mp4",""
"null","","","html-keyboard-response","86","258421","0.0-86.0","rlnr8fkd","","<span style=""color:Black; font-size:50px;"">Agent B","null","","","","",""
"null","","","video-keyboard-response","87","261035","0.0-87.0","rlnr8fkd","","","null","","Agent B","scrambled","FOR_REV_MAP_BLOBBY_STIM/713633.bmp_pp58_L1_V1.0_veridical_freeview_isoTrue_fps144_reversed_REAL.mp4",""
"","","","call-function","88","261037","0.0-88.0","rlnr8fkd","","","","","","","",""
"1824.734999999986","{""judgement"":0}","[0]","survey-likert","89","262863","0.0-89.0","rlnr8fkd","","","","","","","","0"
"1974.9099999999744","{""confidence"":2}","[0]","survey-likert","90","264839","0.0-90.0","rlnr8fkd","","","","","","","",""
"30273.92499999999","","","instructions","91","295115","0.0-91.0","rlnr8fkd","[{""page_index"":0,""viewing_time"":1146.6849999999977},{""page_index"":1,""viewing_time"":28420.08500000002},{""page_index"":2,""viewing_time"":706.9349999999977}]","","","","","","",""
"1797.5050000000047","","","instructions","92","296914","0.0-92.0","rlnr8fkd","[{""page_index"":0,""viewing_time"":584.3150000000023},{""page_index"":1,""viewing_time"":686.6300000000047},{""page_index"":2,""viewing_time"":526.4500000000116}]","","","","","","",""
"","","","call-function","93","296915","0.0-93.0","rlnr8fkd","","","","","","","",""
"null","","","html-keyboard-response","94","298419","0.0-94.0","rlnr8fkd","","<span style=""color:Black; font-size:50px;"">Agent A","null","","","","",""
"null","","","video-keyboard-response","95","301252","0.0-95.0","rlnr8fkd","","","null","","Agent A","scrambled","FOR_REV_MAP_BLOBBY_STIM/1592857.bmp_pp52_L1_V1.0_veridical_freeview_isoTrue_fps144_reversed_REAL.mp4",""
"null","","","html-keyboard-response","96","302755","0.0-96.0","rlnr8fkd","","<span style=""color:Black; font-size:50px;"">Agent B","null","","","","",""
"null","","","video-keyboard-response","97","305592","0.0-97.0","rlnr8fkd","","","null","","Agent B","veridical","FOR_REV_MAP_BLOBBY_STIM/1592857.bmp_pp52_L1_V1.0_veridical_freeview_isoTrue_fps144.mp4",""
"","","","call-function","98","305594","0.0-98.0","rlnr8fkd","","","","","","","",""
"1769.5350000000326","{""judgement"":0}","[0]","survey-likert","99","307365","0.0-99.0","rlnr8fkd","","","","","","","","1"
"1373.0349999999744","{""confidence"":2}","[0]","survey-likert","100","308742","0.0-100.0","rlnr8fkd","","","","","","","",""
"","","","call-function","101","308744","0.0-101.0","rlnr8fkd","","","","","","","",""
"null","","","html-keyboard-response","102","310248","0.0-102.0","rlnr8fkd","","<span style=""color:Black; font-size:50px;"">Agent A","null","","","","",""
"null","","","video-keyboard-response","103","313022","0.0-103.0","rlnr8fkd","","","null","","Agent A","scrambled","FOR_REV_MAP_BLOBBY_STIM/1592017.bmp_pp154_L1_V1.0_veridical_freeview_isoTrue_fps144_reversed_REAL.mp4",""
"null","","","html-keyboard-response","104","314525","0.0-104.0","rlnr8fkd","","<span style=""color:Black; font-size:50px;"">Agent B","null","","","","",""
"null","","","video-keyboard-response","105","317335","0.0-105.0","rlnr8fkd","","","null","","Agent B","veridical","FOR_REV_MAP_BLOBBY_STIM/1592017.bmp_pp154_L1_V1.0_veridical_freeview_isoTrue_fps144.mp4",""
"","","","call-function","106","317337","0.0-106.0","rlnr8fkd","","","","","","","",""
"1911.1450000000186","{""judgement"":1}","[0]","survey-likert","107","319249","0.0-107.0","rlnr8fkd","","","","","","","","1"
"2543.6350000000093","{""confidence"":2}","[0]","survey-likert","108","321796","0.0-108.0","rlnr8fkd","","","","","","","",""
"","","","call-function","109","321797","0.0-109.0","rlnr8fkd","","","","","","","",""
"null","","","html-keyboard-response","110","323300","0.0-110.0","rlnr8fkd","","<span style=""color:Black; font-size:50px;"">Agent A","null","","","","",""
"null","","","video-keyboard-response","111","326144","0.0-111.0","rlnr8fkd","","","null","","Agent A","veridical","FOR_REV_MAP_BLOBBY_STIM/498326.bmp_pp57_L1_V1.0_veridical_freeview_isoTrue_fps144.mp4",""
"null","","","html-keyboard-response","112","327653","0.0-112.0","rlnr8fkd","","<span style=""color:Black; font-size:50px;"">Agent B","null","","","","",""
"null","","","video-keyboard-response","113","330515","0.0-113.0","rlnr8fkd","","","null","","Agent B","scrambled","FOR_REV_MAP_BLOBBY_STIM/498326.bmp_pp57_L1_V1.0_veridical_freeview_isoTrue_fps144_reversed_REAL.mp4",""
"","","","call-function","114","330516","0.0-114.0","rlnr8fkd","","","","","","","",""
"2931.914999999979","{""judgement"":1}","[0]","survey-likert","115","333449","0.0-115.0","rlnr8fkd","","","","","","","","0"
"1577.5950000000303","{""confidence"":1}","[0]","survey-likert","116","335029","0.0-116.0","rlnr8fkd","","","","","","","",""
"","","","call-function","117","335030","0.0-117.0","rlnr8fkd","","","","","","","",""
"null","","","html-keyboard-response","118","336535","0.0-118.0","rlnr8fkd","","<span style=""color:Black; font-size:50px;"">Agent A","null","","","","",""
"null","","","video-keyboard-response","119","339343","0.0-119.0","rlnr8fkd","","","null","","Agent A","veridical","FOR_REV_MAP_BLOBBY_STIM/498372.bmp_pp95_L2_V1.0_veridical_freeview_isoTrue_fps144.mp4",""
"null","","","html-keyboard-response","120","340850","0.0-120.0","rlnr8fkd","","<span style=""color:Black; font-size:50px;"">Agent B","null","","","","",""
"null","","","video-keyboard-response","121","343638","0.0-121.0","rlnr8fkd","","","null","","Agent B","scrambled","FOR_REV_MAP_BLOBBY_STIM/498372.bmp_pp95_L2_V1.0_veridical_freeview_isoTrue_fps144_reversed_REAL.mp4",""
"","","","call-function","122","343640","0.0-122.0","rlnr8fkd","","","","","","","",""
"1559.405000000028","{""judgement"":0}","[0]","survey-likert","123","345200","0.0-123.0","rlnr8fkd","","","","","","","","0"
"1574.109999999986","{""confidence"":2}","[0]","survey-likert","124","346776","0.0-124.0","rlnr8fkd","","","","","","","",""
"","","","call-function","125","346779","0.0-125.0","rlnr8fkd","","","","","","","",""
"null","","","html-keyboard-response","126","348282","0.0-126.0","rlnr8fkd","","<span style=""color:Black; font-size:50px;"">Agent A","null","","","","",""
"null","","","video-keyboard-response","127","351169","0.0-127.0","rlnr8fkd","","","null","","Agent A","veridical","FOR_REV_MAP_BLOBBY_STIM/1160189.bmp_pp64_L1_V1.0_veridical_freeview_isoTrue_fps144.mp4",""
"null","","","html-keyboard-response","128","352673","0.0-128.0","rlnr8fkd","","<span style=""color:Black; font-size:50px;"">Agent B","null","","","","",""
"null","","","video-keyboard-response","129","355548","0.0-129.0","rlnr8fkd","","","null","","Agent B","scrambled","FOR_REV_MAP_BLOBBY_STIM/1160189.bmp_pp64_L1_V1.0_veridical_freeview_isoTrue_fps144_reversed_REAL.mp4",""
"","","","call-function","130","355549","0.0-130.0","rlnr8fkd","","","","","","","",""
"1606.0100000000093","{""judgement"":0}","[0]","survey-likert","131","357156","0.0-131.0","rlnr8fkd","","","","","","","","0"
"1208.625","{""confidence"":2}","[0]","survey-likert","132","358367","0.0-132.0","rlnr8fkd","","","","","","","",""
"","","","call-function","133","358369","0.0-133.0","rlnr8fkd","","","","","","","",""
"null","","","html-keyboard-response","134","359873","0.0-134.0","rlnr8fkd","","<span style=""color:Black; font-size:50px;"">Agent A","null","","","","",""
"null","","","video-keyboard-response","135","362690","0.0-135.0","rlnr8fkd","","","null","","Agent A","scrambled","FOR_REV_MAP_BLOBBY_STIM/498258.bmp_pp51_L1_V1.0_veridical_freeview_isoTrue_fps144_reversed_REAL.mp4",""
"null","","","html-keyboard-response","136","364197","0.0-136.0","rlnr8fkd","","<span style=""color:Black; font-size:50px;"">Agent B","null","","","","",""
"null","","","video-keyboard-response","137","367033","0.0-137.0","rlnr8fkd","","","null","","Agent B","veridical","FOR_REV_MAP_BLOBBY_STIM/498258.bmp_pp51_L1_V1.0_veridical_freeview_isoTrue_fps144.mp4",""
"","","","call-function","138","367035","0.0-138.0","rlnr8fkd","","","","","","","",""
"16744.435000000056","{""judgement"":0}","[0]","survey-likert","139","383780","0.0-139.0","rlnr8fkd","","","","","","","","1"
"1590.7799999999697","{""confidence"":1}","[0]","survey-likert","140","385373","0.0-140.0","rlnr8fkd","","","","","","","",""
"","","","call-function","141","385374","0.0-141.0","rlnr8fkd","","","","","","","",""
"null","","","html-keyboard-response","142","386876","0.0-142.0","rlnr8fkd","","<span style=""color:Black; font-size:50px;"">Agent A","null","","","","",""
"null","","","video-keyboard-response","143","389802","0.0-143.0","rlnr8fkd","","","null","","Agent A","veridical","FOR_REV_MAP_BLOBBY_STIM/1591781.bmp_pp63_L1_V1.0_veridical_freeview_isoTrue_fps144.mp4",""
"null","","","html-keyboard-response","144","391309","0.0-144.0","rlnr8fkd","","<span style=""color:Black; font-size:50px;"">Agent B","null","","","","",""
"null","","","video-keyboard-response","145","394107","0.0-145.0","rlnr8fkd","","","null","","Agent B","scrambled","FOR_REV_MAP_BLOBBY_STIM/1591781.bmp_pp63_L1_V1.0_veridical_freeview_isoTrue_fps144_reversed_REAL.mp4",""
"","","","call-function","146","394108","0.0-146.0","rlnr8fkd","","","","","","","",""
"1994.3300000000163","{""judgement"":0}","[0]","survey-likert","147","396103","0.0-147.0","rlnr8fkd","","","","","","","","0"
"1993.2399999999907","{""confidence"":1}","[0]","survey-likert","148","398099","0.0-148.0","rlnr8fkd","","","","","","","",""
"","","","call-function","149","398101","0.0-149.0","rlnr8fkd","","","","","","","",""
"null","","","html-keyboard-response","150","399604","0.0-150.0","rlnr8fkd","","<span style=""color:Black; font-size:50px;"">Agent A","null","","","","",""
"null","","","video-keyboard-response","151","402405","0.0-151.0","rlnr8fkd","","","null","","Agent A","veridical","FOR_REV_MAP_BLOBBY_STIM/1159392.bmp_pp96_L2_V1.0_veridical_freeview_isoTrue_fps144.mp4",""
"null","","","html-keyboard-response","152","403908","0.0-152.0","rlnr8fkd","","<span style=""color:Black; font-size:50px;"">Agent B","null","","","","",""
"null","","","video-keyboard-response","153","406721","0.0-153.0","rlnr8fkd","","","null","","Agent B","scrambled","FOR_REV_MAP_BLOBBY_STIM/1159392.bmp_pp96_L2_V1.0_veridical_freeview_isoTrue_fps144_reversed_REAL.mp4",""
"","","","call-function","154","406723","0.0-154.0","rlnr8fkd","","","","","","","",""
"5623.484999999986","{""judgement"":1}","[0]","survey-likert","155","412347","0.0-155.0","rlnr8fkd","","","","","","","","0"
"1927.9899999999907","{""confidence"":1}","[0]","survey-likert","156","414277","0.0-156.0","rlnr8fkd","","","","","","","",""
"","","","call-function","157","414278","0.0-157.0","rlnr8fkd","","","","","","","",""
"null","","","html-keyboard-response","158","415780","0.0-158.0","rlnr8fkd","","<span style=""color:Black; font-size:50px;"">Agent A","null","","","","",""
"null","","","video-keyboard-response","159","417683","0.0-159.0","rlnr8fkd","","","null","","Agent A","scrambled","FOR_REV_MAP_BLOBBY_STIM/285946.bmp_pp79_L2_V1.0_veridical_freeview_isoTrue_fps144_reversed_REAL.mp4",""
"null","","","html-keyboard-response","160","419188","0.0-160.0","rlnr8fkd","","<span style=""color:Black; font-size:50px;"">Agent B","null","","","","",""
"null","","","video-keyboard-response","161","421108","0.0-161.0","rlnr8fkd","","","null","","Agent B","veridical","FOR_REV_MAP_BLOBBY_STIM/285946.bmp_pp79_L2_V1.0_veridical_freeview_isoTrue_fps144.mp4",""
"","","","call-function","162","421110","0.0-162.0","rlnr8fkd","","","","","","","",""
"4379.219999999972","{""judgement"":0}","[0]","survey-likert","163","425490","0.0-163.0","rlnr8fkd","","","","","","","","1"
"2017.5499999999884","{""confidence"":2}","[0]","survey-likert","164","427510","0.0-164.0","rlnr8fkd","","","","","","","",""
"","","","call-function","165","427511","0.0-165.0","rlnr8fkd","","","","","","","",""
"null","","","html-keyboard-response","166","429015","0.0-166.0","rlnr8fkd","","<span style=""color:Black; font-size:50px;"">Agent A","null","","","","",""
"null","","","video-keyboard-response","167","431767","0.0-167.0","rlnr8fkd","","","null","","Agent A","scrambled","FOR_REV_MAP_BLOBBY_STIM/1159592.bmp_pp91_L3_V1.0_veridical_freeview_isoTrue_fps144_reversed_REAL.mp4",""
"null","","","html-keyboard-response","168","433275","0.0-168.0","rlnr8fkd","","<span style=""color:Black; font-size:50px;"">Agent B","null","","","","",""
"null","","","video-keyboard-response","169","436014","0.0-169.0","rlnr8fkd","","","null","","Agent B","veridical","FOR_REV_MAP_BLOBBY_STIM/1159592.bmp_pp91_L3_V1.0_veridical_freeview_isoTrue_fps144.mp4",""
"","","","call-function","170","436015","0.0-170.0","rlnr8fkd","","","","","","","",""
"4598.304999999993","{""judgement"":0}","[0]","survey-likert","171","440614","0.0-171.0","rlnr8fkd","","","","","","","","1"
"1994.820000000007","{""confidence"":1}","[0]","survey-likert","172","442611","0.0-172.0","rlnr8fkd","","","","","","","",""
"17027.72999999998","","","instructions","173","459641","0.0-173.0","rlnr8fkd","[{""page_index"":0,""viewing_time"":1181.609999999986},{""page_index"":1,""viewing_time"":15114.804999999993},{""page_index"":2,""viewing_time"":731.0950000000303}]","","","","","","",""
"1930.664999999979","","","instructions","174","461574","0.0-174.0","rlnr8fkd","[{""page_index"":0,""viewing_time"":842.695000000007},{""page_index"":1,""viewing_time"":617.9749999999767},{""page_index"":2,""viewing_time"":469.88000000000466}]","","","","","","",""
"","","","call-function","175","461576","0.0-175.0","rlnr8fkd","","","","","","","",""
"null","","","html-keyboard-response","176","463083","0.0-176.0","rlnr8fkd","","<span style=""color:Black; font-size:50px;"">Agent A","null","","","","",""
"null","","","video-keyboard-response","177","465848","0.0-177.0","rlnr8fkd","","","null","","Agent A","veridical","FOR_REV_MAP_BLOBBY_STIM/285684.bmp_pp80_L3_V1.0_veridical_freeview_isoTrue_fps144.mp4",""
"null","","","html-keyboard-response","178","467355","0.0-178.0","rlnr8fkd","","<span style=""color:Black; font-size:50px;"">Agent B","null","","","","",""
"null","","","video-keyboard-response","179","470120","0.0-179.0","rlnr8fkd","","","null","","Agent B","scrambled","FOR_REV_MAP_BLOBBY_STIM/285684.bmp_pp80_L3_V1.0_veridical_freeview_isoTrue_fps144_reversed_REAL.mp4",""
"","","","call-function","180","470122","0.0-180.0","rlnr8fkd","","","","","","","",""
"3190.5250000000233","{""judgement"":0}","[0]","survey-likert","181","473313","0.0-181.0","rlnr8fkd","","","","","","","","0"
"2166.6300000000047","{""confidence"":2}","[0]","survey-likert","182","475482","0.0-182.0","rlnr8fkd","","","","","","","",""
"","","","call-function","183","475484","0.0-183.0","rlnr8fkd","","","","","","","",""
"null","","","html-keyboard-response","184","476986","0.0-184.0","rlnr8fkd","","<span style=""color:Black; font-size:50px;"">Agent A","null","","","","",""
"null","","","video-keyboard-response","185","479763","0.0-185.0","rlnr8fkd","","","null","","Agent A","scrambled","FOR_REV_MAP_BLOBBY_STIM/61513.bmp_pp75_L1_V1.0_veridical_freeview_isoTrue_fps144_reversed_REAL.mp4",""
"null","","","html-keyboard-response","186","481270","0.0-186.0","rlnr8fkd","","<span style=""color:Black; font-size:50px;"">Agent B","null","","","","",""
"null","","","video-keyboard-response","187","483972","0.0-187.0","rlnr8fkd","","","null","","Agent B","veridical","FOR_REV_MAP_BLOBBY_STIM/61513.bmp_pp75_L1_V1.0_veridical_freeview_isoTrue_fps144.mp4",""
"","","","call-function","188","483973","0.0-188.0","rlnr8fkd","","","","","","","",""
"2952.4250000000466","{""judgement"":0}","[0]","survey-likert","189","486927","0.0-189.0","rlnr8fkd","","","","","","","","1"
"2520.664999999979","{""confidence"":1}","[0]","survey-likert","190","489450","0.0-190.0","rlnr8fkd","","","","","","","",""
"","","","call-function","191","489451","0.0-191.0","rlnr8fkd","","","","","","","",""
"null","","","html-keyboard-response","192","490953","0.0-192.0","rlnr8fkd","","<span style=""color:Black; font-size:50px;"">Agent A","null","","","","",""
"null","","","video-keyboard-response","193","493659","0.0-193.0","rlnr8fkd","","","null","","Agent A","scrambled","FOR_REV_MAP_BLOBBY_STIM/1592350.bmp_pp55_L3_V1.0_veridical_freeview_isoTrue_fps144_reversed_REAL.mp4",""
"null","","","html-keyboard-response","194","495163","0.0-194.0","rlnr8fkd","","<span style=""color:Black; font-size:50px;"">Agent B","null","","","","",""
"null","","","video-keyboard-response","195","497884","0.0-195.0","rlnr8fkd","","","null","","Agent B","veridical","FOR_REV_MAP_BLOBBY_STIM/1592350.bmp_pp55_L3_V1.0_veridical_freeview_isoTrue_fps144.mp4",""
"","","","call-function","196","497886","0.0-196.0","rlnr8fkd","","","","","","","",""
"2020.2799999999697","{""judgement"":1}","[0]","survey-likert","197","499907","0.0-197.0","rlnr8fkd","","","","","","","","1"
"1327.240000000049","{""confidence"":2}","[0]","survey-likert","198","501236","0.0-198.0","rlnr8fkd","","","","","","","",""
"","","","call-function","199","501238","0.0-199.0","rlnr8fkd","","","","","","","",""
"null","","","html-keyboard-response","200","502742","0.0-200.0","rlnr8fkd","","<span style=""color:Black; font-size:50px;"">Agent A","null","","","","",""
"null","","","video-keyboard-response","201","505590","0.0-201.0","rlnr8fkd","","","null","","Agent A","veridical","FOR_REV_MAP_BLOBBY_STIM/107955.bmp_pp90_L2_V1.0_veridical_freeview_isoTrue_fps144.mp4",""
"null","","","html-keyboard-response","202","507094","0.0-202.0","rlnr8fkd","","<span style=""color:Black; font-size:50px;"">Agent B","null","","","","",""
"null","","","video-keyboard-response","203","509932","0.0-203.0","rlnr8fkd","","","null","","Agent B","scrambled","FOR_REV_MAP_BLOBBY_STIM/107955.bmp_pp90_L2_V1.0_veridical_freeview_isoTrue_fps144_reversed_REAL.mp4",""
"","","","call-function","204","509934","0.0-204.0","rlnr8fkd","","","","","","","",""
"3367.679999999993","{""judgement"":1}","[0]","survey-likert","205","513302","0.0-205.0","rlnr8fkd","","","","","","","","0"
"2809.905000000028","{""confidence"":2}","[0]","survey-likert","206","516114","0.0-206.0","rlnr8fkd","","","","","","","",""
"","","","call-function","207","516117","0.0-207.0","rlnr8fkd","","","","","","","",""
"null","","","html-keyboard-response","208","517620","0.0-208.0","rlnr8fkd","","<span style=""color:Black; font-size:50px;"">Agent A","null","","","","",""
"null","","","video-keyboard-response","209","520532","0.0-209.0","rlnr8fkd","","","null","","Agent A","scrambled","FOR_REV_MAP_BLOBBY_STIM/1592150.bmp_pp77_L3_V1.0_veridical_freeview_isoTrue_fps144_reversed_REAL.mp4",""
"null","","","html-keyboard-response","210","522040","0.0-210.0","rlnr8fkd","","<span style=""color:Black; font-size:50px;"">Agent B","null","","","","",""
"null","","","video-keyboard-response","211","524855","0.0-211.0","rlnr8fkd","","","null","","Agent B","veridical","FOR_REV_MAP_BLOBBY_STIM/1592150.bmp_pp77_L3_V1.0_veridical_freeview_isoTrue_fps144.mp4",""
"","","","call-function","212","524857","0.0-212.0","rlnr8fkd","","","","","","","",""
"1694.6899999999441","{""judgement"":0}","[0]","survey-likert","213","526553","0.0-213.0","rlnr8fkd","","","","","","","","1"
"1699.920000000042","{""confidence"":2}","[0]","survey-likert","214","528255","0.0-214.0","rlnr8fkd","","","","","","","",""
"","","","call-function","215","528257","0.0-215.0","rlnr8fkd","","","","","","","",""
"null","","","html-keyboard-response","216","529760","0.0-216.0","rlnr8fkd","","<span style=""color:Black; font-size:50px;"">Agent A","null","","","","",""
"null","","","video-keyboard-response","217","532600","0.0-217.0","rlnr8fkd","","","null","","Agent A","veridical","FOR_REV_MAP_BLOBBY_STIM/1160204.bmp_pp54_L2_V1.0_veridical_freeview_isoTrue_fps144.mp4",""
"null","","","html-keyboard-response","218","534108","0.0-218.0","rlnr8fkd","","<span style=""color:Black; font-size:50px;"">Agent B","null","","","","",""
"null","","","video-keyboard-response","219","536941","0.0-219.0","rlnr8fkd","","","null","","Agent B","scrambled","FOR_REV_MAP_BLOBBY_STIM/1160204.bmp_pp54_L2_V1.0_veridical_freeview_isoTrue_fps144_reversed_REAL.mp4",""
"","","","call-function","220","536942","0.0-220.0","rlnr8fkd","","","","","","","",""
"20558.255000000005","{""judgement"":1}","[0]","survey-likert","221","557502","0.0-221.0","rlnr8fkd","","","","","","","","0"
"2407.905000000028","{""confidence"":0}","[0]","survey-likert","222","559912","0.0-222.0","rlnr8fkd","","","","","","","",""
"","","","call-function","223","559913","0.0-223.0","rlnr8fkd","","","","","","","",""
"null","","","html-keyboard-response","224","561417","0.0-224.0","rlnr8fkd","","<span style=""color:Black; font-size:50px;"">Agent A","null","","","","",""
"null","","","video-keyboard-response","225","564227","0.0-225.0","rlnr8fkd","","","null","","Agent A","scrambled","FOR_REV_MAP_BLOBBY_STIM/713790.bmp_pp100_L3_V1.0_veridical_freeview_isoTrue_fps144_reversed_REAL.mp4",""
"null","","","html-keyboard-response","226","565732","0.0-226.0","rlnr8fkd","","<span style=""color:Black; font-size:50px;"">Agent B","null","","","","",""
"null","","","video-keyboard-response","227","568554","0.0-227.0","rlnr8fkd","","","null","","Agent B","veridical","FOR_REV_MAP_BLOBBY_STIM/713790.bmp_pp100_L3_V1.0_veridical_freeview_isoTrue_fps144.mp4",""
"","","","call-function","228","568555","0.0-228.0","rlnr8fkd","","","","","","","",""
"1679.1799999999348","{""judgement"":0}","[0]","survey-likert","229","570235","0.0-229.0","rlnr8fkd","","","","","","","","1"
"1405.9799999999814","{""confidence"":2}","[0]","survey-likert","230","571643","0.0-230.0","rlnr8fkd","","","","","","","",""
"","","","call-function","231","571645","0.0-231.0","rlnr8fkd","","","","","","","",""
"null","","","html-keyboard-response","232","573147","0.0-232.0","rlnr8fkd","","<span style=""color:Black; font-size:50px;"">Agent A","null","","","","",""
"null","","","video-keyboard-response","233","576009","0.0-233.0","rlnr8fkd","","","null","","Agent A","veridical","FOR_REV_MAP_BLOBBY_STIM/498396.bmp_pp99_L2_V1.0_veridical_freeview_isoTrue_fps144.mp4",""
"null","","","html-keyboard-response","234","577512","0.0-234.0","rlnr8fkd","","<span style=""color:Black; font-size:50px;"">Agent B","null","","","","",""
"null","","","video-keyboard-response","235","580375","0.0-235.0","rlnr8fkd","","","null","","Agent B","scrambled","FOR_REV_MAP_BLOBBY_STIM/498396.bmp_pp99_L2_V1.0_veridical_freeview_isoTrue_fps144_reversed_REAL.mp4",""
"","","","call-function","236","580377","0.0-236.0","rlnr8fkd","","","","","","","",""
"2880.695000000065","{""judgement"":1}","[0]","survey-likert","237","583260","0.0-237.0","rlnr8fkd","","","","","","","","0"
"1762.2700000000186","{""confidence"":1}","[0]","survey-likert","238","585025","0.0-238.0","rlnr8fkd","","","","","","","",""
"","","","call-function","239","585027","0.0-239.0","rlnr8fkd","","","","","","","",""
"null","","","html-keyboard-response","240","586529","0.0-240.0","rlnr8fkd","","<span style=""color:Black; font-size:50px;"">Agent A","null","","","","",""
"null","","","video-keyboard-response","241","589237","0.0-241.0","rlnr8fkd","","","null","","Agent A","scrambled","FOR_REV_MAP_BLOBBY_STIM/1159427.bmp_pp98_L1_V1.0_veridical_freeview_isoTrue_fps144_reversed_REAL.mp4",""
"null","","","html-keyboard-response","242","590742","0.0-242.0","rlnr8fkd","","<span style=""color:Black; font-size:50px;"">Agent B","null","","","","",""
"null","","","video-keyboard-response","243","593457","0.0-243.0","rlnr8fkd","","","null","","Agent B","veridical","FOR_REV_MAP_BLOBBY_STIM/1159427.bmp_pp98_L1_V1.0_veridical_freeview_isoTrue_fps144.mp4",""
"","","","call-function","244","593459","0.0-244.0","rlnr8fkd","","","","","","","",""
"8078.975000000093","{""judgement"":1}","[0]","survey-likert","245","601539","0.0-245.0","rlnr8fkd","","","","","","","","1"
"1498.7299999999814","{""confidence"":2}","[0]","survey-likert","246","603040","0.0-246.0","rlnr8fkd","","","","","","","",""
"","","","call-function","247","603041","0.0-247.0","rlnr8fkd","","","","","","","",""
"null","","","html-keyboard-response","248","604544","0.0-248.0","rlnr8fkd","","<span style=""color:Black; font-size:50px;"">Agent A","null","","","","",""
"null","","","video-keyboard-response","249","607319","0.0-249.0","rlnr8fkd","","","null","","Agent A","scrambled","FOR_REV_MAP_BLOBBY_STIM/713328.bmp_pp86_L2_V1.0_veridical_freeview_isoTrue_fps144_reversed_REAL.mp4",""
"null","","","html-keyboard-response","250","608827","0.0-250.0","rlnr8fkd","","<span style=""color:Black; font-size:50px;"">Agent B","null","","","","",""
"null","","","video-keyboard-response","251","611604","0.0-251.0","rlnr8fkd","","","null","","Agent B","veridical","FOR_REV_MAP_BLOBBY_STIM/713328.bmp_pp86_L2_V1.0_veridical_freeview_isoTrue_fps144.mp4",""
"","","","call-function","252","611605","0.0-252.0","rlnr8fkd","","","","","","","",""
"8166.8450000000885","{""judgement"":0}","[0]","survey-likert","253","619773","0.0-253.0","rlnr8fkd","","","","","","","","1"
"1414.2799999999115","{""confidence"":1}","[0]","survey-likert","254","621190","0.0-254.0","rlnr8fkd","","","","","","","",""
"41214.08999999997","","","instructions","255","662406","0.0-255.0","rlnr8fkd","[{""page_index"":0,""viewing_time"":37926.96000000008},{""page_index"":1,""viewing_time"":1264.0499999999302},{""page_index"":2,""viewing_time"":2022.8549999999814}]","","","","","","",""
"3737.5","","","instructions","256","666145","0.0-256.0","rlnr8fkd","[{""page_index"":0,""viewing_time"":2282.4749999999767},{""page_index"":1,""viewing_time"":752.9899999999907},{""page_index"":2,""viewing_time"":701.9200000000419}]","","","","","","",""
"","","","call-function","257","666146","0.0-257.0","rlnr8fkd","","","","","","","",""
"null","","","html-keyboard-response","258","667648","0.0-258.0","rlnr8fkd","","<span style=""color:Black; font-size:50px;"">Agent A","null","","","","",""
"null","","","video-keyboard-response","259","670486","0.0-259.0","rlnr8fkd","","","null","","Agent A","veridical","FOR_REV_MAP_BLOBBY_STIM/713274.bmp_pp73_L3_V1.0_veridical_freeview_isoTrue_fps144.mp4",""
"null","","","html-keyboard-response","260","671991","0.0-260.0","rlnr8fkd","","<span style=""color:Black; font-size:50px;"">Agent B","null","","","","",""
"null","","","video-keyboard-response","261","674786","0.0-261.0","rlnr8fkd","","","null","","Agent B","scrambled","FOR_REV_MAP_BLOBBY_STIM/713274.bmp_pp73_L3_V1.0_veridical_freeview_isoTrue_fps144_reversed_REAL.mp4",""
"","","","call-function","262","674788","0.0-262.0","rlnr8fkd","","","","","","","",""
"2303.060000000056","{""judgement"":0}","[0]","survey-likert","263","677092","0.0-263.0","rlnr8fkd","","","","","","","","0"
"2589.04999999993","{""confidence"":3}","[0]","survey-likert","264","679683","0.0-264.0","rlnr8fkd","","","","","","","",""
"","","","call-function","265","679684","0.0-265.0","rlnr8fkd","","","","","","","",""
"null","","","html-keyboard-response","266","681190","0.0-266.0","rlnr8fkd","","<span style=""color:Black; font-size:50px;"">Agent A","null","","","","",""
"null","","","video-keyboard-response","267","683952","0.0-267.0","rlnr8fkd","","","null","","Agent A","veridical","FOR_REV_MAP_BLOBBY_STIM/1159325.bmp_pp67_L2_V1.0_veridical_freeview_isoTrue_fps144.mp4",""
"null","","","html-keyboard-response","268","685455","0.0-268.0","rlnr8fkd","","<span style=""color:Black; font-size:50px;"">Agent B","null","","","","",""
"null","","","video-keyboard-response","269","688228","0.0-269.0","rlnr8fkd","","","null","","Agent B","scrambled","FOR_REV_MAP_BLOBBY_STIM/1159325.bmp_pp67_L2_V1.0_veridical_freeview_isoTrue_fps144_reversed_REAL.mp4",""
"","","","call-function","270","688229","0.0-270.0","rlnr8fkd","","","","","","","",""
"7075.234999999986","{""judgement"":0}","[0]","survey-likert","271","695305","0.0-271.0","rlnr8fkd","","","","","","","","0"
"1374.8499999999767","{""confidence"":1}","[0]","survey-likert","272","696683","0.0-272.0","rlnr8fkd","","","","","","","",""
"","","","call-function","273","696685","0.0-273.0","rlnr8fkd","","","","","","","",""
"null","","","html-keyboard-response","274","698190","0.0-274.0","rlnr8fkd","","<span style=""color:Black; font-size:50px;"">Agent A","null","","","","",""
"null","","","video-keyboard-response","275","700915","0.0-275.0","rlnr8fkd","","","null","","Agent A","veridical","FOR_REV_MAP_BLOBBY_STIM/713858.bmp_pp57_L1_V1.0_veridical_freeview_isoTrue_fps144.mp4",""
"null","","","html-keyboard-response","276","702418","0.0-276.0","rlnr8fkd","","<span style=""color:Black; font-size:50px;"">Agent B","null","","","","",""
"null","","","video-keyboard-response","277","705121","0.0-277.0","rlnr8fkd","","","null","","Agent B","scrambled","FOR_REV_MAP_BLOBBY_STIM/713858.bmp_pp57_L1_V1.0_veridical_freeview_isoTrue_fps144_reversed_REAL.mp4",""
"","","","call-function","278","705123","0.0-278.0","rlnr8fkd","","","","","","","",""
"3419.204999999958","{""judgement"":0}","[0]","survey-likert","279","708543","0.0-279.0","rlnr8fkd","","","","","","","","0"
"1207.4249999999302","{""confidence"":1}","[0]","survey-likert","280","709753","0.0-280.0","rlnr8fkd","","","","","","","",""
"","","","call-function","281","709754","0.0-281.0","rlnr8fkd","","","","","","","",""
"null","","","html-keyboard-response","282","711259","0.0-282.0","rlnr8fkd","","<span style=""color:Black; font-size:50px;"">Agent A","null","","","","",""
"null","","","video-keyboard-response","283","714086","0.0-283.0","rlnr8fkd","","","null","","Agent A","scrambled","FOR_REV_MAP_BLOBBY_STIM/1592530.bmp_pp75_L1_V1.0_veridical_freeview_isoTrue_fps144_reversed_REAL.mp4",""
"null","","","html-keyboard-response","284","715593","0.0-284.0","rlnr8fkd","","<span style=""color:Black; font-size:50px;"">Agent B","null","","","","",""
"null","","","video-keyboard-response","285","718419","0.0-285.0","rlnr8fkd","","","null","","Agent B","veridical","FOR_REV_MAP_BLOBBY_STIM/1592530.bmp_pp75_L1_V1.0_veridical_freeview_isoTrue_fps144.mp4",""
"","","","call-function","286","718421","0.0-286.0","rlnr8fkd","","","","","","","",""
"2028.0849999999627","{""judgement"":0}","[0]","survey-likert","287","720450","0.0-287.0","rlnr8fkd","","","","","","","","1"
"1660.5050000000047","{""confidence"":2}","[0]","survey-likert","288","722113","0.0-288.0","rlnr8fkd","","","","","","","",""
"","","","call-function","289","722114","0.0-289.0","rlnr8fkd","","","","","","","",""
"null","","","html-keyboard-response","290","723617","0.0-290.0","rlnr8fkd","","<span style=""color:Black; font-size:50px;"">Agent A","null","","","","",""
"null","","","video-keyboard-response","291","726439","0.0-291.0","rlnr8fkd","","","null","","Agent A","veridical","FOR_REV_MAP_BLOBBY_STIM/1160049.bmp_pp53_L2_V1.0_veridical_freeview_isoTrue_fps144.mp4",""
"null","","","html-keyboard-response","292","727941","0.0-292.0","rlnr8fkd","","<span style=""color:Black; font-size:50px;"">Agent B","null","","","","",""
"null","","","video-keyboard-response","293","730734","0.0-293.0","rlnr8fkd","","","null","","Agent B","scrambled","FOR_REV_MAP_BLOBBY_STIM/1160049.bmp_pp53_L2_V1.0_veridical_freeview_isoTrue_fps144_reversed_REAL.mp4",""
"","","","call-function","294","730735","0.0-294.0","rlnr8fkd","","","","","","","",""
"3560.8800000000047","{""judgement"":0}","[0]","survey-likert","295","734297","0.0-295.0","rlnr8fkd","","","","","","","","0"
"3525.179999999935","{""confidence"":2}","[0]","survey-likert","296","737825","0.0-296.0","rlnr8fkd","","","","","","","",""
"","","","call-function","297","737826","0.0-297.0","rlnr8fkd","","","","","","","",""
"null","","","html-keyboard-response","298","739327","0.0-298.0","rlnr8fkd","","<span style=""color:Black; font-size:50px;"">Agent A","null","","","","",""
"null","","","video-keyboard-response","299","742179","0.0-299.0","rlnr8fkd","","","null","","Agent A","scrambled","FOR_REV_MAP_BLOBBY_STIM/1592567.bmp_pp70_L2_V1.0_veridical_freeview_isoTrue_fps144_reversed_REAL.mp4",""
"null","","","html-keyboard-response","300","743686","0.0-300.0","rlnr8fkd","","<span style=""color:Black; font-size:50px;"">Agent B","null","","","","",""
"null","","","video-keyboard-response","301","746468","0.0-301.0","rlnr8fkd","","","null","","Agent B","veridical","FOR_REV_MAP_BLOBBY_STIM/1592567.bmp_pp70_L2_V1.0_veridical_freeview_isoTrue_fps144.mp4",""
"","","","call-function","302","746470","0.0-302.0","rlnr8fkd","","","","","","","",""
"2711.5800000000745","{""judgement"":1}","[0]","survey-likert","303","749183","0.0-303.0","rlnr8fkd","","","","","","","","1"
"1215.1799999999348","{""confidence"":1}","[0]","survey-likert","304","750401","0.0-304.0","rlnr8fkd","","","","","","","",""
"","","","call-function","305","750403","0.0-305.0","rlnr8fkd","","","","","","","",""
"null","","","html-keyboard-response","306","751909","0.0-306.0","rlnr8fkd","","<span style=""color:Black; font-size:50px;"">Agent A","null","","","","",""
"null","","","video-keyboard-response","307","754729","0.0-307.0","rlnr8fkd","","","null","","Agent A","veridical","FOR_REV_MAP_BLOBBY_STIM/1592921.bmp_pp69_L3_V1.0_veridical_freeview_isoTrue_fps144.mp4",""
"null","","","html-keyboard-response","308","756232","0.0-308.0","rlnr8fkd","","<span style=""color:Black; font-size:50px;"">Agent B","null","","","","",""
"null","","","video-keyboard-response","309","759072","0.0-309.0","rlnr8fkd","","","null","","Agent B","scrambled","FOR_REV_MAP_BLOBBY_STIM/1592921.bmp_pp69_L3_V1.0_veridical_freeview_isoTrue_fps144_reversed_REAL.mp4",""
"","","","call-function","310","759074","0.0-310.0","rlnr8fkd","","","","","","","",""
"2047.7900000000373","{""judgement"":1}","[0]","survey-likert","311","761124","0.0-311.0","rlnr8fkd","","","","","","","","0"
"1590.75","{""confidence"":2}","[0]","survey-likert","312","762718","0.0-312.0","rlnr8fkd","","","","","","","",""
"","","","call-function","313","762720","0.0-313.0","rlnr8fkd","","","","","","","",""
"null","","","html-keyboard-response","314","764222","0.0-314.0","rlnr8fkd","","<span style=""color:Black; font-size:50px;"">Agent A","null","","","","",""
"null","","","video-keyboard-response","315","767031","0.0-315.0","rlnr8fkd","","","null","","Agent A","scrambled","FOR_REV_MAP_BLOBBY_STIM/713770.bmp_pp89_L1_V1.0_veridical_freeview_isoTrue_fps144_reversed_REAL.mp4",""
"null","","","html-keyboard-response","316","768533","0.0-316.0","rlnr8fkd","","<span style=""color:Black; font-size:50px;"">Agent B","null","","","","",""
"null","","","video-keyboard-response","317","771361","0.0-317.0","rlnr8fkd","","","null","","Agent B","veridical","FOR_REV_MAP_BLOBBY_STIM/713770.bmp_pp89_L1_V1.0_veridical_freeview_isoTrue_fps144.mp4",""
"","","","call-function","318","771362","0.0-318.0","rlnr8fkd","","","","","","","",""
"2015.0749999999534","{""judgement"":0}","[0]","survey-likert","319","773378","0.0-319.0","rlnr8fkd","","","","","","","","1"
"1554.7299999999814","{""confidence"":1}","[0]","survey-likert","320","774935","0.0-320.0","rlnr8fkd","","","","","","","",""
"","","","call-function","321","774937","0.0-321.0","rlnr8fkd","","","","","","","",""
"null","","","html-keyboard-response","322","776440","0.0-322.0","rlnr8fkd","","<span style=""color:Black; font-size:50px;"">Agent A","null","","","","",""
"null","","","video-keyboard-response","323","779196","0.0-323.0","rlnr8fkd","","","null","","Agent A","veridical","FOR_REV_MAP_BLOBBY_STIM/1159956.bmp_pp59_L3_V1.0_veridical_freeview_isoTrue_fps144.mp4",""
"null","","","html-keyboard-response","324","780699","0.0-324.0","rlnr8fkd","","<span style=""color:Black; font-size:50px;"">Agent B","null","","","","",""
"null","","","video-keyboard-response","325","783446","0.0-325.0","rlnr8fkd","","","null","","Agent B","scrambled","FOR_REV_MAP_BLOBBY_STIM/1159956.bmp_pp59_L3_V1.0_veridical_freeview_isoTrue_fps144_reversed_REAL.mp4",""
"","","","call-function","326","783448","0.0-326.0","rlnr8fkd","","","","","","","",""
"1637.734999999986","{""judgement"":0}","[0]","survey-likert","327","785087","0.0-327.0","rlnr8fkd","","","","","","","","0"
"1576.140000000014","{""confidence"":1}","[0]","survey-likert","328","786665","0.0-328.0","rlnr8fkd","","","","","","","",""
"","","","call-function","329","786666","0.0-329.0","rlnr8fkd","","","","","","","",""
"null","","","html-keyboard-response","330","788169","0.0-330.0","rlnr8fkd","","<span style=""color:Black; font-size:50px;"">Agent A","null","","","","",""
"null","","","video-keyboard-response","331","790875","0.0-331.0","rlnr8fkd","","","null","","Agent A","veridical","FOR_REV_MAP_BLOBBY_STIM/1592038.bmp_pp79_L2_V1.0_veridical_freeview_isoTrue_fps144.mp4",""
"null","","","html-keyboard-response","332","792384","0.0-332.0","rlnr8fkd","","<span style=""color:Black; font-size:50px;"">Agent B","null","","","","",""
"null","","","video-keyboard-response","333","795083","0.0-333.0","rlnr8fkd","","","null","","Agent B","scrambled","FOR_REV_MAP_BLOBBY_STIM/1592038.bmp_pp79_L2_V1.0_veridical_freeview_isoTrue_fps144_reversed_REAL.mp4",""
"","","","call-function","334","795085","0.0-334.0","rlnr8fkd","","","","","","","",""
"2401.319999999949","{""judgement"":1}","[0]","survey-likert","335","797487","0.0-335.0","rlnr8fkd","","","","","","","","0"
"3157.1500000000233","{""confidence"":2}","[0]","survey-likert","336","800646","0.0-336.0","rlnr8fkd","","","","","","","",""
"44817.734999999986","","","instructions","337","845466","0.0-337.0","rlnr8fkd","[{""page_index"":0,""viewing_time"":1700.3649999999907},{""page_index"":1,""viewing_time"":796.9649999999674},{""page_index"":2,""viewing_time"":42320.18000000005}]","","","","","","",""
"2507.444999999949","","","instructions","338","847975","0.0-338.0","rlnr8fkd","[{""page_index"":0,""viewing_time"":687.0400000000373},{""page_index"":1,""viewing_time"":1213.2299999999814},{""page_index"":2,""viewing_time"":607.0499999999302}]","","","","","","",""
"","","","call-function","339","847977","0.0-339.0","rlnr8fkd","","","","","","","",""
"null","","","html-keyboard-response","340","849480","0.0-340.0","rlnr8fkd","","<span style=""color:Black; font-size:50px;"">Agent A","null","","","","",""
"null","","","video-keyboard-response","341","852324","0.0-341.0","rlnr8fkd","","","null","","Agent A","veridical","FOR_REV_MAP_BLOBBY_STIM/713829.bmp_pp60_L3_V1.0_veridical_freeview_isoTrue_fps144.mp4",""
"null","","","html-keyboard-response","342","853829","0.0-342.0","rlnr8fkd","","<span style=""color:Black; font-size:50px;"">Agent B","null","","","","",""
"null","","","video-keyboard-response","343","856657","0.0-343.0","rlnr8fkd","","","null","","Agent B","scrambled","FOR_REV_MAP_BLOBBY_STIM/713829.bmp_pp60_L3_V1.0_veridical_freeview_isoTrue_fps144_reversed_REAL.mp4",""
"","","","call-function","344","856658","0.0-344.0","rlnr8fkd","","","","","","","",""
"2182.875","{""judgement"":0}","[0]","survey-likert","345","858842","0.0-345.0","rlnr8fkd","","","","","","","","0"
"1444.734999999986","{""confidence"":3}","[0]","survey-likert","346","860289","0.0-346.0","rlnr8fkd","","","","","","","",""
"","","","call-function","347","860291","0.0-347.0","rlnr8fkd","","","","","","","",""
"null","","","html-keyboard-response","348","861793","0.0-348.0","rlnr8fkd","","<span style=""color:Black; font-size:50px;"">Agent A","null","","","","",""
"null","","","video-keyboard-response","349","864518","0.0-349.0","rlnr8fkd","","","null","","Agent A","scrambled","FOR_REV_MAP_BLOBBY_STIM/285715.bmp_pp67_L2_V1.0_veridical_freeview_isoTrue_fps144_reversed_REAL.mp4",""
"null","","","html-keyboard-response","350","866022","0.0-350.0","rlnr8fkd","","<span style=""color:Black; font-size:50px;"">Agent B","null","","","","",""
"null","","","video-keyboard-response","351","868779","0.0-351.0","rlnr8fkd","","","null","","Agent B","veridical","FOR_REV_MAP_BLOBBY_STIM/285715.bmp_pp67_L2_V1.0_veridical_freeview_isoTrue_fps144.mp4",""
"","","","call-function","352","868780","0.0-352.0","rlnr8fkd","","","","","","","",""
"2117.1849999999395","{""judgement"":1}","[0]","survey-likert","353","870898","0.0-353.0","rlnr8fkd","","","","","","","","1"
"1547.5749999999534","{""confidence"":2}","[0]","survey-likert","354","872448","0.0-354.0","rlnr8fkd","","","","","","","",""
"","","","call-function","355","872450","0.0-355.0","rlnr8fkd","","","","","","","",""
"null","","","html-keyboard-response","356","873952","0.0-356.0","rlnr8fkd","","<span style=""color:Black; font-size:50px;"">Agent A","null","","","","",""
"null","","","video-keyboard-response","357","876813","0.0-357.0","rlnr8fkd","","","null","","Agent A","veridical","FOR_REV_MAP_BLOBBY_STIM/713742.bmp_pp91_L3_V1.0_veridical_freeview_isoTrue_fps144.mp4",""
"null","","","html-keyboard-response","358","878317","0.0-358.0","rlnr8fkd","","<span style=""color:Black; font-size:50px;"">Agent B","null","","","","",""
"null","","","video-keyboard-response","359","881160","0.0-359.0","rlnr8fkd","","","null","","Agent B","scrambled","FOR_REV_MAP_BLOBBY_STIM/713742.bmp_pp91_L3_V1.0_veridical_freeview_isoTrue_fps144_reversed_REAL.mp4",""
"","","","call-function","360","881162","0.0-360.0","rlnr8fkd","","","","","","","",""
"2012.4649999999674","{""judgement"":0}","[0]","survey-likert","361","883175","0.0-361.0","rlnr8fkd","","","","","","","","0"
"2587.0800000000745","{""confidence"":2}","[0]","survey-likert","362","885764","0.0-362.0","rlnr8fkd","","","","","","","",""
"","","","call-function","363","885766","0.0-363.0","rlnr8fkd","","","","","","","",""
"null","","","html-keyboard-response","364","887271","0.0-364.0","rlnr8fkd","","<span style=""color:Black; font-size:50px;"">Agent A","null","","","","",""
"null","","","video-keyboard-response","365","890131","0.0-365.0","rlnr8fkd","","","null","","Agent A","veridical","FOR_REV_MAP_BLOBBY_STIM/713381.bmp_pp82_L2_V1.0_veridical_freeview_isoTrue_fps144.mp4",""
"null","","","html-keyboard-response","366","891636","0.0-366.0","rlnr8fkd","","<span style=""color:Black; font-size:50px;"">Agent B","null","","","","",""
"null","","","video-keyboard-response","367","894476","0.0-367.0","rlnr8fkd","","","null","","Agent B","scrambled","FOR_REV_MAP_BLOBBY_STIM/713381.bmp_pp82_L2_V1.0_veridical_freeview_isoTrue_fps144_reversed_REAL.mp4",""
"","","","call-function","368","894478","0.0-368.0","rlnr8fkd","","","","","","","",""
"3329.509999999893","{""judgement"":0}","[0]","survey-likert","369","897809","0.0-369.0","rlnr8fkd","","","","","","","","0"
"1388.25","{""confidence"":2}","[0]","survey-likert","370","899199","0.0-370.0","rlnr8fkd","","","","","","","",""
"","","","call-function","371","899201","0.0-371.0","rlnr8fkd","","","","","","","",""
"null","","","html-keyboard-response","372","900705","0.0-372.0","rlnr8fkd","","<span style=""color:Black; font-size:50px;"">Agent A","null","","","","",""
"null","","","video-keyboard-response","373","903584","0.0-373.0","rlnr8fkd","","","null","","Agent A","veridical","FOR_REV_MAP_BLOBBY_STIM/1592129.bmp_pp153_L3_V1.0_veridical_freeview_isoTrue_fps144.mp4",""
"null","","","html-keyboard-response","374","905090","0.0-374.0","rlnr8fkd","","<span style=""color:Black; font-size:50px;"">Agent B","null","","","","",""
"null","","","video-keyboard-response","375","907872","0.0-375.0","rlnr8fkd","","","null","","Agent B","scrambled","FOR_REV_MAP_BLOBBY_STIM/1592129.bmp_pp153_L3_V1.0_veridical_freeview_isoTrue_fps144_reversed_REAL.mp4",""
"","","","call-function","376","907874","0.0-376.0","rlnr8fkd","","","","","","","",""
"2536.1500000000233","{""judgement"":0}","[0]","survey-likert","377","910412","0.0-377.0","rlnr8fkd","","","","","","","","0"
"1362.7750000000233","{""confidence"":1}","[0]","survey-likert","378","911777","0.0-378.0","rlnr8fkd","","","","","","","",""
"","","","call-function","379","911780","0.0-379.0","rlnr8fkd","","","","","","","",""
"null","","","html-keyboard-response","380","913307","0.0-380.0","rlnr8fkd","","<span style=""color:Black; font-size:50px;"">Agent A","null","","","","",""
"null","","","video-keyboard-response","381","916122","0.0-381.0","rlnr8fkd","","","null","","Agent A","scrambled","FOR_REV_MAP_BLOBBY_STIM/713920.bmp_pp76_L1_V1.0_veridical_freeview_isoTrue_fps144_reversed_REAL.mp4",""
"null","","","html-keyboard-response","382","917630","0.0-382.0","rlnr8fkd","","<span style=""color:Black; font-size:50px;"">Agent B","null","","","","",""
"null","","","video-keyboard-response","383","920470","0.0-383.0","rlnr8fkd","","","null","","Agent B","veridical","FOR_REV_MAP_BLOBBY_STIM/713920.bmp_pp76_L1_V1.0_veridical_freeview_isoTrue_fps144.mp4",""
"","","","call-function","384","920472","0.0-384.0","rlnr8fkd","","","","","","","",""
"3808.0200000000186","{""judgement"":1}","[0]","survey-likert","385","924281","0.0-385.0","rlnr8fkd","","","","","","","","1"
"5256.755000000005","{""confidence"":1}","[0]","survey-likert","386","929541","0.0-386.0","rlnr8fkd","","","","","","","",""
"","","","call-function","387","929543","0.0-387.0","rlnr8fkd","","","","","","","",""
"null","","","html-keyboard-response","388","931048","0.0-388.0","rlnr8fkd","","<span style=""color:Black; font-size:50px;"">Agent A","null","","","","",""
"null","","","video-keyboard-response","389","933826","0.0-389.0","rlnr8fkd","","","null","","Agent A","veridical","FOR_REV_MAP_BLOBBY_STIM/1159329.bmp_pp61_L2_V1.0_veridical_freeview_isoTrue_fps144.mp4",""
"null","","","html-keyboard-response","390","935331","0.0-390.0","rlnr8fkd","","<span style=""color:Black; font-size:50px;"">Agent B","null","","","","",""
"null","","","video-keyboard-response","391","938117","0.0-391.0","rlnr8fkd","","","null","","Agent B","scrambled","FOR_REV_MAP_BLOBBY_STIM/1159329.bmp_pp61_L2_V1.0_veridical_freeview_isoTrue_fps144_reversed_REAL.mp4",""
"","","","call-function","392","938119","0.0-392.0","rlnr8fkd","","","","","","","",""
"5187.295000000042","{""judgement"":1}","[0]","survey-likert","393","943307","0.0-393.0","rlnr8fkd","","","","","","","","0"
"1616.015000000014","{""confidence"":1}","[0]","survey-likert","394","944925","0.0-394.0","rlnr8fkd","","","","","","","",""
"","","","call-function","395","944927","0.0-395.0","rlnr8fkd","","","","","","","",""
"null","","","html-keyboard-response","396","946428","0.0-396.0","rlnr8fkd","","<span style=""color:Black; font-size:50px;"">Agent A","null","","","","",""
"null","","","video-keyboard-response","397","949254","0.0-397.0","rlnr8fkd","","","null","","Agent A","scrambled","FOR_REV_MAP_BLOBBY_STIM/1592305.bmp_pp65_L3_V1.0_veridical_freeview_isoTrue_fps144_reversed_REAL.mp4",""
"null","","","html-keyboard-response","398","950757","0.0-398.0","rlnr8fkd","","<span style=""color:Black; font-size:50px;"">Agent B","null","","","","",""
"null","","","video-keyboard-response","399","953584","0.0-399.0","rlnr8fkd","","","null","","Agent B","veridical","FOR_REV_MAP_BLOBBY_STIM/1592305.bmp_pp65_L3_V1.0_veridical_freeview_isoTrue_fps144.mp4",""
"","","","call-function","400","953586","0.0-400.0","rlnr8fkd","","","","","","","",""
"1635.4199999999255","{""judgement"":0}","[0]","survey-likert","401","955222","0.0-401.0","rlnr8fkd","","","","","","","","1"
"3089.024999999907","{""confidence"":2}","[0]","survey-likert","402","958313","0.0-402.0","rlnr8fkd","","","","","","","",""
"","","","call-function","403","958315","0.0-403.0","rlnr8fkd","","","","","","","",""
"null","","","html-keyboard-response","404","959816","0.0-404.0","rlnr8fkd","","<span style=""color:Black; font-size:50px;"">Agent A","null","","","","",""
"null","","","video-keyboard-response","405","962657","0.0-405.0","rlnr8fkd","","","null","","Agent A","veridical","FOR_REV_MAP_BLOBBY_STIM/1591920.bmp_pp97_L3_V1.0_veridical_freeview_isoTrue_fps144.mp4",""
"null","","","html-keyboard-response","406","964162","0.0-406.0","rlnr8fkd","","<span style=""color:Black; font-size:50px;"">Agent B","null","","","","",""
"null","","","video-keyboard-response","407","966991","0.0-407.0","rlnr8fkd","","","null","","Agent B","scrambled","FOR_REV_MAP_BLOBBY_STIM/1591920.bmp_pp97_L3_V1.0_veridical_freeview_isoTrue_fps144_reversed_REAL.mp4",""
"","","","call-function","408","966992","0.0-408.0","rlnr8fkd","","","","","","","",""
"2315.7249999999767","{""judgement"":0}","[0]","survey-likert","409","969309","0.0-409.0","rlnr8fkd","","","","","","","","0"
"2402.8950000000186","{""confidence"":1}","[0]","survey-likert","410","971714","0.0-410.0","rlnr8fkd","","","","","","","",""
"","","","call-function","411","971716","0.0-411.0","rlnr8fkd","","","","","","","",""
"null","","","html-keyboard-response","412","973218","0.0-412.0","rlnr8fkd","","<span style=""color:Black; font-size:50px;"">Agent A","null","","","","",""
"null","","","video-keyboard-response","413","976004","0.0-413.0","rlnr8fkd","","","null","","Agent A","veridical","FOR_REV_MAP_BLOBBY_STIM/150463.bmp_pp55_L3_V1.0_veridical_freeview_isoTrue_fps144.mp4",""
"null","","","html-keyboard-response","414","977508","0.0-414.0","rlnr8fkd","","<span style=""color:Black; font-size:50px;"">Agent B","null","","","","",""
"null","","","video-keyboard-response","415","980280","0.0-415.0","rlnr8fkd","","","null","","Agent B","scrambled","FOR_REV_MAP_BLOBBY_STIM/150463.bmp_pp55_L3_V1.0_veridical_freeview_isoTrue_fps144_reversed_REAL.mp4",""
"","","","call-function","416","980282","0.0-416.0","rlnr8fkd","","","","","","","",""
"2344.429999999935","{""judgement"":1}","[0]","survey-likert","417","982628","0.0-417.0","rlnr8fkd","","","","","","","","0"
"2689.0050000000047","{""confidence"":2}","[0]","survey-likert","418","985319","0.0-418.0","rlnr8fkd","","","","","","","",""
"35785.97500000009","","","instructions","419","1021107","0.0-419.0","rlnr8fkd","[{""page_index"":0,""viewing_time"":32807.515000000014},{""page_index"":1,""viewing_time"":1115.030000000028},{""page_index"":2,""viewing_time"":1863.1199999999953}]","","","","","","",""
"2710.20000000007","","","instructions","420","1023818","0.0-420.0","rlnr8fkd","[{""page_index"":0,""viewing_time"":1239.140000000014},{""page_index"":1,""viewing_time"":822.0050000000047},{""page_index"":2,""viewing_time"":648.9350000000559}]","","","","","","",""
"","","","call-function","421","1023820","0.0-421.0","rlnr8fkd","","","","","","","",""
"null","","","html-keyboard-response","422","1025324","0.0-422.0","rlnr8fkd","","<span style=""color:Black; font-size:50px;"">Agent A","null","","","","",""
"null","","","video-keyboard-response","423","1028093","0.0-423.0","rlnr8fkd","","","null","","Agent A","veridical","FOR_REV_MAP_BLOBBY_STIM/1592047.bmp_pp51_L1_V1.0_veridical_freeview_isoTrue_fps144.mp4",""
"null","","","html-keyboard-response","424","1029597","0.0-424.0","rlnr8fkd","","<span style=""color:Black; font-size:50px;"">Agent B","null","","","","",""
"null","","","video-keyboard-response","425","1032362","0.0-425.0","rlnr8fkd","","","null","","Agent B","scrambled","FOR_REV_MAP_BLOBBY_STIM/1592047.bmp_pp51_L1_V1.0_veridical_freeview_isoTrue_fps144_reversed_REAL.mp4",""
"","","","call-function","426","1032363","0.0-426.0","rlnr8fkd","","","","","","","",""
"2325.3249999999534","{""judgement"":0}","[0]","survey-likert","427","1034690","0.0-427.0","rlnr8fkd","","","","","","","","0"
"1936","{""confidence"":2}","[0]","survey-likert","428","1036628","0.0-428.0","rlnr8fkd","","","","","","","",""
"","","","call-function","429","1036629","0.0-429.0","rlnr8fkd","","","","","","","",""
"null","","","html-keyboard-response","430","1038131","0.0-430.0","rlnr8fkd","","<span style=""color:Black; font-size:50px;"">Agent A","null","","","","",""
"null","","","video-keyboard-response","431","1040927","0.0-431.0","rlnr8fkd","","","null","","Agent A","veridical","FOR_REV_MAP_BLOBBY_STIM/1592747.bmp_pp53_L2_V1.0_veridical_freeview_isoTrue_fps144.mp4",""
"null","","","html-keyboard-response","432","1042430","0.0-432.0","rlnr8fkd","","<span style=""color:Black; font-size:50px;"">Agent B","null","","","","",""
"null","","","video-keyboard-response","433","1045187","0.0-433.0","rlnr8fkd","","","null","","Agent B","scrambled","FOR_REV_MAP_BLOBBY_STIM/1592747.bmp_pp53_L2_V1.0_veridical_freeview_isoTrue_fps144_reversed_REAL.mp4",""
"","","","call-function","434","1045189","0.0-434.0","rlnr8fkd","","","","","","","",""
"2948.7949999999255","{""judgement"":0}","[0]","survey-likert","435","1048139","0.0-435.0","rlnr8fkd","","","","","","","","0"
"2591.6299999998882","{""confidence"":2}","[0]","survey-likert","436","1050732","0.0-436.0","rlnr8fkd","","","","","","","",""
"","","","call-function","437","1050734","0.0-437.0","rlnr8fkd","","","","","","","",""
"null","","","html-keyboard-response","438","1052237","0.0-438.0","rlnr8fkd","","<span style=""color:Black; font-size:50px;"">Agent A","null","","","","",""
"null","","","video-keyboard-response","439","1055102","0.0-439.0","rlnr8fkd","","","null","","Agent A","scrambled","FOR_REV_MAP_BLOBBY_STIM/1592201.bmp_pp97_L3_V1.0_veridical_freeview_isoTrue_fps144_reversed_REAL.mp4",""
"null","","","html-keyboard-response","440","1056610","0.0-440.0","rlnr8fkd","","<span style=""color:Black; font-size:50px;"">Agent B","null","","","","",""
"null","","","video-keyboard-response","441","1059485","0.0-441.0","rlnr8fkd","","","null","","Agent B","veridical","FOR_REV_MAP_BLOBBY_STIM/1592201.bmp_pp97_L3_V1.0_veridical_freeview_isoTrue_fps144.mp4",""
"","","","call-function","442","1059486","0.0-442.0","rlnr8fkd","","","","","","","",""
"3357.9850000001024","{""judgement"":0}","[0]","survey-likert","443","1062846","0.0-443.0","rlnr8fkd","","","","","","","","1"
"3494.25","{""confidence"":2}","[0]","survey-likert","444","1066343","0.0-444.0","rlnr8fkd","","","","","","","",""
"","","","call-function","445","1066346","0.0-445.0","rlnr8fkd","","","","","","","",""
"null","","","html-keyboard-response","446","1067852","0.0-446.0","rlnr8fkd","","<span style=""color:Black; font-size:50px;"">Agent A","null","","","","",""
"null","","","video-keyboard-response","447","1070643","0.0-447.0","rlnr8fkd","","","null","","Agent A","veridical","FOR_REV_MAP_BLOBBY_STIM/1592168.bmp_pp71_L1_V1.0_veridical_freeview_isoTrue_fps144.mp4",""
"null","","","html-keyboard-response","448","1072148","0.0-448.0","rlnr8fkd","","<span style=""color:Black; font-size:50px;"">Agent B","null","","","","",""
"null","","","video-keyboard-response","449","1074902","0.0-449.0","rlnr8fkd","","","null","","Agent B","scrambled","FOR_REV_MAP_BLOBBY_STIM/1592168.bmp_pp71_L1_V1.0_veridical_freeview_isoTrue_fps144_reversed_REAL.mp4",""
"","","","call-function","450","1074904","0.0-450.0","rlnr8fkd","","","","","","","",""
"3487.9749999998603","{""judgement"":1}","[0]","survey-likert","451","1078393","0.0-451.0","rlnr8fkd","","","","","","","","0"
"2290.869999999879","{""confidence"":1}","[0]","survey-likert","452","1080686","0.0-452.0","rlnr8fkd","","","","","","","",""
"","","","call-function","453","1080688","0.0-453.0","rlnr8fkd","","","","","","","",""
"null","","","html-keyboard-response","454","1082192","0.0-454.0","rlnr8fkd","","<span style=""color:Black; font-size:50px;"">Agent A","null","","","","",""
"null","","","video-keyboard-response","455","1085043","0.0-455.0","rlnr8fkd","","","null","","Agent A","scrambled","FOR_REV_MAP_BLOBBY_STIM/498261.bmp_pp84_L3_V1.0_veridical_freeview_isoTrue_fps144_reversed_REAL.mp4",""
"null","","","html-keyboard-response","456","1086546","0.0-456.0","rlnr8fkd","","<span style=""color:Black; font-size:50px;"">Agent B","null","","","","",""
"null","","","video-keyboard-response","457","1089399","0.0-457.0","rlnr8fkd","","","null","","Agent B","veridical","FOR_REV_MAP_BLOBBY_STIM/498261.bmp_pp84_L3_V1.0_veridical_freeview_isoTrue_fps144.mp4",""
"","","","call-function","458","1089401","0.0-458.0","rlnr8fkd","","","","","","","",""
"4876.165000000037","{""judgement"":0}","[0]","survey-likert","459","1094279","0.0-459.0","rlnr8fkd","","","","","","","","1"
"2813.8950000000186","{""confidence"":0}","[0]","survey-likert","460","1097095","0.0-460.0","rlnr8fkd","","","","","","","",""
"","","","call-function","461","1097096","0.0-461.0","rlnr8fkd","","","","","","","",""
"null","","","html-keyboard-response","462","1098599","0.0-462.0","rlnr8fkd","","<span style=""color:Black; font-size:50px;"">Agent A","null","","","","",""
"null","","","video-keyboard-response","463","1101065","0.0-463.0","rlnr8fkd","","","null","","Agent A","scrambled","FOR_REV_MAP_BLOBBY_STIM/1592951.bmp_pp80_L3_V1.0_veridical_freeview_isoTrue_fps144_reversed_REAL.mp4",""
"null","","","html-keyboard-response","464","1102573","0.0-464.0","rlnr8fkd","","<span style=""color:Black; font-size:50px;"">Agent B","null","","","","",""
"null","","","video-keyboard-response","465","1105009","0.0-465.0","rlnr8fkd","","","null","","Agent B","veridical","FOR_REV_MAP_BLOBBY_STIM/1592951.bmp_pp80_L3_V1.0_veridical_freeview_isoTrue_fps144.mp4",""
"","","","call-function","466","1105010","0.0-466.0","rlnr8fkd","","","","","","","",""
"9602.729999999981","{""judgement"":0}","[0]","survey-likert","467","1114614","0.0-467.0","rlnr8fkd","","","","","","","","1"
"2905.755000000121","{""confidence"":1}","[0]","survey-likert","468","1117522","0.0-468.0","rlnr8fkd","","","","","","","",""
"","","","call-function","469","1117523","0.0-469.0","rlnr8fkd","","","","","","","",""
"null","","","html-keyboard-response","470","1119029","0.0-470.0","rlnr8fkd","","<span style=""color:Black; font-size:50px;"">Agent A","null","","","","",""
"null","","","video-keyboard-response","471","1121819","0.0-471.0","rlnr8fkd","","","null","","Agent A","scrambled","FOR_REV_MAP_BLOBBY_STIM/285932.bmp_pp64_L1_V1.0_veridical_freeview_isoTrue_fps144_reversed_REAL.mp4",""
"null","","","html-keyboard-response","472","1123322","0.0-472.0","rlnr8fkd","","<span style=""color:Black; font-size:50px;"">Agent B","null","","","","",""
"null","","","video-keyboard-response","473","1126110","0.0-473.0","rlnr8fkd","","","null","","Agent B","veridical","FOR_REV_MAP_BLOBBY_STIM/285932.bmp_pp64_L1_V1.0_veridical_freeview_isoTrue_fps144.mp4",""
"","","","call-function","474","1126112","0.0-474.0","rlnr8fkd","","","","","","","",""
"8203.579999999842","{""judgement"":1}","[0]","survey-likert","475","1134317","0.0-475.0","rlnr8fkd","","","","","","","","1"
"1902.6950000000652","{""confidence"":1}","[0]","survey-likert","476","1136222","0.0-476.0","rlnr8fkd","","","","","","","",""
"","","","call-function","477","1136223","0.0-477.0","rlnr8fkd","","","","","","","",""
"null","","","html-keyboard-response","478","1137725","0.0-478.0","rlnr8fkd","","<span style=""color:Black; font-size:50px;"">Agent A","null","","","","",""
"null","","","video-keyboard-response","479","1140545","0.0-479.0","rlnr8fkd","","","null","","Agent A","veridical","FOR_REV_MAP_BLOBBY_STIM/713652.bmp_pp89_L1_V1.0_veridical_freeview_isoTrue_fps144.mp4",""
"null","","","html-keyboard-response","480","1142049","0.0-480.0","rlnr8fkd","","<span style=""color:Black; font-size:50px;"">Agent B","null","","","","",""
"null","","","video-keyboard-response","481","1144852","0.0-481.0","rlnr8fkd","","","null","","Agent B","scrambled","FOR_REV_MAP_BLOBBY_STIM/713652.bmp_pp89_L1_V1.0_veridical_freeview_isoTrue_fps144_reversed_REAL.mp4",""
"","","","call-function","482","1144853","0.0-482.0","rlnr8fkd","","","","","","","",""
"5020.165000000037","{""judgement"":0}","[0]","survey-likert","483","1149874","0.0-483.0","rlnr8fkd","","","","","","","","0"
"1380.0600000000559","{""confidence"":1}","[0]","survey-likert","484","1151257","0.0-484.0","rlnr8fkd","","","","","","","",""
"","","","call-function","485","1151259","0.0-485.0","rlnr8fkd","","","","","","","",""
"null","","","html-keyboard-response","486","1152760","0.0-486.0","rlnr8fkd","","<span style=""color:Black; font-size:50px;"">Agent A","null","","","","",""
"null","","","video-keyboard-response","487","1155722","0.0-487.0","rlnr8fkd","","","null","","Agent A","scrambled","FOR_REV_MAP_BLOBBY_STIM/1592568.bmp_pp71_L1_V1.0_veridical_freeview_isoTrue_fps144_reversed_REAL.mp4",""
"null","","","html-keyboard-response","488","1157230","0.0-488.0","rlnr8fkd","","<span style=""color:Black; font-size:50px;"">Agent B","null","","","","",""
"null","","","video-keyboard-response","489","1160193","0.0-489.0","rlnr8fkd","","","null","","Agent B","veridical","FOR_REV_MAP_BLOBBY_STIM/1592568.bmp_pp71_L1_V1.0_veridical_freeview_isoTrue_fps144.mp4",""
"","","","call-function","490","1160195","0.0-490.0","rlnr8fkd","","","","","","","",""
"3467.149999999907","{""judgement"":1}","[0]","survey-likert","491","1163663","0.0-491.0","rlnr8fkd","","","","","","","","1"
"1975.0900000000838","{""confidence"":1}","[0]","survey-likert","492","1165640","0.0-492.0","rlnr8fkd","","","","","","","",""
"","","","call-function","493","1165641","0.0-493.0","rlnr8fkd","","","","","","","",""
"null","","","html-keyboard-response","494","1167146","0.0-494.0","rlnr8fkd","","<span style=""color:Black; font-size:50px;"">Agent A","null","","","","",""
"null","","","video-keyboard-response","495","1169976","0.0-495.0","rlnr8fkd","","","null","","Agent A","scrambled","FOR_REV_MAP_BLOBBY_STIM/1159508.bmp_pp151_L1_V1.0_veridical_freeview_isoTrue_fps144_reversed_REAL.mp4",""
"null","","","html-keyboard-response","496","1171479","0.0-496.0","rlnr8fkd","","<span style=""color:Black; font-size:50px;"">Agent B","null","","","","",""
"null","","","video-keyboard-response","497","1174317","0.0-497.0","rlnr8fkd","","","null","","Agent B","veridical","FOR_REV_MAP_BLOBBY_STIM/1159508.bmp_pp151_L1_V1.0_veridical_freeview_isoTrue_fps144.mp4",""
"","","","call-function","498","1174319","0.0-498.0","rlnr8fkd","","","","","","","",""
"2721.6049999999814","{""judgement"":0}","[0]","survey-likert","499","1177042","0.0-499.0","rlnr8fkd","","","","","","","","1"
"1616.9849999998696","{""confidence"":1}","[0]","survey-likert","500","1178661","0.0-500.0","rlnr8fkd","","","","","","","",""
"50990.7649999999","","","instructions","501","1229653","0.0-501.0","rlnr8fkd","[{""page_index"":0,""viewing_time"":2589.564999999944},{""page_index"":1,""viewing_time"":981.0100000000093},{""page_index"":2,""viewing_time"":47419.96999999997}]","","","","","","",""
"4425.614999999991","","","instructions","502","1234080","0.0-502.0","rlnr8fkd","[{""page_index"":0,""viewing_time"":981.4449999998324},{""page_index"":1,""viewing_time"":694.9200000001583},{""page_index"":2,""viewing_time"":2749.1299999998882}]","","","","","","",""
"","","","call-function","503","1234081","0.0-503.0","rlnr8fkd","","","","","","","",""
"null","","","html-keyboard-response","504","1235583","0.0-504.0","rlnr8fkd","","<span style=""color:Black; font-size:50px;"">Agent A","null","","","","",""
"null","","","video-keyboard-response","505","1238384","0.0-505.0","rlnr8fkd","","","null","","Agent A","scrambled","FOR_REV_MAP_BLOBBY_STIM/107909.bmp_pp95_L2_V1.0_veridical_freeview_isoTrue_fps144_reversed_REAL.mp4",""
"null","","","html-keyboard-response","506","1239890","0.0-506.0","rlnr8fkd","","<span style=""color:Black; font-size:50px;"">Agent B","null","","","","",""
"null","","","video-keyboard-response","507","1242688","0.0-507.0","rlnr8fkd","","","null","","Agent B","veridical","FOR_REV_MAP_BLOBBY_STIM/107909.bmp_pp95_L2_V1.0_veridical_freeview_isoTrue_fps144.mp4",""
"","","","call-function","508","1242689","0.0-508.0","rlnr8fkd","","","","","","","",""
"20534.475000000093","{""judgement"":1}","[0]","survey-likert","509","1263225","0.0-509.0","rlnr8fkd","","","","","","","","1"
"2376.845000000205","{""confidence"":0}","[0]","survey-likert","510","1265604","0.0-510.0","rlnr8fkd","","","","","","","",""
"","","","call-function","511","1265605","0.0-511.0","rlnr8fkd","","","","","","","",""
"null","","","html-keyboard-response","512","1267109","0.0-512.0","rlnr8fkd","","<span style=""color:Black; font-size:50px;"">Agent A","null","","","","",""
"null","","","video-keyboard-response","513","1269691","0.0-513.0","rlnr8fkd","","","null","","Agent A","veridical","FOR_REV_MAP_BLOBBY_STIM/498398.bmp_pp81_L1_V1.0_veridical_freeview_isoTrue_fps144.mp4",""
"null","","","html-keyboard-response","514","1271194","0.0-514.0","rlnr8fkd","","<span style=""color:Black; font-size:50px;"">Agent B","null","","","","",""
"null","","","video-keyboard-response","515","1273784","0.0-515.0","rlnr8fkd","","","null","","Agent B","scrambled","FOR_REV_MAP_BLOBBY_STIM/498398.bmp_pp81_L1_V1.0_veridical_freeview_isoTrue_fps144_reversed_REAL.mp4",""
"","","","call-function","516","1273786","0.0-516.0","rlnr8fkd","","","","","","","",""
"1688.440000000177","{""judgement"":1}","[0]","survey-likert","517","1275477","0.0-517.0","rlnr8fkd","","","","","","","","0"
"1508.4299999999348","{""confidence"":2}","[0]","survey-likert","518","1276987","0.0-518.0","rlnr8fkd","","","","","","","",""
"","","","call-function","519","1276989","0.0-519.0","rlnr8fkd","","","","","","","",""
"null","","","html-keyboard-response","520","1278492","0.0-520.0","rlnr8fkd","","<span style=""color:Black; font-size:50px;"">Agent A","null","","","","",""
"null","","","video-keyboard-response","521","1281239","0.0-521.0","rlnr8fkd","","","null","","Agent A","veridical","FOR_REV_MAP_BLOBBY_STIM/1591975.bmp_pp88_L2_V1.0_veridical_freeview_isoTrue_fps144.mp4",""
"null","","","html-keyboard-response","522","1282744","0.0-522.0","rlnr8fkd","","<span style=""color:Black; font-size:50px;"">Agent B","null","","","","",""
"null","","","video-keyboard-response","523","1285476","0.0-523.0","rlnr8fkd","","","null","","Agent B","scrambled","FOR_REV_MAP_BLOBBY_STIM/1591975.bmp_pp88_L2_V1.0_veridical_freeview_isoTrue_fps144_reversed_REAL.mp4",""
"","","","call-function","524","1285478","0.0-524.0","rlnr8fkd","","","","","","","",""
"1840.0449999999255","{""judgement"":1}","[0]","survey-likert","525","1287320","0.0-525.0","rlnr8fkd","","","","","","","","0"
"1584.3149999999441","{""confidence"":2}","[0]","survey-likert","526","1288906","0.0-526.0","rlnr8fkd","","","","","","","",""
"","","","call-function","527","1288908","0.0-527.0","rlnr8fkd","","","","","","","",""
"null","","","html-keyboard-response","528","1290410","0.0-528.0","rlnr8fkd","","<span style=""color:Black; font-size:50px;"">Agent A","null","","","","",""
"null","","","video-keyboard-response","529","1293142","0.0-529.0","rlnr8fkd","","","null","","Agent A","veridical","FOR_REV_MAP_BLOBBY_STIM/285959.bmp_pp93_L1_V1.0_veridical_freeview_isoTrue_fps144.mp4",""
"null","","","html-keyboard-response","530","1294646","0.0-530.0","rlnr8fkd","","<span style=""color:Black; font-size:50px;"">Agent B","null","","","","",""
"null","","","video-keyboard-response","531","1297396","0.0-531.0","rlnr8fkd","","","null","","Agent B","scrambled","FOR_REV_MAP_BLOBBY_STIM/285959.bmp_pp93_L1_V1.0_veridical_freeview_isoTrue_fps144_reversed_REAL.mp4",""
"","","","call-function","532","1297398","0.0-532.0","rlnr8fkd","","","","","","","",""
"1820.1350000000093","{""judgement"":1}","[0]","survey-likert","533","1299219","0.0-533.0","rlnr8fkd","","","","","","","","0"
"1320.9450000000652","{""confidence"":1}","[0]","survey-likert","534","1300542","0.0-534.0","rlnr8fkd","","","","","","","",""
"","","","call-function","535","1300544","0.0-535.0","rlnr8fkd","","","","","","","",""
"null","","","html-keyboard-response","536","1302048","0.0-536.0","rlnr8fkd","","<span style=""color:Black; font-size:50px;"">Agent A","null","","","","",""
"null","","","video-keyboard-response","537","1304835","0.0-537.0","rlnr8fkd","","","null","","Agent A","veridical","FOR_REV_MAP_BLOBBY_STIM/1592298.bmp_pp56_L3_V1.0_veridical_freeview_isoTrue_fps144.mp4",""
"null","","","html-keyboard-response","538","1306338","0.0-538.0","rlnr8fkd","","<span style=""color:Black; font-size:50px;"">Agent B","null","","","","",""
"null","","","video-keyboard-response","539","1309112","0.0-539.0","rlnr8fkd","","","null","","Agent B","scrambled","FOR_REV_MAP_BLOBBY_STIM/1592298.bmp_pp56_L3_V1.0_veridical_freeview_isoTrue_fps144_reversed_REAL.mp4",""
"","","","call-function","540","1309113","0.0-540.0","rlnr8fkd","","","","","","","",""
"2654.619999999879","{""judgement"":0}","[0]","survey-likert","541","1311769","0.0-541.0","rlnr8fkd","","","","","","","","0"
"2454.4150000000373","{""confidence"":2}","[0]","survey-likert","542","1314226","0.0-542.0","rlnr8fkd","","","","","","","",""
"","","","call-function","543","1314227","0.0-543.0","rlnr8fkd","","","","","","","",""
"null","","","html-keyboard-response","544","1315728","0.0-544.0","rlnr8fkd","","<span style=""color:Black; font-size:50px;"">Agent A","null","","","","",""
"null","","","video-keyboard-response","545","1318488","0.0-545.0","rlnr8fkd","","","null","","Agent A","scrambled","FOR_REV_MAP_BLOBBY_STIM/1159819.bmp_pp151_L1_V1.0_veridical_freeview_isoTrue_fps144_reversed_REAL.mp4",""
"null","","","html-keyboard-response","546","1319991","0.0-546.0","rlnr8fkd","","<span style=""color:Black; font-size:50px;"">Agent B","null","","","","",""
"null","","","video-keyboard-response","547","1322752","0.0-547.0","rlnr8fkd","","","null","","Agent B","veridical","FOR_REV_MAP_BLOBBY_STIM/1159819.bmp_pp151_L1_V1.0_veridical_freeview_isoTrue_fps144.mp4",""
"","","","call-function","548","1322754","0.0-548.0","rlnr8fkd","","","","","","","",""
"10847.465000000084","{""judgement"":0}","[0]","survey-likert","549","1333602","0.0-549.0","rlnr8fkd","","","","","","","","1"
"27393.97499999986","{""confidence"":1}","[0]","survey-likert","550","1360998","0.0-550.0","rlnr8fkd","","","","","","","",""
"","","","call-function","551","1361000","0.0-551.0","rlnr8fkd","","","","","","","",""
"null","","","html-keyboard-response","552","1362501","0.0-552.0","rlnr8fkd","","<span style=""color:Black; font-size:50px;"">Agent A","null","","","","",""
"null","","","video-keyboard-response","553","1365422","0.0-553.0","rlnr8fkd","","","null","","Agent A","scrambled","FOR_REV_MAP_BLOBBY_STIM/498025.bmp_pp81_L1_V1.0_veridical_freeview_isoTrue_fps144_reversed_REAL.mp4",""
"null","","","html-keyboard-response","554","1366927","0.0-554.0","rlnr8fkd","","<span style=""color:Black; font-size:50px;"">Agent B","null","","","","",""
"null","","","video-keyboard-response","555","1369861","0.0-555.0","rlnr8fkd","","","null","","Agent B","veridical","FOR_REV_MAP_BLOBBY_STIM/498025.bmp_pp81_L1_V1.0_veridical_freeview_isoTrue_fps144.mp4",""
"","","","call-function","556","1369862","0.0-556.0","rlnr8fkd","","","","","","","",""
"3748.1450000000186","{""judgement"":0}","[0]","survey-likert","557","1373612","0.0-557.0","rlnr8fkd","","","","","","","","1"
"2029.0150000001304","{""confidence"":2}","[0]","survey-likert","558","1375643","0.0-558.0","rlnr8fkd","","","","","","","",""
"","","","call-function","559","1375645","0.0-559.0","rlnr8fkd","","","","","","","",""
"null","","","html-keyboard-response","560","1377150","0.0-560.0","rlnr8fkd","","<span style=""color:Black; font-size:50px;"">Agent A","null","","","","",""
"null","","","video-keyboard-response","561","1379759","0.0-561.0","rlnr8fkd","","","null","","Agent A","scrambled","FOR_REV_MAP_BLOBBY_STIM/1159874.bmp_pp96_L2_V1.0_veridical_freeview_isoTrue_fps144_reversed_REAL.mp4",""
"null","","","html-keyboard-response","562","1381265","0.0-562.0","rlnr8fkd","","<span style=""color:Black; font-size:50px;"">Agent B","null","","","","",""
"null","","","video-keyboard-response","563","1383889","0.0-563.0","rlnr8fkd","","","null","","Agent B","veridical","FOR_REV_MAP_BLOBBY_STIM/1159874.bmp_pp96_L2_V1.0_veridical_freeview_isoTrue_fps144.mp4",""
"","","","call-function","564","1383890","0.0-564.0","rlnr8fkd","","","","","","","",""
"3538.0200000000186","{""judgement"":1}","[0]","survey-likert","565","1387430","0.0-565.0","rlnr8fkd","","","","","","","","1"
"1367.6350000000093","{""confidence"":2}","[0]","survey-likert","566","1388799","0.0-566.0","rlnr8fkd","","","","","","","",""
"","","","call-function","567","1388801","0.0-567.0","rlnr8fkd","","","","","","","",""
"null","","","html-keyboard-response","568","1390303","0.0-568.0","rlnr8fkd","","<span style=""color:Black; font-size:50px;"">Agent A","null","","","","",""
"null","","","video-keyboard-response","569","1392418","0.0-569.0","rlnr8fkd","","","null","","Agent A","scrambled","FOR_REV_MAP_BLOBBY_STIM/1159973.bmp_pp98_L1_V1.0_veridical_freeview_isoTrue_fps144_reversed_REAL.mp4",""
"null","","","html-keyboard-response","570","1393926","0.0-570.0","rlnr8fkd","","<span style=""color:Black; font-size:50px;"">Agent B","null","","","","",""
"null","","","video-keyboard-response","571","1396034","0.0-571.0","rlnr8fkd","","","null","","Agent B","veridical","FOR_REV_MAP_BLOBBY_STIM/1159973.bmp_pp98_L1_V1.0_veridical_freeview_isoTrue_fps144.mp4",""
"","","","call-function","572","1396035","0.0-572.0","rlnr8fkd","","","","","","","",""
"2337.060000000056","{""judgement"":0}","[0]","survey-likert","573","1398373","0.0-573.0","rlnr8fkd","","","","","","","","1"
"1584.8349999999627","{""confidence"":2}","[0]","survey-likert","574","1399960","0.0-574.0","rlnr8fkd","","","","","","","",""
"","","","call-function","575","1399962","0.0-575.0","rlnr8fkd","","","","","","","",""
"null","","","html-keyboard-response","576","1401465","0.0-576.0","rlnr8fkd","","<span style=""color:Black; font-size:50px;"">Agent A","null","","","","",""
"null","","","video-keyboard-response","577","1404282","0.0-577.0","rlnr8fkd","","","null","","Agent A","scrambled","FOR_REV_MAP_BLOBBY_STIM/713689.bmp_pp153_L3_V1.0_veridical_freeview_isoTrue_fps144_reversed_REAL.mp4",""
"null","","","html-keyboard-response","578","1405788","0.0-578.0","rlnr8fkd","","<span style=""color:Black; font-size:50px;"">Agent B","null","","","","",""
"null","","","video-keyboard-response","579","1408616","0.0-579.0","rlnr8fkd","","","null","","Agent B","veridical","FOR_REV_MAP_BLOBBY_STIM/713689.bmp_pp153_L3_V1.0_veridical_freeview_isoTrue_fps144.mp4",""
"","","","call-function","580","1408617","0.0-580.0","rlnr8fkd","","","","","","","",""
"2384.695000000065","{""judgement"":1}","[0]","survey-likert","581","1411003","0.0-581.0","rlnr8fkd","","","","","","","","1"
"1583.8100000000559","{""confidence"":2}","[0]","survey-likert","582","1412589","0.0-582.0","rlnr8fkd","","","","","","","",""
"1993.7250000000931","","","instructions","583","1414585","0.0-583.0","rlnr8fkd","[{""page_index"":0,""viewing_time"":1993.5}]","","","","","","",""
"2473.8899999998976","","","instructions","584","1417060","0.0-584.0","rlnr8fkd","[{""page_index"":0,""viewing_time"":2473.655000000028}]","","","","","","",""
"31968.61499999999","{""post-1"":1}","[0]","survey-likert","585","1449031","0.0-585.0","rlnr8fkd","","","","","","","",""
"5244.949999999953","{""post-1"":1}","[0]","survey-likert","586","1454280","0.0-586.0","rlnr8fkd","","","","","","","",""
"9144.479999999981","{""post-2"":1}","[0]","survey-likert","587","1463428","0.0-587.0","rlnr8fkd","","","","","","","",""
"1867.410000000149","{""post-2"":0}","[0]","survey-likert","588","1465298","0.0-588.0","rlnr8fkd","","","","","","","",""
"5409.225000000093","{""post-3"":2}","[0]","survey-likert","589","1470709","0.0-589.0","rlnr8fkd","","","","","","","",""
"4398.120000000112","{""post-3"":1}","[0]","survey-likert","590","1475110","0.0-590.0","rlnr8fkd","","","","","","","",""
"7442.385000000009","{""post-4"":1}","[0]","survey-likert","591","1482554","0.0-591.0","rlnr8fkd","","","","","","","",""
"21599.810000000056","{""post-4"":1}","[0]","survey-likert","592","1504156","0.0-592.0","rlnr8fkd","","","","","","","",""
"9076.889999999898","{""post-5"":1}","[0]","survey-likert","593","1513236","0.0-593.0","rlnr8fkd","","","","","","","",""
"3382.935000000056","{""post-5"":3}","[0]","survey-likert","594","1516621","0.0-594.0","rlnr8fkd","","","","","","","",""
"41218.11499999999","{""Q0"":""This was super interesting, and curiously more challenging. I found my eyes getting more tired following the spot without an image in the background.""}","","survey-text","595","1557848","0.0-595.0","rlnr8fkd","","","","","","","",""
"90600.7749999999","{""Q0"":""The easiest part was following the spots on these particular black screens. There werent any background images to distract or pull focus. I actually had to be more acutely aware in these instances than in the previous segment.""}","","survey-text","596","1648456","0.0-596.0","rlnr8fkd","","","","","","","",""
"122419.37999999989","{""Q0"":""Not getting distracted. About half way through, I realized some (if not all? hard to say) patterns simply reversed themselves from agent a to agent b; therefor, I found it intrinsically difficult not to favor agent a because in my mind, I automatically deemed it as the \""original\"". ""}","","survey-text","597","1770883","0.0-597.0","rlnr8fkd","","","","","","","",""
"2512.159999999916","","","instructions","598","1773398","0.0-598.0","rlnr8fkd","[{""page_index"":0,""viewing_time"":2511.75}]","","","","","","",""
"63926.054999999935","{""Experimenter_end"":[""Printed ID# rlnr8fkd on consent form"",""Given subject SONA credit or payment"",""Given the subject debrief form""]}","[0]","survey-multi-select","599","1837329","0.0-599.0","rlnr8fkd","","","","","","","",""
