"rt","responses","question_order","trial_type","trial_index","time_elapsed","internal_node_id","ID","view_history","stimulus","key_press","value","agent","condition","image","correct_answer"
"73032.015","{""Experimenter"":[""Confirmed subject's identity (ID card)"",""Confirmed normal or corrected-to-normal vision"",""Obtained consent (signature and date)"",""Checked the test room lighting"",""Checked computer screen lighting"",""Checked distance from screen to chin rest (50cm)"",""Cleaned and adjusted chin rest"",""Counterbalanced the order of the tasks"",""Opened the experiment in Firefox"",""Made the experiment full screen"",""Encouraged subject to silence phone, put away distractors, etc.""]}","[0]","survey-multi-select","0","73041","0.0-0.0","rneumf3l","","","","","","","",""
"27345.165000000008","","","instructions","1","100388","0.0-1.0","rneumf3l","[{""page_index"":0,""viewing_time"":27345.01000000001}]","","","","","","",""
"20198.795","","","instructions","2","120588","0.0-2.0","rneumf3l","[{""page_index"":0,""viewing_time"":2305.7999999999884},{""page_index"":1,""viewing_time"":12208.915000000008},{""page_index"":2,""viewing_time"":5683.959999999992}]","","","","","","",""
"2522.199999999997","","","instructions","3","123110","0.0-3.0","rneumf3l","[{""page_index"":0,""viewing_time"":2522.084999999992}]","","","","","","",""
"null","","","video-keyboard-response","4","126187","0.0-4.0","rneumf3l","","","null","","","","",""
"14518.575000000012","","","instructions","5","140706","0.0-5.0","rneumf3l","[{""page_index"":0,""viewing_time"":2219.324999999997},{""page_index"":1,""viewing_time"":3145.0550000000076},{""page_index"":2,""viewing_time"":1622.070000000007},{""page_index"":3,""viewing_time"":3723.970000000001},{""page_index"":4,""viewing_time"":3808.0350000000035}]","","","","","","",""
"5670.4250000000175","","","instructions","6","146377","0.0-6.0","rneumf3l","[{""page_index"":0,""viewing_time"":5670.295000000013}]","","","","","","",""
"","","","call-function","7","146378","0.0-7.0","rneumf3l","","","","","","","",""
"null","","","html-keyboard-response","8","147880","0.0-8.0","rneumf3l","","<span style=""color:Black; font-size:50px;"">Agent A","null","","","","",""
"null","","","video-keyboard-response","9","150960","0.0-9.0","rneumf3l","","","null","","Agent A","veridical","STIM_SET_1_REAL/1160127.bmp_pp90_L2_V1.0_veridical_freeview_isoFalse_fps144.mp4",""
"null","","","html-keyboard-response","10","152463","0.0-10.0","rneumf3l","","<span style=""color:Black; font-size:50px;"">Agent B","null","","","","",""
"null","","","video-keyboard-response","11","155539","0.0-11.0","rneumf3l","","","null","","Agent B","scrambled","STIM_SET_3/498372.bmp_pp95_L2_V2_veridical_freeview_isoFalsemismatch_1160127.bmp_L2_fps90.mp4",""
"","","","call-function","12","155540","0.0-12.0","rneumf3l","","","","","","","",""
"3063.350000000006","{""judgement"":0}","[0]","survey-likert","13","158604","0.0-13.0","rneumf3l","","","","","","","","0"
"2615.6699999999837","{""confidence"":1}","[0]","survey-likert","14","161221","0.0-14.0","rneumf3l","","","","","","","",""
"","","","call-function","15","161222","0.0-15.0","rneumf3l","","","","","","","",""
"null","","","html-keyboard-response","16","162724","0.0-16.0","rneumf3l","","<span style=""color:Black; font-size:50px;"">Agent A","null","","","","",""
"null","","","video-keyboard-response","17","165804","0.0-17.0","rneumf3l","","","null","","Agent A","veridical","STIM_SET_1_REAL/713666.bmp_pp97_L3_V1.0_veridical_freeview_isoFalse_fps144.mp4",""
"null","","","html-keyboard-response","18","167307","0.0-18.0","rneumf3l","","<span style=""color:Black; font-size:50px;"">Agent B","null","","","","",""
"null","","","video-keyboard-response","19","170415","0.0-19.0","rneumf3l","","","null","","Agent B","scrambled","STIM_SET_3/1592289.bmp_pp92_L3_V2_veridical_freeview_isoFalsemismatch_713666.bmp_L3_fps90.mp4",""
"","","","call-function","20","170415","0.0-20.0","rneumf3l","","","","","","","",""
"3045.9550000000163","{""judgement"":0}","[0]","survey-likert","21","173463","0.0-21.0","rneumf3l","","","","","","","","0"
"2385.9400000000023","{""confidence"":2}","[0]","survey-likert","22","175850","0.0-22.0","rneumf3l","","","","","","","",""
"","","","call-function","23","175851","0.0-23.0","rneumf3l","","","","","","","",""
"null","","","html-keyboard-response","24","177355","0.0-24.0","rneumf3l","","<span style=""color:Black; font-size:50px;"">Agent A","null","","","","",""
"null","","","video-keyboard-response","25","180459","0.0-25.0","rneumf3l","","","null","","Agent A","veridical","STIM_SET_1_REAL/498155.bmp_pp61_L2_V1.0_veridical_freeview_isoFalse_fps144.mp4",""
"null","","","html-keyboard-response","26","181963","0.0-26.0","rneumf3l","","<span style=""color:Black; font-size:50px;"">Agent B","null","","","","",""
"null","","","video-keyboard-response","27","185032","0.0-27.0","rneumf3l","","","null","","Agent B","scrambled","STIM_SET_3/498258.bmp_pp51_L1_V2_veridical_freeview_isoFalsemismatch_498155.bmp_L2_fps90.mp4",""
"","","","call-function","28","185033","0.0-28.0","rneumf3l","","","","","","","",""
"3271.1300000000047","{""judgement"":0}","[0]","survey-likert","29","188305","0.0-29.0","rneumf3l","","","","","","","","0"
"2445.5599999999977","{""confidence"":2}","[0]","survey-likert","30","190752","0.0-30.0","rneumf3l","","","","","","","",""
"","","","call-function","31","190753","0.0-31.0","rneumf3l","","","","","","","",""
"null","","","html-keyboard-response","32","192254","0.0-32.0","rneumf3l","","<span style=""color:Black; font-size:50px;"">Agent A","null","","","","",""
"null","","","video-keyboard-response","33","195341","0.0-33.0","rneumf3l","","","null","","Agent A","scrambled","STIM_SET_3/1592921.bmp_pp69_L3_V2_veridical_freeview_isoFalsemismatch_713211.bmp_L3_fps90.mp4",""
"null","","","html-keyboard-response","34","196845","0.0-34.0","rneumf3l","","<span style=""color:Black; font-size:50px;"">Agent B","null","","","","",""
"null","","","video-keyboard-response","35","199920","0.0-35.0","rneumf3l","","","null","","Agent B","veridical","STIM_SET_1_REAL/713211.bmp_pp100_L3_V1.0_veridical_freeview_isoFalse_fps144.mp4",""
"","","","call-function","36","199920","0.0-36.0","rneumf3l","","","","","","","",""
"2876.390000000014","{""judgement"":1}","[0]","survey-likert","37","202797","0.0-37.0","rneumf3l","","","","","","","","1"
"2659.274999999994","{""confidence"":2}","[0]","survey-likert","38","205458","0.0-38.0","rneumf3l","","","","","","","",""
"","","","call-function","39","205459","0.0-39.0","rneumf3l","","","","","","","",""
"null","","","html-keyboard-response","40","206964","0.0-40.0","rneumf3l","","<span style=""color:Black; font-size:50px;"">Agent A","null","","","","",""
"null","","","video-keyboard-response","41","210050","0.0-41.0","rneumf3l","","","null","","Agent A","veridical","STIM_SET_1_REAL/1593041.bmp_pp58_L1_V1.0_veridical_freeview_isoFalse_fps144.mp4",""
"null","","","html-keyboard-response","42","211552","0.0-42.0","rneumf3l","","<span style=""color:Black; font-size:50px;"">Agent B","null","","","","",""
"null","","","video-keyboard-response","43","214654","0.0-43.0","rneumf3l","","","null","","Agent B","scrambled","STIM_SET_3/1591781.bmp_pp63_L1_V2_veridical_freeview_isoFalsemismatch_1593041.bmp_L1_fps90.mp4",""
"","","","call-function","44","214654","0.0-44.0","rneumf3l","","","","","","","",""
"3515.1750000000175","{""judgement"":0}","[0]","survey-likert","45","218170","0.0-45.0","rneumf3l","","","","","","","","0"
"1832.640000000014","{""confidence"":0}","[0]","survey-likert","46","220004","0.0-46.0","rneumf3l","","","","","","","",""
"","","","call-function","47","220005","0.0-47.0","rneumf3l","","","","","","","",""
"null","","","html-keyboard-response","48","221507","0.0-48.0","rneumf3l","","<span style=""color:Black; font-size:50px;"">Agent A","null","","","","",""
"null","","","video-keyboard-response","49","224614","0.0-49.0","rneumf3l","","","null","","Agent A","scrambled","STIM_SET_3/1592567.bmp_pp70_L2_V2_veridical_freeview_isoFalsemismatch_713135.bmp_L2_fps90.mp4",""
"null","","","html-keyboard-response","50","226117","0.0-50.0","rneumf3l","","<span style=""color:Black; font-size:50px;"">Agent B","null","","","","",""
"null","","","video-keyboard-response","51","229227","0.0-51.0","rneumf3l","","","null","","Agent B","veridical","STIM_SET_1_REAL/713135.bmp_pp54_L2_V1.0_veridical_freeview_isoFalse_fps144.mp4",""
"","","","call-function","52","229227","0.0-52.0","rneumf3l","","","","","","","",""
"3291.899999999994","{""judgement"":1}","[0]","survey-likert","53","232520","0.0-53.0","rneumf3l","","","","","","","","1"
"2585.9649999999965","{""confidence"":2}","[0]","survey-likert","54","235107","0.0-54.0","rneumf3l","","","","","","","",""
"","","","call-function","55","235108","0.0-55.0","rneumf3l","","","","","","","",""
"null","","","html-keyboard-response","56","236609","0.0-56.0","rneumf3l","","<span style=""color:Black; font-size:50px;"">Agent A","null","","","","",""
"null","","","video-keyboard-response","57","239716","0.0-57.0","rneumf3l","","","null","","Agent A","veridical","STIM_SET_1_REAL/713749.bmp_pp88_L2_V1.0_veridical_freeview_isoFalse_fps144.mp4",""
"null","","","html-keyboard-response","58","241219","0.0-58.0","rneumf3l","","<span style=""color:Black; font-size:50px;"">Agent B","null","","","","",""
"null","","","video-keyboard-response","59","244322","0.0-59.0","rneumf3l","","","null","","Agent B","scrambled","STIM_SET_3/713858.bmp_pp57_L1_V2_veridical_freeview_isoFalsemismatch_713749.bmp_L2_fps90.mp4",""
"","","","call-function","60","244323","0.0-60.0","rneumf3l","","","","","","","",""
"3309.7549999999756","{""judgement"":0}","[0]","survey-likert","61","247633","0.0-61.0","rneumf3l","","","","","","","","0"
"2948.9100000000035","{""confidence"":1}","[0]","survey-likert","62","250583","0.0-62.0","rneumf3l","","","","","","","",""
"","","","call-function","63","250584","0.0-63.0","rneumf3l","","","","","","","",""
"null","","","html-keyboard-response","64","252087","0.0-64.0","rneumf3l","","<span style=""color:Black; font-size:50px;"">Agent A","null","","","","",""
"null","","","video-keyboard-response","65","255149","0.0-65.0","rneumf3l","","","null","","Agent A","scrambled","STIM_SET_3/1159392.bmp_pp96_L2_V2_veridical_freeview_isoFalsemismatch_1592934.bmp_L1_fps90.mp4",""
"null","","","html-keyboard-response","66","256653","0.0-66.0","rneumf3l","","<span style=""color:Black; font-size:50px;"">Agent B","null","","","","",""
"null","","","video-keyboard-response","67","259724","0.0-67.0","rneumf3l","","","null","","Agent B","veridical","STIM_SET_1_REAL/1592934.bmp_pp63_L1_V1.0_veridical_freeview_isoFalse_fps144.mp4",""
"","","","call-function","68","259724","0.0-68.0","rneumf3l","","","","","","","",""
"4114.205000000016","{""judgement"":1}","[0]","survey-likert","69","263839","0.0-69.0","rneumf3l","","","","","","","","1"
"2663.655000000028","{""confidence"":0}","[0]","survey-likert","70","266504","0.0-70.0","rneumf3l","","","","","","","",""
"","","","call-function","71","266505","0.0-71.0","rneumf3l","","","","","","","",""
"null","","","html-keyboard-response","72","268006","0.0-72.0","rneumf3l","","<span style=""color:Black; font-size:50px;"">Agent A","null","","","","",""
"null","","","video-keyboard-response","73","271068","0.0-73.0","rneumf3l","","","null","","Agent A","veridical","STIM_SET_1_REAL/1159447.bmp_pp70_L2_V1.0_veridical_freeview_isoFalse_fps144.mp4",""
"null","","","html-keyboard-response","74","272572","0.0-74.0","rneumf3l","","<span style=""color:Black; font-size:50px;"">Agent B","null","","","","",""
"null","","","video-keyboard-response","75","275644","0.0-75.0","rneumf3l","","","null","","Agent B","scrambled","STIM_SET_3/1592150.bmp_pp77_L3_V2_veridical_freeview_isoFalsemismatch_1159447.bmp_L2_fps90.mp4",""
"","","","call-function","76","275645","0.0-76.0","rneumf3l","","","","","","","",""
"3109.899999999965","{""judgement"":0}","[0]","survey-likert","77","278755","0.0-77.0","rneumf3l","","","","","","","","0"
"1940.8499999999767","{""confidence"":2}","[0]","survey-likert","78","280697","0.0-78.0","rneumf3l","","","","","","","",""
"","","","call-function","79","280698","0.0-79.0","rneumf3l","","","","","","","",""
"null","","","html-keyboard-response","80","282199","0.0-80.0","rneumf3l","","<span style=""color:Black; font-size:50px;"">Agent A","null","","","","",""
"null","","","video-keyboard-response","81","285295","0.0-81.0","rneumf3l","","","null","","Agent A","veridical","STIM_SET_1_REAL/1592890.bmp_pp82_L2_V1.0_veridical_freeview_isoFalse_fps144.mp4",""
"null","","","html-keyboard-response","82","286801","0.0-82.0","rneumf3l","","<span style=""color:Black; font-size:50px;"">Agent B","null","","","","",""
"null","","","video-keyboard-response","83","289914","0.0-83.0","rneumf3l","","","null","","Agent B","scrambled","STIM_SET_3/1592168.bmp_pp71_L1_V2_veridical_freeview_isoFalsemismatch_1592890.bmp_L2_fps90.mp4",""
"","","","call-function","84","289916","0.0-84.0","rneumf3l","","","","","","","",""
"4147.890000000014","{""judgement"":1}","[0]","survey-likert","85","294064","0.0-85.0","rneumf3l","","","","","","","","0"
"3395.445000000007","{""confidence"":0}","[0]","survey-likert","86","297462","0.0-86.0","rneumf3l","","","","","","","",""
"19738.820000000007","","","instructions","87","317202","0.0-87.0","rneumf3l","[{""page_index"":0,""viewing_time"":1749.640000000014},{""page_index"":1,""viewing_time"":16705.669999999984},{""page_index"":2,""viewing_time"":1283.295000000042}]","","","","","","",""
"3738.3850000000093","","","instructions","88","320941","0.0-88.0","rneumf3l","[{""page_index"":0,""viewing_time"":1203.3699999999953},{""page_index"":1,""viewing_time"":1685.070000000007},{""page_index"":2,""viewing_time"":849.835000000021}]","","","","","","",""
"","","","call-function","89","320942","0.0-89.0","rneumf3l","","","","","","","",""
"null","","","html-keyboard-response","90","322444","0.0-90.0","rneumf3l","","<span style=""color:Black; font-size:50px;"">Agent A","null","","","","",""
"null","","","video-keyboard-response","91","325523","0.0-91.0","rneumf3l","","","null","","Agent A","veridical","STIM_SET_1_REAL/498175.bmp_pp154_L1_V1.0_veridical_freeview_isoFalse_fps144.mp4",""
"null","","","html-keyboard-response","92","327025","0.0-92.0","rneumf3l","","<span style=""color:Black; font-size:50px;"">Agent B","null","","","","",""
"null","","","video-keyboard-response","93","330092","0.0-93.0","rneumf3l","","","null","","Agent B","scrambled","STIM_SET_3/713689.bmp_pp153_L3_V2_veridical_freeview_isoFalsemismatch_498175.bmp_L1_fps90.mp4",""
"","","","call-function","94","330093","0.0-94.0","rneumf3l","","","","","","","",""
"3807.5900000000256","{""judgement"":0}","[0]","survey-likert","95","333901","0.0-95.0","rneumf3l","","","","","","","","0"
"3336.0800000000163","{""confidence"":2}","[0]","survey-likert","96","337239","0.0-96.0","rneumf3l","","","","","","","",""
"","","","call-function","97","337240","0.0-97.0","rneumf3l","","","","","","","",""
"null","","","html-keyboard-response","98","338742","0.0-98.0","rneumf3l","","<span style=""color:Black; font-size:50px;"">Agent A","null","","","","",""
"null","","","video-keyboard-response","99","341804","0.0-99.0","rneumf3l","","","null","","Agent A","scrambled","STIM_SET_3/1592951.bmp_pp80_L3_V2_veridical_freeview_isoFalsemismatch_712977.bmp_L1_fps90.mp4",""
"null","","","html-keyboard-response","100","343311","0.0-100.0","rneumf3l","","<span style=""color:Black; font-size:50px;"">Agent B","null","","","","",""
"null","","","video-keyboard-response","101","346385","0.0-101.0","rneumf3l","","","null","","Agent B","veridical","STIM_SET_1_REAL/712977.bmp_pp51_L1_V1.0_veridical_freeview_isoFalse_fps144.mp4",""
"","","","call-function","102","346386","0.0-102.0","rneumf3l","","","","","","","",""
"2355.8649999999907","{""judgement"":1}","[0]","survey-likert","103","348743","0.0-103.0","rneumf3l","","","","","","","","1"
"2217.7600000000093","{""confidence"":0}","[0]","survey-likert","104","350962","0.0-104.0","rneumf3l","","","","","","","",""
"","","","call-function","105","350962","0.0-105.0","rneumf3l","","","","","","","",""
"null","","","html-keyboard-response","106","352464","0.0-106.0","rneumf3l","","<span style=""color:Black; font-size:50px;"">Agent A","null","","","","",""
"null","","","video-keyboard-response","107","355571","0.0-107.0","rneumf3l","","","null","","Agent A","veridical","STIM_SET_1_REAL/713684.bmp_pp85_L3_V1.0_veridical_freeview_isoFalse_fps144.mp4",""
"null","","","html-keyboard-response","108","357075","0.0-108.0","rneumf3l","","<span style=""color:Black; font-size:50px;"">Agent B","null","","","","",""
"null","","","video-keyboard-response","109","360188","0.0-109.0","rneumf3l","","","null","","Agent B","scrambled","STIM_SET_3/713920.bmp_pp76_L1_V2_veridical_freeview_isoFalsemismatch_713684.bmp_L3_fps90.mp4",""
"","","","call-function","110","360188","0.0-110.0","rneumf3l","","","","","","","",""
"3517.3649999999907","{""judgement"":1}","[0]","survey-likert","111","363706","0.0-111.0","rneumf3l","","","","","","","","0"
"1993.0400000000373","{""confidence"":1}","[0]","survey-likert","112","365701","0.0-112.0","rneumf3l","","","","","","","",""
"","","","call-function","113","365701","0.0-113.0","rneumf3l","","","","","","","",""
"null","","","html-keyboard-response","114","367206","0.0-114.0","rneumf3l","","<span style=""color:Black; font-size:50px;"">Agent A","null","","","","",""
"null","","","video-keyboard-response","115","370292","0.0-115.0","rneumf3l","","","null","","Agent A","veridical","STIM_SET_1_REAL/1159446.bmp_pp60_L3_V1.0_veridical_freeview_isoFalse_fps144.mp4",""
"null","","","html-keyboard-response","116","371794","0.0-116.0","rneumf3l","","<span style=""color:Black; font-size:50px;"">Agent B","null","","","","",""
"null","","","video-keyboard-response","117","374884","0.0-117.0","rneumf3l","","","null","","Agent B","scrambled","STIM_SET_3/1592044.bmp_pp94_L2_V2_veridical_freeview_isoFalsemismatch_1159446.bmp_L3_fps90.mp4",""
"","","","call-function","118","374884","0.0-118.0","rneumf3l","","","","","","","",""
"3503.164999999979","{""judgement"":0}","[0]","survey-likert","119","378388","0.0-119.0","rneumf3l","","","","","","","","0"
"3216.9249999999884","{""confidence"":2}","[0]","survey-likert","120","381606","0.0-120.0","rneumf3l","","","","","","","",""
"","","","call-function","121","381607","0.0-121.0","rneumf3l","","","","","","","",""
"null","","","html-keyboard-response","122","383108","0.0-122.0","rneumf3l","","<span style=""color:Black; font-size:50px;"">Agent A","null","","","","",""
"null","","","video-keyboard-response","123","386203","0.0-123.0","rneumf3l","","","null","","Agent A","scrambled","STIM_SET_3/1159508.bmp_pp151_L1_V2_veridical_freeview_isoFalsemismatch_1159675.bmp_L3_fps90.mp4",""
"null","","","html-keyboard-response","124","387709","0.0-124.0","rneumf3l","","<span style=""color:Black; font-size:50px;"">Agent B","null","","","","",""
"null","","","video-keyboard-response","125","390782","0.0-125.0","rneumf3l","","","null","","Agent B","veridical","STIM_SET_1_REAL/1159675.bmp_pp77_L3_V1.0_veridical_freeview_isoFalse_fps144.mp4",""
"","","","call-function","126","390783","0.0-126.0","rneumf3l","","","","","","","",""
"2098.829999999958","{""judgement"":1}","[0]","survey-likert","127","392883","0.0-127.0","rneumf3l","","","","","","","","1"
"2238.8099999999977","{""confidence"":2}","[0]","survey-likert","128","395123","0.0-128.0","rneumf3l","","","","","","","",""
"","","","call-function","129","395124","0.0-129.0","rneumf3l","","","","","","","",""
"null","","","html-keyboard-response","130","396628","0.0-130.0","rneumf3l","","<span style=""color:Black; font-size:50px;"">Agent A","null","","","","",""
"null","","","video-keyboard-response","131","399780","0.0-131.0","rneumf3l","","","null","","Agent A","scrambled","STIM_SET_3/1592129.bmp_pp153_L3_V2_veridical_freeview_isoFalsemismatch_1159813.bmp_L2_fps90.mp4",""
"null","","","html-keyboard-response","132","401283","0.0-132.0","rneumf3l","","<span style=""color:Black; font-size:50px;"">Agent B","null","","","","",""
"null","","","video-keyboard-response","133","404399","0.0-133.0","rneumf3l","","","null","","Agent B","veridical","STIM_SET_1_REAL/1159813.bmp_pp79_L2_V1.0_veridical_freeview_isoFalse_fps144.mp4",""
"","","","call-function","134","404400","0.0-134.0","rneumf3l","","","","","","","",""
"3915.7949999999837","{""judgement"":0}","[0]","survey-likert","135","408316","0.0-135.0","rneumf3l","","","","","","","","1"
"4317.815000000002","{""confidence"":0}","[0]","survey-likert","136","412635","0.0-136.0","rneumf3l","","","","","","","",""
"","","","call-function","137","412636","0.0-137.0","rneumf3l","","","","","","","",""
"null","","","html-keyboard-response","138","414141","0.0-138.0","rneumf3l","","<span style=""color:Black; font-size:50px;"">Agent A","null","","","","",""
"null","","","video-keyboard-response","139","417217","0.0-139.0","rneumf3l","","","null","","Agent A","scrambled","STIM_SET_3/713633.bmp_pp58_L1_V2_veridical_freeview_isoFalsemismatch_713796.bmp_L3_fps90.mp4",""
"null","","","html-keyboard-response","140","418721","0.0-140.0","rneumf3l","","<span style=""color:Black; font-size:50px;"">Agent B","null","","","","",""
"null","","","video-keyboard-response","141","421791","0.0-141.0","rneumf3l","","","null","","Agent B","veridical","STIM_SET_1_REAL/713796.bmp_pp84_L3_V1.0_veridical_freeview_isoFalse_fps144.mp4",""
"","","","call-function","142","421792","0.0-142.0","rneumf3l","","","","","","","",""
"3803.2449999999953","{""judgement"":1}","[0]","survey-likert","143","425597","0.0-143.0","rneumf3l","","","","","","","","1"
"2227.554999999993","{""confidence"":0}","[0]","survey-likert","144","427826","0.0-144.0","rneumf3l","","","","","","","",""
"","","","call-function","145","427826","0.0-145.0","rneumf3l","","","","","","","",""
"null","","","html-keyboard-response","146","429331","0.0-146.0","rneumf3l","","<span style=""color:Black; font-size:50px;"">Agent A","null","","","","",""
"null","","","video-keyboard-response","147","432407","0.0-147.0","rneumf3l","","","null","","Agent A","scrambled","STIM_SET_3/1592038.bmp_pp79_L2_V2_veridical_freeview_isoFalsemismatch_1592727.bmp_L3_fps90.mp4",""
"null","","","html-keyboard-response","148","433911","0.0-148.0","rneumf3l","","<span style=""color:Black; font-size:50px;"">Agent B","null","","","","",""
"null","","","video-keyboard-response","149","436981","0.0-149.0","rneumf3l","","","null","","Agent B","veridical","STIM_SET_1_REAL/1592727.bmp_pp59_L3_V1.0_veridical_freeview_isoFalse_fps144.mp4",""
"","","","call-function","150","436981","0.0-150.0","rneumf3l","","","","","","","",""
"2002.9899999999907","{""judgement"":1}","[0]","survey-likert","151","438985","0.0-151.0","rneumf3l","","","","","","","","1"
"2144.3249999999534","{""confidence"":1}","[0]","survey-likert","152","441131","0.0-152.0","rneumf3l","","","","","","","",""
"","","","call-function","153","441132","0.0-153.0","rneumf3l","","","","","","","",""
"null","","","html-keyboard-response","154","442634","0.0-154.0","rneumf3l","","<span style=""color:Black; font-size:50px;"">Agent A","null","","","","",""
"null","","","video-keyboard-response","155","445698","0.0-155.0","rneumf3l","","","null","","Agent A","scrambled","STIM_SET_3/1592017.bmp_pp154_L1_V2_veridical_freeview_isoFalsemismatch_1159777.bmp_L3_fps90.mp4",""
"null","","","html-keyboard-response","156","447202","0.0-156.0","rneumf3l","","<span style=""color:Black; font-size:50px;"">Agent B","null","","","","",""
"null","","","video-keyboard-response","157","450307","0.0-157.0","rneumf3l","","","null","","Agent B","veridical","STIM_SET_1_REAL/1159777.bmp_pp77_L3_V1.0_veridical_freeview_isoFalse_fps144.mp4",""
"","","","call-function","158","450308","0.0-158.0","rneumf3l","","","","","","","",""
"1995.515000000014","{""judgement"":1}","[0]","survey-likert","159","452304","0.0-159.0","rneumf3l","","","","","","","","1"
"1967.5650000000023","{""confidence"":2}","[0]","survey-likert","160","454273","0.0-160.0","rneumf3l","","","","","","","",""
"","","","call-function","161","454273","0.0-161.0","rneumf3l","","","","","","","",""
"null","","","html-keyboard-response","162","455777","0.0-162.0","rneumf3l","","<span style=""color:Black; font-size:50px;"">Agent A","null","","","","",""
"null","","","video-keyboard-response","163","458868","0.0-163.0","rneumf3l","","","null","","Agent A","veridical","STIM_SET_1_REAL/1159572.bmp_pp71_L1_V1.0_veridical_freeview_isoFalse_fps144.mp4",""
"null","","","html-keyboard-response","164","460373","0.0-164.0","rneumf3l","","<span style=""color:Black; font-size:50px;"">Agent B","null","","","","",""
"null","","","video-keyboard-response","165","463478","0.0-165.0","rneumf3l","","","null","","Agent B","scrambled","STIM_SET_3/713381.bmp_pp82_L2_V2_veridical_freeview_isoFalsemismatch_1159572.bmp_L1_fps90.mp4",""
"","","","call-function","166","463479","0.0-166.0","rneumf3l","","","","","","","",""
"5216.844999999972","{""judgement"":0}","[0]","survey-likert","167","468697","0.0-167.0","rneumf3l","","","","","","","","0"
"4571.044999999984","{""confidence"":3}","[0]","survey-likert","168","473269","0.0-168.0","rneumf3l","","","","","","","",""
"2904.1500000000233","","","instructions","169","476173","0.0-169.0","rneumf3l","[{""page_index"":0,""viewing_time"":1058.2299999999814},{""page_index"":1,""viewing_time"":1276.7850000000326},{""page_index"":2,""viewing_time"":568.929999999993}]","","","","","","",""
"2402.4349999999977","","","instructions","170","478576","0.0-170.0","rneumf3l","[{""page_index"":0,""viewing_time"":652.1849999999977},{""page_index"":1,""viewing_time"":950.0750000000116},{""page_index"":2,""viewing_time"":800.070000000007}]","","","","","","",""
"","","","call-function","171","478577","0.0-171.0","rneumf3l","","","","","","","",""
"null","","","html-keyboard-response","172","480078","0.0-172.0","rneumf3l","","<span style=""color:Black; font-size:50px;"">Agent A","null","","","","",""
"null","","","video-keyboard-response","173","483192","0.0-173.0","rneumf3l","","","null","","Agent A","veridical","STIM_SET_1_REAL/1159440.bmp_pp98_L1_V1.0_veridical_freeview_isoFalse_fps144.mp4",""
"null","","","html-keyboard-response","174","484697","0.0-174.0","rneumf3l","","<span style=""color:Black; font-size:50px;"">Agent B","null","","","","",""
"null","","","video-keyboard-response","175","487762","0.0-175.0","rneumf3l","","","null","","Agent B","scrambled","STIM_SET_3/713829.bmp_pp60_L3_V2_veridical_freeview_isoFalsemismatch_1159440.bmp_L1_fps90.mp4",""
"","","","call-function","176","487762","0.0-176.0","rneumf3l","","","","","","","",""
"3846.2600000000093","{""judgement"":0}","[0]","survey-likert","177","491610","0.0-177.0","rneumf3l","","","","","","","","0"
"4064.0999999999767","{""confidence"":2}","[0]","survey-likert","178","495675","0.0-178.0","rneumf3l","","","","","","","",""
"","","","call-function","179","495676","0.0-179.0","rneumf3l","","","","","","","",""
"null","","","html-keyboard-response","180","497177","0.0-180.0","rneumf3l","","<span style=""color:Black; font-size:50px;"">Agent A","null","","","","",""
"null","","","video-keyboard-response","181","500256","0.0-181.0","rneumf3l","","","null","","Agent A","veridical","STIM_SET_1_REAL/1159855.bmp_pp99_L2_V1.0_veridical_freeview_isoFalse_fps144.mp4",""
"null","","","html-keyboard-response","182","501758","0.0-182.0","rneumf3l","","<span style=""color:Black; font-size:50px;"">Agent B","null","","","","",""
"null","","","video-keyboard-response","183","504838","0.0-183.0","rneumf3l","","","null","","Agent B","scrambled","STIM_SET_3/285932.bmp_pp64_L1_V2_veridical_freeview_isoFalsemismatch_1159855.bmp_L2_fps90.mp4",""
"","","","call-function","184","504838","0.0-184.0","rneumf3l","","","","","","","",""
"2728.8950000000186","{""judgement"":0}","[0]","survey-likert","185","507568","0.0-185.0","rneumf3l","","","","","","","","0"
"8729.73000000004","{""confidence"":2}","[0]","survey-likert","186","516299","0.0-186.0","rneumf3l","","","","","","","",""
"","","","call-function","187","516299","0.0-187.0","rneumf3l","","","","","","","",""
"null","","","html-keyboard-response","188","517800","0.0-188.0","rneumf3l","","<span style=""color:Black; font-size:50px;"">Agent A","null","","","","",""
"null","","","video-keyboard-response","189","520864","0.0-189.0","rneumf3l","","","null","","Agent A","veridical","STIM_SET_1_REAL/1159882.bmp_pp61_L2_V1.0_veridical_freeview_isoFalse_fps144.mp4",""
"null","","","html-keyboard-response","190","522367","0.0-190.0","rneumf3l","","<span style=""color:Black; font-size:50px;"">Agent B","null","","","","",""
"null","","","video-keyboard-response","191","525463","0.0-191.0","rneumf3l","","","null","","Agent B","scrambled","STIM_SET_3/285715.bmp_pp67_L2_V2_veridical_freeview_isoFalsemismatch_1159882.bmp_L2_fps90.mp4",""
"","","","call-function","192","525464","0.0-192.0","rneumf3l","","","","","","","",""
"3177.704999999958","{""judgement"":1}","[0]","survey-likert","193","528643","0.0-193.0","rneumf3l","","","","","","","","0"
"1921.3099999999395","{""confidence"":0}","[0]","survey-likert","194","530567","0.0-194.0","rneumf3l","","","","","","","",""
"","","","call-function","195","530568","0.0-195.0","rneumf3l","","","","","","","",""
"null","","","html-keyboard-response","196","532071","0.0-196.0","rneumf3l","","<span style=""color:Black; font-size:50px;"">Agent A","null","","","","",""
"null","","","video-keyboard-response","197","535141","0.0-197.0","rneumf3l","","","null","","Agent A","scrambled","STIM_SET_3/1592350.bmp_pp55_L3_V2_veridical_freeview_isoFalsemismatch_498111.bmp_L2_fps90.mp4",""
"null","","","html-keyboard-response","198","536643","0.0-198.0","rneumf3l","","<span style=""color:Black; font-size:50px;"">Agent B","null","","","","",""
"null","","","video-keyboard-response","199","539721","0.0-199.0","rneumf3l","","","null","","Agent B","veridical","STIM_SET_1_REAL/498111.bmp_pp88_L2_V1.0_veridical_freeview_isoFalse_fps144.mp4",""
"","","","call-function","200","539722","0.0-200.0","rneumf3l","","","","","","","",""
"2517.3850000000093","{""judgement"":1}","[0]","survey-likert","201","542240","0.0-201.0","rneumf3l","","","","","","","","1"
"2211.454999999958","{""confidence"":0}","[0]","survey-likert","202","544453","0.0-202.0","rneumf3l","","","","","","","",""
"","","","call-function","203","544454","0.0-203.0","rneumf3l","","","","","","","",""
"null","","","html-keyboard-response","204","545955","0.0-204.0","rneumf3l","","<span style=""color:Black; font-size:50px;"">Agent A","null","","","","",""
"null","","","video-keyboard-response","205","549034","0.0-205.0","rneumf3l","","","null","","Agent A","veridical","STIM_SET_1_REAL/713593.bmp_pp64_L1_V1.0_veridical_freeview_isoFalse_fps144.mp4",""
"null","","","html-keyboard-response","206","550536","0.0-206.0","rneumf3l","","<span style=""color:Black; font-size:50px;"">Agent B","null","","","","",""
"null","","","video-keyboard-response","207","553606","0.0-207.0","rneumf3l","","","null","","Agent B","scrambled","STIM_SET_3/1592747.bmp_pp53_L2_V2_veridical_freeview_isoFalsemismatch_713593.bmp_L1_fps90.mp4",""
"","","","call-function","208","553606","0.0-208.0","rneumf3l","","","","","","","",""
"2287.7550000000047","{""judgement"":0}","[0]","survey-likert","209","555895","0.0-209.0","rneumf3l","","","","","","","","0"
"3895.930000000051","{""confidence"":2}","[0]","survey-likert","210","559792","0.0-210.0","rneumf3l","","","","","","","",""
"","","","call-function","211","559793","0.0-211.0","rneumf3l","","","","","","","",""
"null","","","html-keyboard-response","212","561295","0.0-212.0","rneumf3l","","<span style=""color:Black; font-size:50px;"">Agent A","null","","","","",""
"null","","","video-keyboard-response","213","564392","0.0-213.0","rneumf3l","","","null","","Agent A","scrambled","STIM_SET_3/1159956.bmp_pp59_L3_V2_veridical_freeview_isoFalsemismatch_1159829.bmp_L3_fps90.mp4",""
"null","","","html-keyboard-response","214","565897","0.0-214.0","rneumf3l","","<span style=""color:Black; font-size:50px;"">Agent B","null","","","","",""
"null","","","video-keyboard-response","215","568988","0.0-215.0","rneumf3l","","","null","","Agent B","veridical","STIM_SET_1_REAL/1159829.bmp_pp91_L3_V1.0_veridical_freeview_isoFalse_fps144.mp4",""
"","","","call-function","216","568988","0.0-216.0","rneumf3l","","","","","","","",""
"2324.8549999999814","{""judgement"":1}","[0]","survey-likert","217","571314","0.0-217.0","rneumf3l","","","","","","","","1"
"1833.6300000000047","{""confidence"":1}","[0]","survey-likert","218","573149","0.0-218.0","rneumf3l","","","","","","","",""
"","","","call-function","219","573149","0.0-219.0","rneumf3l","","","","","","","",""
"null","","","html-keyboard-response","220","574654","0.0-220.0","rneumf3l","","<span style=""color:Black; font-size:50px;"">Agent A","null","","","","",""
"null","","","video-keyboard-response","221","577743","0.0-221.0","rneumf3l","","","null","","Agent A","veridical","STIM_SET_1_REAL/285994.bmp_pp92_L3_V1.0_veridical_freeview_isoFalse_fps144.mp4",""
"null","","","html-keyboard-response","222","579250","0.0-222.0","rneumf3l","","<span style=""color:Black; font-size:50px;"">Agent B","null","","","","",""
"null","","","video-keyboard-response","223","582354","0.0-223.0","rneumf3l","","","null","","Agent B","scrambled","STIM_SET_3/1159592.bmp_pp91_L3_V2_veridical_freeview_isoFalsemismatch_285994.bmp_L3_fps90.mp4",""
"","","","call-function","224","582355","0.0-224.0","rneumf3l","","","","","","","",""
"2359.570000000065","{""judgement"":0}","[0]","survey-likert","225","584715","0.0-225.0","rneumf3l","","","","","","","","0"
"1689.984999999986","{""confidence"":1}","[0]","survey-likert","226","586406","0.0-226.0","rneumf3l","","","","","","","",""
"","","","call-function","227","586407","0.0-227.0","rneumf3l","","","","","","","",""
"null","","","html-keyboard-response","228","587910","0.0-228.0","rneumf3l","","<span style=""color:Black; font-size:50px;"">Agent A","null","","","","",""
"null","","","video-keyboard-response","229","590995","0.0-229.0","rneumf3l","","","null","","Agent A","veridical","STIM_SET_1_REAL/713089.bmp_pp60_L3_V1.0_veridical_freeview_isoFalse_fps144.mp4",""
"null","","","html-keyboard-response","230","592500","0.0-230.0","rneumf3l","","<span style=""color:Black; font-size:50px;"">Agent B","null","","","","",""
"null","","","video-keyboard-response","231","595596","0.0-231.0","rneumf3l","","","null","","Agent B","scrambled","STIM_SET_3/1592201.bmp_pp97_L3_V2_veridical_freeview_isoFalsemismatch_713089.bmp_L3_fps90.mp4",""
"","","","call-function","232","595597","0.0-232.0","rneumf3l","","","","","","","",""
"2388.1100000001024","{""judgement"":0}","[0]","survey-likert","233","597986","0.0-233.0","rneumf3l","","","","","","","","0"
"3786.920000000042","{""confidence"":1}","[0]","survey-likert","234","601774","0.0-234.0","rneumf3l","","","","","","","",""
"","","","call-function","235","601775","0.0-235.0","rneumf3l","","","","","","","",""
"null","","","html-keyboard-response","236","603276","0.0-236.0","rneumf3l","","<span style=""color:Black; font-size:50px;"">Agent A","null","","","","",""
"null","","","video-keyboard-response","237","606360","0.0-237.0","rneumf3l","","","null","","Agent A","scrambled","STIM_SET_3/150277.bmp_pp65_L3_V2_veridical_freeview_isoFalsemismatch_1592362.bmp_L2_fps90.mp4",""
"null","","","html-keyboard-response","238","607866","0.0-238.0","rneumf3l","","<span style=""color:Black; font-size:50px;"">Agent B","null","","","","",""
"null","","","video-keyboard-response","239","610935","0.0-239.0","rneumf3l","","","null","","Agent B","veridical","STIM_SET_1_REAL/1592362.bmp_pp95_L2_V1.0_veridical_freeview_isoFalse_fps144.mp4",""
"","","","call-function","240","610936","0.0-240.0","rneumf3l","","","","","","","",""
"3169.090000000084","{""judgement"":1}","[0]","survey-likert","241","614106","0.0-241.0","rneumf3l","","","","","","","","1"
"3445.829999999958","{""confidence"":2}","[0]","survey-likert","242","617553","0.0-242.0","rneumf3l","","","","","","","",""
"","","","call-function","243","617554","0.0-243.0","rneumf3l","","","","","","","",""
"null","","","html-keyboard-response","244","619056","0.0-244.0","rneumf3l","","<span style=""color:Black; font-size:50px;"">Agent A","null","","","","",""
"null","","","video-keyboard-response","245","622126","0.0-245.0","rneumf3l","","","null","","Agent A","veridical","STIM_SET_1_REAL/1160168.bmp_pp53_L2_V1.0_veridical_freeview_isoFalse_fps144.mp4",""
"null","","","html-keyboard-response","246","623630","0.0-246.0","rneumf3l","","<span style=""color:Black; font-size:50px;"">Agent B","null","","","","",""
"null","","","video-keyboard-response","247","626691","0.0-247.0","rneumf3l","","","null","","Agent B","scrambled","STIM_SET_3/1592857.bmp_pp52_L1_V2_veridical_freeview_isoFalsemismatch_1160168.bmp_L2_fps90.mp4",""
"","","","call-function","248","626692","0.0-248.0","rneumf3l","","","","","","","",""
"2610.2600000000093","{""judgement"":0}","[0]","survey-likert","249","629303","0.0-249.0","rneumf3l","","","","","","","","0"
"2747.715000000084","{""confidence"":1}","[0]","survey-likert","250","632052","0.0-250.0","rneumf3l","","","","","","","",""
"5350.469999999972","","","instructions","251","637403","0.0-251.0","rneumf3l","[{""page_index"":0,""viewing_time"":1854.0800000000745},{""page_index"":1,""viewing_time"":1502.9399999999441},{""page_index"":2,""viewing_time"":1993.2299999999814}]","","","","","","",""
"2965.0350000000326","","","instructions","252","640369","0.0-252.0","rneumf3l","[{""page_index"":0,""viewing_time"":698.9050000000279},{""page_index"":1,""viewing_time"":1242.0200000000186},{""page_index"":2,""viewing_time"":1024.0049999998882}]","","","","","","",""
"","","","call-function","253","640369","0.0-253.0","rneumf3l","","","","","","","",""
"null","","","html-keyboard-response","254","641873","0.0-254.0","rneumf3l","","<span style=""color:Black; font-size:50px;"">Agent A","null","","","","",""
"null","","","video-keyboard-response","255","644988","0.0-255.0","rneumf3l","","","null","","Agent A","scrambled","STIM_SET_3/61513.bmp_pp75_L1_V2_veridical_freeview_isoFalsemismatch_1159784.bmp_L3_fps90.mp4",""
"null","","","html-keyboard-response","256","646491","0.0-256.0","rneumf3l","","<span style=""color:Black; font-size:50px;"">Agent B","null","","","","",""
"null","","","video-keyboard-response","257","649591","0.0-257.0","rneumf3l","","","null","","Agent B","veridical","STIM_SET_1_REAL/1159784.bmp_pp73_L3_V1.0_veridical_freeview_isoFalse_fps144.mp4",""
"","","","call-function","258","649592","0.0-258.0","rneumf3l","","","","","","","",""
"2516.5899999999674","{""judgement"":1}","[0]","survey-likert","259","652110","0.0-259.0","rneumf3l","","","","","","","","1"
"2325.359999999986","{""confidence"":2}","[0]","survey-likert","260","654436","0.0-260.0","rneumf3l","","","","","","","",""
"","","","call-function","261","654437","0.0-261.0","rneumf3l","","","","","","","",""
"null","","","html-keyboard-response","262","655941","0.0-262.0","rneumf3l","","<span style=""color:Black; font-size:50px;"">Agent A","null","","","","",""
"null","","","video-keyboard-response","263","659047","0.0-263.0","rneumf3l","","","null","","Agent A","scrambled","STIM_SET_3/1160247.bmp_pp54_L2_V2_veridical_freeview_isoFalsemismatch_1592133.bmp_L1_fps90.mp4",""
"null","","","html-keyboard-response","264","660551","0.0-264.0","rneumf3l","","<span style=""color:Black; font-size:50px;"">Agent B","null","","","","",""
"null","","","video-keyboard-response","265","663616","0.0-265.0","rneumf3l","","","null","","Agent B","veridical","STIM_SET_1_REAL/1592133.bmp_pp75_L1_V1.0_veridical_freeview_isoFalse_fps144.mp4",""
"","","","call-function","266","663617","0.0-266.0","rneumf3l","","","","","","","",""
"2682.7700000000186","{""judgement"":0}","[0]","survey-likert","267","666302","0.0-267.0","rneumf3l","","","","","","","","1"
"2700.8000000000466","{""confidence"":0}","[0]","survey-likert","268","669005","0.0-268.0","rneumf3l","","","","","","","",""
"","","","call-function","269","669005","0.0-269.0","rneumf3l","","","","","","","",""
"null","","","html-keyboard-response","270","670510","0.0-270.0","rneumf3l","","<span style=""color:Black; font-size:50px;"">Agent A","null","","","","",""
"null","","","video-keyboard-response","271","673574","0.0-271.0","rneumf3l","","","null","","Agent A","veridical","STIM_SET_1_REAL/713681.bmp_pp86_L2_V1.0_veridical_freeview_isoFalse_fps144.mp4",""
"null","","","html-keyboard-response","272","675078","0.0-272.0","rneumf3l","","<span style=""color:Black; font-size:50px;"">Agent B","null","","","","",""
"null","","","video-keyboard-response","273","678166","0.0-273.0","rneumf3l","","","null","","Agent B","scrambled","STIM_SET_3/498025.bmp_pp81_L1_V2_veridical_freeview_isoFalsemismatch_713681.bmp_L2_fps90.mp4",""
"","","","call-function","274","678166","0.0-274.0","rneumf3l","","","","","","","",""
"2728.9100000000326","{""judgement"":1}","[0]","survey-likert","275","680896","0.0-275.0","rneumf3l","","","","","","","","0"
"2687.4349999999395","{""confidence"":0}","[0]","survey-likert","276","683585","0.0-276.0","rneumf3l","","","","","","","",""
"","","","call-function","277","683586","0.0-277.0","rneumf3l","","","","","","","",""
"null","","","html-keyboard-response","278","685089","0.0-278.0","rneumf3l","","<span style=""color:Black; font-size:50px;"">Agent A","null","","","","",""
"null","","","video-keyboard-response","279","688160","0.0-279.0","rneumf3l","","","null","","Agent A","scrambled","STIM_SET_3/1592305.bmp_pp65_L3_V2_veridical_freeview_isoFalsemismatch_713779.bmp_L2_fps90.mp4",""
"null","","","html-keyboard-response","280","689662","0.0-280.0","rneumf3l","","<span style=""color:Black; font-size:50px;"">Agent B","null","","","","",""
"null","","","video-keyboard-response","281","692750","0.0-281.0","rneumf3l","","","null","","Agent B","veridical","STIM_SET_1_REAL/713779.bmp_pp152_L2_V1.0_veridical_freeview_isoFalse_fps144.mp4",""
"","","","call-function","282","692751","0.0-282.0","rneumf3l","","","","","","","",""
"5516.435000000056","{""judgement"":0}","[0]","survey-likert","283","698268","0.0-283.0","rneumf3l","","","","","","","","1"
"2647.1999999999534","{""confidence"":0}","[0]","survey-likert","284","700917","0.0-284.0","rneumf3l","","","","","","","",""
"","","","call-function","285","700917","0.0-285.0","rneumf3l","","","","","","","",""
"null","","","html-keyboard-response","286","702421","0.0-286.0","rneumf3l","","<span style=""color:Black; font-size:50px;"">Agent A","null","","","","",""
"null","","","video-keyboard-response","287","705528","0.0-287.0","rneumf3l","","","null","","Agent A","scrambled","STIM_SET_3/1592530.bmp_pp75_L1_V2_veridical_freeview_isoFalsemismatch_1591961.bmp_L2_fps90.mp4",""
"null","","","html-keyboard-response","288","707031","0.0-288.0","rneumf3l","","<span style=""color:Black; font-size:50px;"">Agent B","null","","","","",""
"null","","","video-keyboard-response","289","710139","0.0-289.0","rneumf3l","","","null","","Agent B","veridical","STIM_SET_1_REAL/1591961.bmp_pp67_L2_V1.0_veridical_freeview_isoFalse_fps144.mp4",""
"","","","call-function","290","710140","0.0-290.0","rneumf3l","","","","","","","",""
"2758.439999999944","{""judgement"":1}","[0]","survey-likert","291","712899","0.0-291.0","rneumf3l","","","","","","","","1"
"2220.8450000000885","{""confidence"":1}","[0]","survey-likert","292","715121","0.0-292.0","rneumf3l","","","","","","","",""
"","","","call-function","293","715122","0.0-293.0","rneumf3l","","","","","","","",""
"null","","","html-keyboard-response","294","716625","0.0-294.0","rneumf3l","","<span style=""color:Black; font-size:50px;"">Agent A","null","","","","",""
"null","","","video-keyboard-response","295","719736","0.0-295.0","rneumf3l","","","null","","Agent A","veridical","STIM_SET_1_REAL/1159768.bmp_pp89_L1_V1.0_veridical_freeview_isoFalse_fps144.mp4",""
"null","","","html-keyboard-response","296","721238","0.0-296.0","rneumf3l","","<span style=""color:Black; font-size:50px;"">Agent B","null","","","","",""
"null","","","video-keyboard-response","297","724347","0.0-297.0","rneumf3l","","","null","","Agent B","scrambled","STIM_SET_3/713788.bmp_pp52_L1_V2_veridical_freeview_isoFalsemismatch_1159768.bmp_L1_fps90.mp4",""
"","","","call-function","298","724347","0.0-298.0","rneumf3l","","","","","","","",""
"3484.390000000014","{""judgement"":0}","[0]","survey-likert","299","727833","0.0-299.0","rneumf3l","","","","","","","","0"
"1950.4450000000652","{""confidence"":0}","[0]","survey-likert","300","729784","0.0-300.0","rneumf3l","","","","","","","",""
"","","","call-function","301","729785","0.0-301.0","rneumf3l","","","","","","","",""
"null","","","html-keyboard-response","302","731291","0.0-302.0","rneumf3l","","<span style=""color:Black; font-size:50px;"">Agent A","null","","","","",""
"null","","","video-keyboard-response","303","734369","0.0-303.0","rneumf3l","","","null","","Agent A","veridical","STIM_SET_1_REAL/61537.bmp_pp73_L3_V1.0_veridical_freeview_isoFalse_fps144.mp4",""
"null","","","html-keyboard-response","304","735872","0.0-304.0","rneumf3l","","<span style=""color:Black; font-size:50px;"">Agent B","null","","","","",""
"null","","","video-keyboard-response","305","738960","0.0-305.0","rneumf3l","","","null","","Agent B","scrambled","STIM_SET_3/713770.bmp_pp89_L1_V2_veridical_freeview_isoFalsemismatch_61537.bmp_L3_fps90.mp4",""
"","","","call-function","306","738961","0.0-306.0","rneumf3l","","","","","","","",""
"2786.25","{""judgement"":0}","[0]","survey-likert","307","741748","0.0-307.0","rneumf3l","","","","","","","","0"
"3026.0050000000047","{""confidence"":3}","[0]","survey-likert","308","744775","0.0-308.0","rneumf3l","","","","","","","",""
"","","","call-function","309","744776","0.0-309.0","rneumf3l","","","","","","","",""
"null","","","html-keyboard-response","310","746282","0.0-310.0","rneumf3l","","<span style=""color:Black; font-size:50px;"">Agent A","null","","","","",""
"null","","","video-keyboard-response","311","749360","0.0-311.0","rneumf3l","","","null","","Agent A","veridical","STIM_SET_1_REAL/713760.bmp_pp81_L1_V1.0_veridical_freeview_isoFalse_fps144.mp4",""
"null","","","html-keyboard-response","312","750863","0.0-312.0","rneumf3l","","<span style=""color:Black; font-size:50px;"">Agent B","null","","","","",""
"null","","","video-keyboard-response","313","753944","0.0-313.0","rneumf3l","","","null","","Agent B","scrambled","STIM_SET_3/285684.bmp_pp80_L3_V2_veridical_freeview_isoFalsemismatch_713760.bmp_L1_fps90.mp4",""
"","","","call-function","314","753946","0.0-314.0","rneumf3l","","","","","","","",""
"2340.2399999999907","{""judgement"":0}","[0]","survey-likert","315","756288","0.0-315.0","rneumf3l","","","","","","","","0"
"1877.8099999999395","{""confidence"":2}","[0]","survey-likert","316","758167","0.0-316.0","rneumf3l","","","","","","","",""
"","","","call-function","317","758167","0.0-317.0","rneumf3l","","","","","","","",""
"null","","","html-keyboard-response","318","759670","0.0-318.0","rneumf3l","","<span style=""color:Black; font-size:50px;"">Agent A","null","","","","",""
"null","","","video-keyboard-response","319","762734","0.0-319.0","rneumf3l","","","null","","Agent A","veridical","STIM_SET_1_REAL/498149.bmp_pp99_L2_V1.0_veridical_freeview_isoFalse_fps144.mp4",""
"null","","","html-keyboard-response","320","764237","0.0-320.0","rneumf3l","","<span style=""color:Black; font-size:50px;"">Agent B","null","","","","",""
"null","","","video-keyboard-response","321","767303","0.0-321.0","rneumf3l","","","null","","Agent B","scrambled","STIM_SET_3/107955.bmp_pp90_L2_V2_veridical_freeview_isoFalsemismatch_498149.bmp_L2_fps90.mp4",""
"","","","call-function","322","767304","0.0-322.0","rneumf3l","","","","","","","",""
"1961.8499999999767","{""judgement"":0}","[0]","survey-likert","323","769267","0.0-323.0","rneumf3l","","","","","","","","0"
"5104.545000000042","{""confidence"":2}","[0]","survey-likert","324","774373","0.0-324.0","rneumf3l","","","","","","","",""
"","","","call-function","325","774374","0.0-325.0","rneumf3l","","","","","","","",""
"null","","","html-keyboard-response","326","775876","0.0-326.0","rneumf3l","","<span style=""color:Black; font-size:50px;"">Agent A","null","","","","",""
"null","","","video-keyboard-response","327","778944","0.0-327.0","rneumf3l","","","null","","Agent A","veridical","STIM_SET_1_REAL/1592581.bmp_pp100_L3_V1.0_veridical_freeview_isoFalse_fps144.mp4",""
"null","","","html-keyboard-response","328","780449","0.0-328.0","rneumf3l","","<span style=""color:Black; font-size:50px;"">Agent B","null","","","","",""
"null","","","video-keyboard-response","329","783532","0.0-329.0","rneumf3l","","","null","","Agent B","scrambled","STIM_SET_3/1160189.bmp_pp64_L1_V2_veridical_freeview_isoFalsemismatch_1592581.bmp_L3_fps90.mp4",""
"","","","call-function","330","783532","0.0-330.0","rneumf3l","","","","","","","",""
"2547.195000000065","{""judgement"":0}","[0]","survey-likert","331","786080","0.0-331.0","rneumf3l","","","","","","","","0"
"1654.0149999998976","{""confidence"":1}","[0]","survey-likert","332","787736","0.0-332.0","rneumf3l","","","","","","","",""
"3337.0200000000186","","","instructions","333","791073","0.0-333.0","rneumf3l","[{""page_index"":0,""viewing_time"":1324.7100000000792},{""page_index"":1,""viewing_time"":936.9049999999115},{""page_index"":2,""viewing_time"":1075.2050000000745}]","","","","","","",""
"9302.380000000005","","","instructions","334","800376","0.0-334.0","rneumf3l","[{""page_index"":0,""viewing_time"":7246.209999999963},{""page_index"":1,""viewing_time"":1323.9800000000978},{""page_index"":2,""viewing_time"":731.9799999999814}]","","","","","","",""
"","","","call-function","335","800377","0.0-335.0","rneumf3l","","","","","","","",""
"null","","","html-keyboard-response","336","801880","0.0-336.0","rneumf3l","","<span style=""color:Black; font-size:50px;"">Agent A","null","","","","",""
"null","","","video-keyboard-response","337","805049","0.0-337.0","rneumf3l","","","null","","Agent A","scrambled","STIM_SET_3/1159874.bmp_pp96_L2_V2_veridical_freeview_isoFalsemismatch_1159515.bmp_L3_fps90.mp4",""
"null","","","html-keyboard-response","338","806551","0.0-338.0","rneumf3l","","<span style=""color:Black; font-size:50px;"">Agent B","null","","","","",""
"null","","","video-keyboard-response","339","809652","0.0-339.0","rneumf3l","","","null","","Agent B","veridical","STIM_SET_1_REAL/1159515.bmp_pp84_L3_V1.0_veridical_freeview_isoFalse_fps144.mp4",""
"","","","call-function","340","809653","0.0-340.0","rneumf3l","","","","","","","",""
"1900.7699999999022","{""judgement"":1}","[0]","survey-likert","341","811554","0.0-341.0","rneumf3l","","","","","","","","1"
"1786.0649999999441","{""confidence"":1}","[0]","survey-likert","342","813342","0.0-342.0","rneumf3l","","","","","","","",""
"","","","call-function","343","813342","0.0-343.0","rneumf3l","","","","","","","",""
"null","","","html-keyboard-response","344","814844","0.0-344.0","rneumf3l","","<span style=""color:Black; font-size:50px;"">Agent A","null","","","","",""
"null","","","video-keyboard-response","345","817929","0.0-345.0","rneumf3l","","","null","","Agent A","veridical","STIM_SET_1_REAL/1593035.bmp_pp94_L2_V1.0_veridical_freeview_isoFalse_fps144.mp4",""
"null","","","html-keyboard-response","346","819431","0.0-346.0","rneumf3l","","<span style=""color:Black; font-size:50px;"">Agent B","null","","","","",""
"null","","","video-keyboard-response","347","822530","0.0-347.0","rneumf3l","","","null","","Agent B","scrambled","STIM_SET_3/1159325.bmp_pp67_L2_V2_veridical_freeview_isoFalsemismatch_1593035.bmp_L2_fps90.mp4",""
"","","","call-function","348","822530","0.0-348.0","rneumf3l","","","","","","","",""
"2441.439999999944","{""judgement"":0}","[0]","survey-likert","349","824973","0.0-349.0","rneumf3l","","","","","","","","0"
"1685.859999999986","{""confidence"":1}","[0]","survey-likert","350","826660","0.0-350.0","rneumf3l","","","","","","","",""
"","","","call-function","351","826660","0.0-351.0","rneumf3l","","","","","","","",""
"null","","","html-keyboard-response","352","828165","0.0-352.0","rneumf3l","","<span style=""color:Black; font-size:50px;"">Agent A","null","","","","",""
"null","","","video-keyboard-response","353","831230","0.0-353.0","rneumf3l","","","null","","Agent A","scrambled","STIM_SET_3/713328.bmp_pp86_L2_V2_veridical_freeview_isoFalsemismatch_1591994.bmp_L3_fps90.mp4",""
"null","","","html-keyboard-response","354","832737","0.0-354.0","rneumf3l","","<span style=""color:Black; font-size:50px;"">Agent B","null","","","","",""
"null","","","video-keyboard-response","355","835819","0.0-355.0","rneumf3l","","","null","","Agent B","veridical","STIM_SET_1_REAL/1591994.bmp_pp69_L3_V1.0_veridical_freeview_isoFalse_fps144.mp4",""
"","","","call-function","356","835820","0.0-356.0","rneumf3l","","","","","","","",""
"2148.929999999935","{""judgement"":1}","[0]","survey-likert","357","837970","0.0-357.0","rneumf3l","","","","","","","","1"
"1373.8000000000466","{""confidence"":2}","[0]","survey-likert","358","839344","0.0-358.0","rneumf3l","","","","","","","",""
"","","","call-function","359","839345","0.0-359.0","rneumf3l","","","","","","","",""
"null","","","html-keyboard-response","360","840848","0.0-360.0","rneumf3l","","<span style=""color:Black; font-size:50px;"">Agent A","null","","","","",""
"null","","","video-keyboard-response","361","843919","0.0-361.0","rneumf3l","","","null","","Agent A","veridical","STIM_SET_1_REAL/713017.bmp_pp152_L2_V1.0_veridical_freeview_isoFalse_fps144.mp4",""
"null","","","html-keyboard-response","362","845424","0.0-362.0","rneumf3l","","<span style=""color:Black; font-size:50px;"">Agent B","null","","","","",""
"null","","","video-keyboard-response","363","848486","0.0-363.0","rneumf3l","","","null","","Agent B","scrambled","STIM_SET_3/1591975.bmp_pp88_L2_V2_veridical_freeview_isoFalsemismatch_713017.bmp_L2_fps90.mp4",""
"","","","call-function","364","848487","0.0-364.0","rneumf3l","","","","","","","",""
"1692.25","{""judgement"":0}","[0]","survey-likert","365","850180","0.0-365.0","rneumf3l","","","","","","","","0"
"1669.2700000000186","{""confidence"":2}","[0]","survey-likert","366","851850","0.0-366.0","rneumf3l","","","","","","","",""
"","","","call-function","367","851851","0.0-367.0","rneumf3l","","","","","","","",""
"null","","","html-keyboard-response","368","853356","0.0-368.0","rneumf3l","","<span style=""color:Black; font-size:50px;"">Agent A","null","","","","",""
"null","","","video-keyboard-response","369","856451","0.0-369.0","rneumf3l","","","null","","Agent A","veridical","STIM_SET_1_REAL/713513.bmp_pp62_L2_V1.0_veridical_freeview_isoFalse_fps144.mp4",""
"null","","","html-keyboard-response","370","857956","0.0-370.0","rneumf3l","","<span style=""color:Black; font-size:50px;"">Agent B","null","","","","",""
"null","","","video-keyboard-response","371","861043","0.0-371.0","rneumf3l","","","null","","Agent B","scrambled","STIM_SET_3/1592047.bmp_pp51_L1_V2_veridical_freeview_isoFalsemismatch_713513.bmp_L2_fps90.mp4",""
"","","","call-function","372","861044","0.0-372.0","rneumf3l","","","","","","","",""
"2210.670000000042","{""judgement"":0}","[0]","survey-likert","373","863256","0.0-373.0","rneumf3l","","","","","","","","0"
"1444.7600000000093","{""confidence"":0}","[0]","survey-likert","374","864701","0.0-374.0","rneumf3l","","","","","","","",""
"","","","call-function","375","864702","0.0-375.0","rneumf3l","","","","","","","",""
"null","","","html-keyboard-response","376","866208","0.0-376.0","rneumf3l","","<span style=""color:Black; font-size:50px;"">Agent A","null","","","","",""
"null","","","video-keyboard-response","377","869296","0.0-377.0","rneumf3l","","","null","","Agent A","veridical","STIM_SET_1_REAL/713403.bmp_pp80_L3_V1.0_veridical_freeview_isoFalse_fps144.mp4",""
"null","","","html-keyboard-response","378","870802","0.0-378.0","rneumf3l","","<span style=""color:Black; font-size:50px;"">Agent B","null","","","","",""
"null","","","video-keyboard-response","379","873896","0.0-379.0","rneumf3l","","","null","","Agent B","scrambled","STIM_SET_3/286034.bmp_pp69_L3_V2_veridical_freeview_isoFalsemismatch_713403.bmp_L3_fps90.mp4",""
"","","","call-function","380","873897","0.0-380.0","rneumf3l","","","","","","","",""
"1906.1500000000233","{""judgement"":0}","[0]","survey-likert","381","875804","0.0-381.0","rneumf3l","","","","","","","","0"
"2245.8950000000186","{""confidence"":2}","[0]","survey-likert","382","878051","0.0-382.0","rneumf3l","","","","","","","",""
"","","","call-function","383","878052","0.0-383.0","rneumf3l","","","","","","","",""
"null","","","html-keyboard-response","384","879555","0.0-384.0","rneumf3l","","<span style=""color:Black; font-size:50px;"">Agent A","null","","","","",""
"null","","","video-keyboard-response","385","882642","0.0-385.0","rneumf3l","","","null","","Agent A","veridical","STIM_SET_1_REAL/286001.bmp_pp54_L2_V1.0_veridical_freeview_isoFalse_fps144.mp4",""
"null","","","html-keyboard-response","386","884147","0.0-386.0","rneumf3l","","<span style=""color:Black; font-size:50px;"">Agent B","null","","","","",""
"null","","","video-keyboard-response","387","887244","0.0-387.0","rneumf3l","","","null","","Agent B","scrambled","STIM_SET_3/1160204.bmp_pp54_L2_V2_veridical_freeview_isoFalsemismatch_286001.bmp_L2_fps90.mp4",""
"","","","call-function","388","887245","0.0-388.0","rneumf3l","","","","","","","",""
"2550.8300000000745","{""judgement"":0}","[0]","survey-likert","389","889796","0.0-389.0","rneumf3l","","","","","","","","0"
"3808","{""confidence"":2}","[0]","survey-likert","390","893606","0.0-390.0","rneumf3l","","","","","","","",""
"","","","call-function","391","893606","0.0-391.0","rneumf3l","","","","","","","",""
"null","","","html-keyboard-response","392","895109","0.0-392.0","rneumf3l","","<span style=""color:Black; font-size:50px;"">Agent A","null","","","","",""
"null","","","video-keyboard-response","393","898187","0.0-393.0","rneumf3l","","","null","","Agent A","scrambled","STIM_SET_3/713742.bmp_pp91_L3_V2_veridical_freeview_isoFalsemismatch_498170.bmp_L3_fps90.mp4",""
"null","","","html-keyboard-response","394","899693","0.0-394.0","rneumf3l","","<span style=""color:Black; font-size:50px;"">Agent B","null","","","","",""
"null","","","video-keyboard-response","395","902755","0.0-395.0","rneumf3l","","","null","","Agent B","veridical","STIM_SET_1_REAL/498170.bmp_pp153_L3_V1.0_veridical_freeview_isoFalse_fps144.mp4",""
"","","","call-function","396","902756","0.0-396.0","rneumf3l","","","","","","","",""
"3801.305000000051","{""judgement"":0}","[0]","survey-likert","397","906559","0.0-397.0","rneumf3l","","","","","","","","1"
"1518.5","{""confidence"":0}","[0]","survey-likert","398","908079","0.0-398.0","rneumf3l","","","","","","","",""
"","","","call-function","399","908080","0.0-399.0","rneumf3l","","","","","","","",""
"null","","","html-keyboard-response","400","909586","0.0-400.0","rneumf3l","","<span style=""color:Black; font-size:50px;"">Agent A","null","","","","",""
"null","","","video-keyboard-response","401","912649","0.0-401.0","rneumf3l","","","null","","Agent A","veridical","STIM_SET_1_REAL/1592817.bmp_pp55_L3_V1.0_veridical_freeview_isoFalse_fps144.mp4",""
"null","","","html-keyboard-response","402","914153","0.0-402.0","rneumf3l","","<span style=""color:Black; font-size:50px;"">Agent B","null","","","","",""
"null","","","video-keyboard-response","403","917224","0.0-403.0","rneumf3l","","","null","","Agent B","scrambled","STIM_SET_3/1159329.bmp_pp61_L2_V2_veridical_freeview_isoFalsemismatch_1592817.bmp_L3_fps90.mp4",""
"","","","call-function","404","917224","0.0-404.0","rneumf3l","","","","","","","",""
"3010.6750000000466","{""judgement"":0}","[0]","survey-likert","405","920236","0.0-405.0","rneumf3l","","","","","","","","0"
"1899.4550000000745","{""confidence"":1}","[0]","survey-likert","406","922137","0.0-406.0","rneumf3l","","","","","","","",""
"","","","call-function","407","922138","0.0-407.0","rneumf3l","","","","","","","",""
"null","","","html-keyboard-response","408","923641","0.0-408.0","rneumf3l","","<span style=""color:Black; font-size:50px;"">Agent A","null","","","","",""
"null","","","video-keyboard-response","409","926704","0.0-409.0","rneumf3l","","","null","","Agent A","veridical","STIM_SET_1_REAL/1159621.bmp_pp92_L3_V1.0_veridical_freeview_isoFalse_fps144.mp4",""
"null","","","html-keyboard-response","410","928209","0.0-410.0","rneumf3l","","<span style=""color:Black; font-size:50px;"">Agent B","null","","","","",""
"null","","","video-keyboard-response","411","931307","0.0-411.0","rneumf3l","","","null","","Agent B","scrambled","STIM_SET_3/1159860.bmp_pp152_L2_V2_veridical_freeview_isoFalsemismatch_1159621.bmp_L3_fps90.mp4",""
"","","","call-function","412","931307","0.0-412.0","rneumf3l","","","","","","","",""
"2592.840000000084","{""judgement"":0}","[0]","survey-likert","413","933901","0.0-413.0","rneumf3l","","","","","","","","0"
"3090.0299999999115","{""confidence"":1}","[0]","survey-likert","414","936992","0.0-414.0","rneumf3l","","","","","","","",""
"2471.4150000000373","","","instructions","415","939464","0.0-415.0","rneumf3l","[{""page_index"":0,""viewing_time"":1206.329999999958},{""page_index"":1,""viewing_time"":586.875},{""page_index"":2,""viewing_time"":677.984999999986}]","","","","","","",""
"5728.550000000047","","","instructions","416","945194","0.0-416.0","rneumf3l","[{""page_index"":0,""viewing_time"":763.2850000000326},{""page_index"":1,""viewing_time"":1815.8099999999395},{""page_index"":2,""viewing_time"":3149.2299999999814}]","","","","","","",""
"","","","call-function","417","945194","0.0-417.0","rneumf3l","","","","","","","",""
"null","","","html-keyboard-response","418","946697","0.0-418.0","rneumf3l","","<span style=""color:Black; font-size:50px;"">Agent A","null","","","","",""
"null","","","video-keyboard-response","419","949792","0.0-419.0","rneumf3l","","","null","","Agent A","veridical","STIM_SET_1_REAL/1592619.bmp_pp56_L3_V1.0_veridical_freeview_isoFalse_fps144.mp4",""
"null","","","html-keyboard-response","420","951294","0.0-420.0","rneumf3l","","<span style=""color:Black; font-size:50px;"">Agent B","null","","","","",""
"null","","","video-keyboard-response","421","954393","0.0-421.0","rneumf3l","","","null","","Agent B","scrambled","STIM_SET_3/150463.bmp_pp55_L3_V2_veridical_freeview_isoFalsemismatch_1592619.bmp_L3_fps90.mp4",""
"","","","call-function","422","954393","0.0-422.0","rneumf3l","","","","","","","",""
"2199.929999999935","{""judgement"":0}","[0]","survey-likert","423","956594","0.0-423.0","rneumf3l","","","","","","","","0"
"2617.2550000000047","{""confidence"":0}","[0]","survey-likert","424","959213","0.0-424.0","rneumf3l","","","","","","","",""
"","","","call-function","425","959213","0.0-425.0","rneumf3l","","","","","","","",""
"null","","","html-keyboard-response","426","960715","0.0-426.0","rneumf3l","","<span style=""color:Black; font-size:50px;"">Agent A","null","","","","",""
"null","","","video-keyboard-response","427","963814","0.0-427.0","rneumf3l","","","null","","Agent A","veridical","STIM_SET_1_REAL/1592499.bmp_pp96_L2_V1.0_veridical_freeview_isoFalse_fps144.mp4",""
"null","","","html-keyboard-response","428","965318","0.0-428.0","rneumf3l","","<span style=""color:Black; font-size:50px;"">Agent B","null","","","","",""
"null","","","video-keyboard-response","429","968388","0.0-429.0","rneumf3l","","","null","","Agent B","scrambled","STIM_SET_3/1159819.bmp_pp151_L1_V2_veridical_freeview_isoFalsemismatch_1592499.bmp_L2_fps90.mp4",""
"","","","call-function","430","968388","0.0-430.0","rneumf3l","","","","","","","",""
"2205.694999999949","{""judgement"":0}","[0]","survey-likert","431","970595","0.0-431.0","rneumf3l","","","","","","","","0"
"1782.0650000000605","{""confidence"":1}","[0]","survey-likert","432","972378","0.0-432.0","rneumf3l","","","","","","","",""
"","","","call-function","433","972379","0.0-433.0","rneumf3l","","","","","","","",""
"null","","","html-keyboard-response","434","973882","0.0-434.0","rneumf3l","","<span style=""color:Black; font-size:50px;"">Agent A","null","","","","",""
"null","","","video-keyboard-response","435","976958","0.0-435.0","rneumf3l","","","null","","Agent A","veridical","STIM_SET_1_REAL/1592807.bmp_pp68_L1_V1.0_veridical_freeview_isoFalse_fps144.mp4",""
"null","","","html-keyboard-response","436","978461","0.0-436.0","rneumf3l","","<span style=""color:Black; font-size:50px;"">Agent B","null","","","","",""
"null","","","video-keyboard-response","437","981524","0.0-437.0","rneumf3l","","","null","","Agent B","scrambled","STIM_SET_3/713652.bmp_pp89_L1_V2_veridical_freeview_isoFalsemismatch_1592807.bmp_L1_fps90.mp4",""
"","","","call-function","438","981524","0.0-438.0","rneumf3l","","","","","","","",""
"3383.9100000000326","{""judgement"":0}","[0]","survey-likert","439","984909","0.0-439.0","rneumf3l","","","","","","","","0"
"1828.1650000000373","{""confidence"":2}","[0]","survey-likert","440","986738","0.0-440.0","rneumf3l","","","","","","","",""
"","","","call-function","441","986739","0.0-441.0","rneumf3l","","","","","","","",""
"null","","","html-keyboard-response","442","988242","0.0-442.0","rneumf3l","","<span style=""color:Black; font-size:50px;"">Agent A","null","","","","",""
"null","","","video-keyboard-response","443","991318","0.0-443.0","rneumf3l","","","null","","Agent A","veridical","STIM_SET_1_REAL/713620.bmp_pp65_L3_V1.0_veridical_freeview_isoFalse_fps144.mp4",""
"null","","","html-keyboard-response","444","992820","0.0-444.0","rneumf3l","","<span style=""color:Black; font-size:50px;"">Agent B","null","","","","",""
"null","","","video-keyboard-response","445","995909","0.0-445.0","rneumf3l","","","null","","Agent B","scrambled","STIM_SET_3/498398.bmp_pp81_L1_V2_veridical_freeview_isoFalsemismatch_713620.bmp_L3_fps90.mp4",""
"","","","call-function","446","995910","0.0-446.0","rneumf3l","","","","","","","",""
"2493.9499999999534","{""judgement"":0}","[0]","survey-likert","447","998405","0.0-447.0","rneumf3l","","","","","","","","0"
"2545.3399999999674","{""confidence"":1}","[0]","survey-likert","448","1000951","0.0-448.0","rneumf3l","","","","","","","",""
"","","","call-function","449","1000952","0.0-449.0","rneumf3l","","","","","","","",""
"null","","","html-keyboard-response","450","1002455","0.0-450.0","rneumf3l","","<span style=""color:Black; font-size:50px;"">Agent A","null","","","","",""
"null","","","video-keyboard-response","451","1005561","0.0-451.0","rneumf3l","","","null","","Agent A","veridical","STIM_SET_1_REAL/285905.bmp_pp57_L1_V1.0_veridical_freeview_isoFalse_fps144.mp4",""
"null","","","html-keyboard-response","452","1007063","0.0-452.0","rneumf3l","","<span style=""color:Black; font-size:50px;"">Agent B","null","","","","",""
"null","","","video-keyboard-response","453","1010179","0.0-453.0","rneumf3l","","","null","","Agent B","scrambled","STIM_SET_3/1592568.bmp_pp71_L1_V2_veridical_freeview_isoFalsemismatch_285905.bmp_L1_fps90.mp4",""
"","","","call-function","454","1010179","0.0-454.0","rneumf3l","","","","","","","",""
"2808.67499999993","{""judgement"":0}","[0]","survey-likert","455","1012989","0.0-455.0","rneumf3l","","","","","","","","0"
"2996.685000000056","{""confidence"":2}","[0]","survey-likert","456","1015987","0.0-456.0","rneumf3l","","","","","","","",""
"","","","call-function","457","1015987","0.0-457.0","rneumf3l","","","","","","","",""
"null","","","html-keyboard-response","458","1017489","0.0-458.0","rneumf3l","","<span style=""color:Black; font-size:50px;"">Agent A","null","","","","",""
"null","","","video-keyboard-response","459","1020592","0.0-459.0","rneumf3l","","","null","","Agent A","veridical","STIM_SET_1_REAL/1592286.bmp_pp52_L1_V1.0_veridical_freeview_isoFalse_fps144.mp4",""
"null","","","html-keyboard-response","460","1022096","0.0-460.0","rneumf3l","","<span style=""color:Black; font-size:50px;"">Agent B","null","","","","",""
"null","","","video-keyboard-response","461","1025192","0.0-461.0","rneumf3l","","","null","","Agent B","scrambled","STIM_SET_3/498326.bmp_pp57_L1_V2_veridical_freeview_isoFalsemismatch_1592286.bmp_L1_fps90.mp4",""
"","","","call-function","462","1025194","0.0-462.0","rneumf3l","","","","","","","",""
"2177.125","{""judgement"":1}","[0]","survey-likert","463","1027373","0.0-463.0","rneumf3l","","","","","","","","0"
"1795.9499999999534","{""confidence"":1}","[0]","survey-likert","464","1029170","0.0-464.0","rneumf3l","","","","","","","",""
"","","","call-function","465","1029171","0.0-465.0","rneumf3l","","","","","","","",""
"null","","","html-keyboard-response","466","1030674","0.0-466.0","rneumf3l","","<span style=""color:Black; font-size:50px;"">Agent A","null","","","","",""
"null","","","video-keyboard-response","467","1033753","0.0-467.0","rneumf3l","","","null","","Agent A","veridical","STIM_SET_1_REAL/1592657.bmp_pp98_L1_V1.0_veridical_freeview_isoFalse_fps144.mp4",""
"null","","","html-keyboard-response","468","1035258","0.0-468.0","rneumf3l","","<span style=""color:Black; font-size:50px;"">Agent B","null","","","","",""
"null","","","video-keyboard-response","469","1038329","0.0-469.0","rneumf3l","","","null","","Agent B","scrambled","STIM_SET_3/498261.bmp_pp84_L3_V2_veridical_freeview_isoFalsemismatch_1592657.bmp_L1_fps90.mp4",""
"","","","call-function","470","1038330","0.0-470.0","rneumf3l","","","","","","","",""
"3147.07500000007","{""judgement"":0}","[0]","survey-likert","471","1041478","0.0-471.0","rneumf3l","","","","","","","","0"
"7460.589999999967","{""confidence"":2}","[0]","survey-likert","472","1048940","0.0-472.0","rneumf3l","","","","","","","",""
"","","","call-function","473","1048941","0.0-473.0","rneumf3l","","","","","","","",""
"null","","","html-keyboard-response","474","1050447","0.0-474.0","rneumf3l","","<span style=""color:Black; font-size:50px;"">Agent A","null","","","","",""
"null","","","video-keyboard-response","475","1053524","0.0-475.0","rneumf3l","","","null","","Agent A","veridical","STIM_SET_1_REAL/1593146.bmp_pp93_L1_V1.0_veridical_freeview_isoFalse_fps144.mp4",""
"null","","","html-keyboard-response","476","1055026","0.0-476.0","rneumf3l","","<span style=""color:Black; font-size:50px;"">Agent B","null","","","","",""
"null","","","video-keyboard-response","477","1058098","0.0-477.0","rneumf3l","","","null","","Agent B","scrambled","STIM_SET_3/1592298.bmp_pp56_L3_V2_veridical_freeview_isoFalsemismatch_1593146.bmp_L1_fps90.mp4",""
"","","","call-function","478","1058099","0.0-478.0","rneumf3l","","","","","","","",""
"2285.155000000028","{""judgement"":0}","[0]","survey-likert","479","1060385","0.0-479.0","rneumf3l","","","","","","","","0"
"2307.094999999972","{""confidence"":2}","[0]","survey-likert","480","1062693","0.0-480.0","rneumf3l","","","","","","","",""
"","","","call-function","481","1062694","0.0-481.0","rneumf3l","","","","","","","",""
"null","","","html-keyboard-response","482","1064197","0.0-482.0","rneumf3l","","<span style=""color:Black; font-size:50px;"">Agent A","null","","","","",""
"null","","","video-keyboard-response","483","1067306","0.0-483.0","rneumf3l","","","null","","Agent A","scrambled","STIM_SET_3/285959.bmp_pp93_L1_V2_veridical_freeview_isoFalsemismatch_498253.bmp_L2_fps90.mp4",""
"null","","","html-keyboard-response","484","1068812","0.0-484.0","rneumf3l","","<span style=""color:Black; font-size:50px;"">Agent B","null","","","","",""
"null","","","video-keyboard-response","485","1071918","0.0-485.0","rneumf3l","","","null","","Agent B","veridical","STIM_SET_1_REAL/498253.bmp_pp67_L2_V1.0_veridical_freeview_isoFalse_fps144.mp4",""
"","","","call-function","486","1071919","0.0-486.0","rneumf3l","","","","","","","",""
"3049.0200000000186","{""judgement"":1}","[0]","survey-likert","487","1074969","0.0-487.0","rneumf3l","","","","","","","","1"
"3160.369999999879","{""confidence"":1}","[0]","survey-likert","488","1078131","0.0-488.0","rneumf3l","","","","","","","",""
"","","","call-function","489","1078131","0.0-489.0","rneumf3l","","","","","","","",""
"null","","","html-keyboard-response","490","1079634","0.0-490.0","rneumf3l","","<span style=""color:Black; font-size:50px;"">Agent A","null","","","","",""
"null","","","video-keyboard-response","491","1082731","0.0-491.0","rneumf3l","","","null","","Agent A","scrambled","STIM_SET_3/498396.bmp_pp99_L2_V2_veridical_freeview_isoFalsemismatch_713371.bmp_L1_fps90.mp4",""
"null","","","html-keyboard-response","492","1084238","0.0-492.0","rneumf3l","","<span style=""color:Black; font-size:50px;"">Agent B","null","","","","",""
"null","","","video-keyboard-response","493","1087343","0.0-493.0","rneumf3l","","","null","","Agent B","veridical","STIM_SET_1_REAL/713371.bmp_pp68_L1_V1.0_veridical_freeview_isoFalse_fps144.mp4",""
"","","","call-function","494","1087344","0.0-494.0","rneumf3l","","","","","","","",""
"2411.065000000177","{""judgement"":1}","[0]","survey-likert","495","1089756","0.0-495.0","rneumf3l","","","","","","","","1"
"3262.1999999999534","{""confidence"":1}","[0]","survey-likert","496","1093019","0.0-496.0","rneumf3l","","","","","","","",""
"2309.8499999998603","","","instructions","497","1095330","0.0-497.0","rneumf3l","[{""page_index"":0,""viewing_time"":1136.3300000000745},{""page_index"":1,""viewing_time"":496.08499999996275},{""page_index"":2,""viewing_time"":677.2299999999814}]","","","","","","",""
"2416.274999999907","","","instructions","498","1097747","0.0-498.0","rneumf3l","[{""page_index"":0,""viewing_time"":827.9399999999441},{""page_index"":1,""viewing_time"":876.9699999999721},{""page_index"":2,""viewing_time"":711.2550000001211}]","","","","","","",""
"","","","call-function","499","1097748","0.0-499.0","rneumf3l","","","","","","","",""
"null","","","html-keyboard-response","500","1099249","0.0-500.0","rneumf3l","","<span style=""color:Black; font-size:50px;"">Agent A","null","","","","",""
"null","","","video-keyboard-response","501","1102326","0.0-501.0","rneumf3l","","","null","","Agent A","veridical","STIM_SET_1_REAL/285751.bmp_pp55_L3_V1.0_veridical_freeview_isoFalse_fps144.mp4",""
"null","","","html-keyboard-response","502","1103828","0.0-502.0","rneumf3l","","<span style=""color:Black; font-size:50px;"">Agent B","null","","","","",""
"null","","","video-keyboard-response","503","1106911","0.0-503.0","rneumf3l","","","null","","Agent B","scrambled","STIM_SET_3/285946.bmp_pp79_L2_V2_veridical_freeview_isoFalsemismatch_285751.bmp_L3_fps90.mp4",""
"","","","call-function","504","1106911","0.0-504.0","rneumf3l","","","","","","","",""
"2593.125","{""judgement"":0}","[0]","survey-likert","505","1109505","0.0-505.0","rneumf3l","","","","","","","","0"
"3518.964999999851","{""confidence"":2}","[0]","survey-likert","506","1113025","0.0-506.0","rneumf3l","","","","","","","",""
"","","","call-function","507","1113026","0.0-507.0","rneumf3l","","","","","","","",""
"null","","","html-keyboard-response","508","1114529","0.0-508.0","rneumf3l","","<span style=""color:Black; font-size:50px;"">Agent A","null","","","","",""
"null","","","video-keyboard-response","509","1117608","0.0-509.0","rneumf3l","","","null","","Agent A","veridical","STIM_SET_1_REAL/713707.bmp_pp154_L1_V1.0_veridical_freeview_isoFalse_fps144.mp4",""
"null","","","html-keyboard-response","510","1119112","0.0-510.0","rneumf3l","","<span style=""color:Black; font-size:50px;"">Agent B","null","","","","",""
"null","","","video-keyboard-response","511","1122174","0.0-511.0","rneumf3l","","","null","","Agent B","scrambled","STIM_SET_3/1592314.bmp_pp100_L3_V2_veridical_freeview_isoFalsemismatch_713707.bmp_L1_fps90.mp4",""
"","","","call-function","512","1122174","0.0-512.0","rneumf3l","","","","","","","",""
"3743.1450000000186","{""judgement"":0}","[0]","survey-likert","513","1125918","0.0-513.0","rneumf3l","","","","","","","","0"
"1755.6899999999441","{""confidence"":1}","[0]","survey-likert","514","1127675","0.0-514.0","rneumf3l","","","","","","","",""
"","","","call-function","515","1127676","0.0-515.0","rneumf3l","","","","","","","",""
"null","","","html-keyboard-response","516","1129178","0.0-516.0","rneumf3l","","<span style=""color:Black; font-size:50px;"">Agent A","null","","","","",""
"null","","","video-keyboard-response","517","1132270","0.0-517.0","rneumf3l","","","null","","Agent A","scrambled","STIM_SET_3/1591920.bmp_pp97_L3_V2_veridical_freeview_isoFalsemismatch_1592804.bmp_L3_fps90.mp4",""
"null","","","html-keyboard-response","518","1133776","0.0-518.0","rneumf3l","","<span style=""color:Black; font-size:50px;"">Agent B","null","","","","",""
"null","","","video-keyboard-response","519","1136887","0.0-519.0","rneumf3l","","","null","","Agent B","veridical","STIM_SET_1_REAL/1592804.bmp_pp91_L3_V1.0_veridical_freeview_isoFalse_fps144.mp4",""
"","","","call-function","520","1136888","0.0-520.0","rneumf3l","","","","","","","",""
"2448.814999999944","{""judgement"":0}","[0]","survey-likert","521","1139338","0.0-521.0","rneumf3l","","","","","","","","1"
"3330.8700000001118","{""confidence"":0}","[0]","survey-likert","522","1142670","0.0-522.0","rneumf3l","","","","","","","",""
"","","","call-function","523","1142671","0.0-523.0","rneumf3l","","","","","","","",""
"null","","","html-keyboard-response","524","1144173","0.0-524.0","rneumf3l","","<span style=""color:Black; font-size:50px;"">Agent A","null","","","","",""
"null","","","video-keyboard-response","525","1147264","0.0-525.0","rneumf3l","","","null","","Agent A","veridical","STIM_SET_1_REAL/1592351.bmp_pp51_L1_V1.0_veridical_freeview_isoFalse_fps144.mp4",""
"null","","","html-keyboard-response","526","1148768","0.0-526.0","rneumf3l","","<span style=""color:Black; font-size:50px;"">Agent B","null","","","","",""
"null","","","video-keyboard-response","527","1151866","0.0-527.0","rneumf3l","","","null","","Agent B","scrambled","STIM_SET_3/1592025.bmp_pp68_L1_V2_veridical_freeview_isoFalsemismatch_1592351.bmp_L1_fps90.mp4",""
"","","","call-function","528","1151867","0.0-528.0","rneumf3l","","","","","","","",""
"2269.3549999999814","{""judgement"":0}","[0]","survey-likert","529","1154137","0.0-529.0","rneumf3l","","","","","","","","0"
"1514.8900000001304","{""confidence"":1}","[0]","survey-likert","530","1155653","0.0-530.0","rneumf3l","","","","","","","",""
"","","","call-function","531","1155654","0.0-531.0","rneumf3l","","","","","","","",""
"null","","","html-keyboard-response","532","1157157","0.0-532.0","rneumf3l","","<span style=""color:Black; font-size:50px;"">Agent A","null","","","","",""
"null","","","video-keyboard-response","533","1160261","0.0-533.0","rneumf3l","","","null","","Agent A","scrambled","STIM_SET_3/713274.bmp_pp73_L3_V2_veridical_freeview_isoFalsemismatch_497950.bmp_L1_fps90.mp4",""
"null","","","html-keyboard-response","534","1161767","0.0-534.0","rneumf3l","","<span style=""color:Black; font-size:50px;"">Agent B","null","","","","",""
"null","","","video-keyboard-response","535","1164832","0.0-535.0","rneumf3l","","","null","","Agent B","veridical","STIM_SET_1_REAL/497950.bmp_pp151_L1_V1.0_veridical_freeview_isoFalse_fps144.mp4",""
"","","","call-function","536","1164833","0.0-536.0","rneumf3l","","","","","","","",""
"1821.875","{""judgement"":1}","[0]","survey-likert","537","1166656","0.0-537.0","rneumf3l","","","","","","","","1"
"1693.869999999879","{""confidence"":2}","[0]","survey-likert","538","1168352","0.0-538.0","rneumf3l","","","","","","","",""
"","","","call-function","539","1168353","0.0-539.0","rneumf3l","","","","","","","",""
"null","","","html-keyboard-response","540","1169856","0.0-540.0","rneumf3l","","<span style=""color:Black; font-size:50px;"">Agent A","null","","","","",""
"null","","","video-keyboard-response","541","1172933","0.0-541.0","rneumf3l","","","null","","Agent A","scrambled","STIM_SET_3/713790.bmp_pp100_L3_V2_veridical_freeview_isoFalsemismatch_1592397.bmp_L3_fps90.mp4",""
"null","","","html-keyboard-response","542","1174435","0.0-542.0","rneumf3l","","<span style=""color:Black; font-size:50px;"">Agent B","null","","","","",""
"null","","","video-keyboard-response","543","1177505","0.0-543.0","rneumf3l","","","null","","Agent B","veridical","STIM_SET_1_REAL/1592397.bmp_pp85_L3_V1.0_veridical_freeview_isoFalse_fps144.mp4",""
"","","","call-function","544","1177505","0.0-544.0","rneumf3l","","","","","","","",""
"2172.2600000000093","{""judgement"":1}","[0]","survey-likert","545","1179679","0.0-545.0","rneumf3l","","","","","","","","1"
"1796.625","{""confidence"":2}","[0]","survey-likert","546","1181477","0.0-546.0","rneumf3l","","","","","","","",""
"","","","call-function","547","1181478","0.0-547.0","rneumf3l","","","","","","","",""
"null","","","html-keyboard-response","548","1182982","0.0-548.0","rneumf3l","","<span style=""color:Black; font-size:50px;"">Agent A","null","","","","",""
"null","","","video-keyboard-response","549","1186059","0.0-549.0","rneumf3l","","","null","","Agent A","veridical","STIM_SET_1_REAL/1591954.bmp_pp62_L2_V1.0_veridical_freeview_isoFalse_fps144.mp4",""
"null","","","html-keyboard-response","550","1187562","0.0-550.0","rneumf3l","","<span style=""color:Black; font-size:50px;"">Agent B","null","","","","",""
"null","","","video-keyboard-response","551","1190647","0.0-551.0","rneumf3l","","","null","","Agent B","scrambled","STIM_SET_3/1160049.bmp_pp53_L2_V2_veridical_freeview_isoFalsemismatch_1591954.bmp_L2_fps90.mp4",""
"","","","call-function","552","1190648","0.0-552.0","rneumf3l","","","","","","","",""
"2652.5400000000373","{""judgement"":0}","[0]","survey-likert","553","1193301","0.0-553.0","rneumf3l","","","","","","","","0"
"1762.9499999999534","{""confidence"":1}","[0]","survey-likert","554","1195065","0.0-554.0","rneumf3l","","","","","","","",""
"","","","call-function","555","1195066","0.0-555.0","rneumf3l","","","","","","","",""
"null","","","html-keyboard-response","556","1196571","0.0-556.0","rneumf3l","","<span style=""color:Black; font-size:50px;"">Agent A","null","","","","",""
"null","","","video-keyboard-response","557","1199676","0.0-557.0","rneumf3l","","","null","","Agent A","scrambled","STIM_SET_3/107909.bmp_pp95_L2_V2_veridical_freeview_isoFalsemismatch_1592372.bmp_L1_fps90.mp4",""
"null","","","html-keyboard-response","558","1201182","0.0-558.0","rneumf3l","","<span style=""color:Black; font-size:50px;"">Agent B","null","","","","",""
"null","","","video-keyboard-response","559","1204288","0.0-559.0","rneumf3l","","","null","","Agent B","veridical","STIM_SET_1_REAL/1592372.bmp_pp76_L1_V1.0_veridical_freeview_isoFalse_fps144.mp4",""
"","","","call-function","560","1204288","0.0-560.0","rneumf3l","","","","","","","",""
"4056.839999999851","{""judgement"":0}","[0]","survey-likert","561","1208346","0.0-561.0","rneumf3l","","","","","","","","1"
"1537.8300000000745","{""confidence"":0}","[0]","survey-likert","562","1209885","0.0-562.0","rneumf3l","","","","","","","",""
"","","","call-function","563","1209886","0.0-563.0","rneumf3l","","","","","","","",""
"null","","","html-keyboard-response","564","1211391","0.0-564.0","rneumf3l","","<span style=""color:Black; font-size:50px;"">Agent A","null","","","","",""
"null","","","video-keyboard-response","565","1214490","0.0-565.0","rneumf3l","","","null","","Agent A","veridical","STIM_SET_1_REAL/285933.bmp_pp81_L1_V1.0_veridical_freeview_isoFalse_fps144.mp4",""
"null","","","html-keyboard-response","566","1215995","0.0-566.0","rneumf3l","","<span style=""color:Black; font-size:50px;"">Agent B","null","","","","",""
"null","","","video-keyboard-response","567","1219095","0.0-567.0","rneumf3l","","","null","","Agent B","scrambled","STIM_SET_3/1159973.bmp_pp98_L1_V2_veridical_freeview_isoFalsemismatch_285933.bmp_L1_fps90.mp4",""
"","","","call-function","568","1219096","0.0-568.0","rneumf3l","","","","","","","",""
"1792.3850000000093","{""judgement"":0}","[0]","survey-likert","569","1220889","0.0-569.0","rneumf3l","","","","","","","","0"
"2381.869999999879","{""confidence"":1}","[0]","survey-likert","570","1223272","0.0-570.0","rneumf3l","","","","","","","",""
"","","","call-function","571","1223273","0.0-571.0","rneumf3l","","","","","","","",""
"null","","","html-keyboard-response","572","1224776","0.0-572.0","rneumf3l","","<span style=""color:Black; font-size:50px;"">Agent A","null","","","","",""
"null","","","video-keyboard-response","573","1227864","0.0-573.0","rneumf3l","","","null","","Agent A","scrambled","STIM_SET_3/1159427.bmp_pp98_L1_V2_veridical_freeview_isoFalsemismatch_1591876.bmp_L1_fps90.mp4",""
"null","","","html-keyboard-response","574","1229368","0.0-574.0","rneumf3l","","<span style=""color:Black; font-size:50px;"">Agent B","null","","","","",""
"null","","","video-keyboard-response","575","1232474","0.0-575.0","rneumf3l","","","null","","Agent B","veridical","STIM_SET_1_REAL/1591876.bmp_pp63_L1_V1.0_veridical_freeview_isoFalse_fps144.mp4",""
"","","","call-function","576","1232474","0.0-576.0","rneumf3l","","","","","","","",""
"2641.4799999999814","{""judgement"":1}","[0]","survey-likert","577","1235117","0.0-577.0","rneumf3l","","","","","","","","1"
"1829.030000000028","{""confidence"":1}","[0]","survey-likert","578","1236947","0.0-578.0","rneumf3l","","","","","","","",""
"2196.4499999999534","","","instructions","579","1239144","0.0-579.0","rneumf3l","[{""page_index"":0,""viewing_time"":2196.2299999999814}]","","","","","","",""
"2501.375","","","instructions","580","1241646","0.0-580.0","rneumf3l","[{""page_index"":0,""viewing_time"":2501.255000000121}]","","","","","","",""
"12743.199999999953","{""post-1"":2}","[0]","survey-likert","581","1254391","0.0-581.0","rneumf3l","","","","","","","",""
"9817.274999999907","{""post-1"":1}","[0]","survey-likert","582","1264210","0.0-582.0","rneumf3l","","","","","","","",""
"5974.375","{""post-2"":1}","[0]","survey-likert","583","1270186","0.0-583.0","rneumf3l","","","","","","","",""
"7437.4550000000745","{""post-2"":0}","[0]","survey-likert","584","1277626","0.0-584.0","rneumf3l","","","","","","","",""
"6534.130000000121","{""post-3"":2}","[0]","survey-likert","585","1284162","0.0-585.0","rneumf3l","","","","","","","",""
"4735.155000000028","{""post-3"":1}","[0]","survey-likert","586","1288899","0.0-586.0","rneumf3l","","","","","","","",""
"4725.715000000084","{""post-4"":1}","[0]","survey-likert","587","1293626","0.0-587.0","rneumf3l","","","","","","","",""
"5124.719999999972","{""post-4"":0}","[0]","survey-likert","588","1298752","0.0-588.0","rneumf3l","","","","","","","",""
"6774.1699999999255","{""post-5"":1}","[0]","survey-likert","589","1305528","0.0-589.0","rneumf3l","","","","","","","",""
"2892.7950000001583","{""post-5"":2}","[0]","survey-likert","590","1308422","0.0-590.0","rneumf3l","","","","","","","",""
"76683.70499999984","{""Q0"":""In developmental psychology, we learned about a study this semester which showed what parts of human faces \""normally\""-developing children and adults tend to look at (eyes, nose, mouth). I felt the attention was more human when these were attention hotspots in images with faces.""}","","survey-text","591","1385111","0.0-591.0","rneumf3l","","","","","","","",""
"63081.15500000003","{""Q0"":""I found it easiest to follow/differentiate if there were words in the image that were focused on, faces that were looked at, or if the attention was constantly in blank parts of the image instead of focusing on other things, such as buses/nature/etc""}","","survey-text","592","1448197","0.0-592.0","rneumf3l","","","","","","","",""
"14737.244999999879","{""Q0"":""Keeping my attention focused. ""}","","survey-text","593","1462938","0.0-593.0","rneumf3l","","","","","","","",""
"176662.14500000002","","","instructions","594","1639602","0.0-594.0","rneumf3l","[{""page_index"":0,""viewing_time"":176662.0149999999}]","","","","","","",""
"34907.96999999997","{""Experimenter_end"":[""Printed ID# rneumf3l on consent form"",""Given subject SONA credit or payment"",""Given the subject debrief form""]}","[0]","survey-multi-select","595","1674513","0.0-595.0","rneumf3l","","","","","","","",""
