"rt","responses","question_order","trial_type","trial_index","time_elapsed","internal_node_id","ID","view_history","stimulus","key_press","value","agent","condition","image","correct_answer"
"12479.225","{""Experimenter"":[""Confirmed subject's identity (ID card)"",""Confirmed normal or corrected-to-normal vision"",""Obtained consent (signature and date)"",""Checked the test room lighting"",""Checked computer screen lighting"",""Checked distance from screen to chin rest (50cm)"",""Cleaned and adjusted chin rest"",""Counterbalanced the order of the tasks"",""Opened the experiment in Firefox"",""Made the experiment full screen"",""Encouraged subject to silence phone, put away distractors, etc.""]}","[0]","survey-multi-select","0","12488","0.0-0.0","smd3gjzv","","","","","","","",""
"19287.985","","","instructions","1","31777","0.0-1.0","smd3gjzv","[{""page_index"":0,""viewing_time"":19287.835}]","","","","","","",""
"5962.564999999999","","","instructions","2","37741","0.0-2.0","smd3gjzv","[{""page_index"":0,""viewing_time"":1845.7100000000028},{""page_index"":1,""viewing_time"":2424.0899999999965},{""page_index"":2,""viewing_time"":1692.6500000000015}]","","","","","","",""
"2288.0899999999965","","","instructions","3","40030","0.0-3.0","smd3gjzv","[{""page_index"":0,""viewing_time"":2287.9850000000006}]","","","","","","",""
"null","","","video-keyboard-response","4","43107","0.0-4.0","smd3gjzv","","","null","","","","",""
"11619.055","","","instructions","5","54727","0.0-5.0","smd3gjzv","[{""page_index"":0,""viewing_time"":1824.0350000000035},{""page_index"":1,""viewing_time"":3542.894999999997},{""page_index"":2,""viewing_time"":1064.010000000002},{""page_index"":3,""viewing_time"":1906.385000000002},{""page_index"":4,""viewing_time"":3281.595000000001}]","","","","","","",""
"2358.4349999999977","","","instructions","6","57086","0.0-6.0","smd3gjzv","[{""page_index"":0,""viewing_time"":2358.279999999999}]","","","","","","",""
"","","","call-function","7","57087","0.0-7.0","smd3gjzv","","","","","","","",""
"null","","","html-keyboard-response","8","58590","0.0-8.0","smd3gjzv","","<span style=""color:Black; font-size:50px;"">Agent A","null","","","","",""
"null","","","video-keyboard-response","9","61652","0.0-9.0","smd3gjzv","","","null","","Agent A","scrambled","STIM_SET_3/1592314.bmp_pp100_L3_V2_veridical_freeview_isoFalsemismatch_713707.bmp_L1_fps90.mp4",""
"null","","","html-keyboard-response","10","63156","0.0-10.0","smd3gjzv","","<span style=""color:Black; font-size:50px;"">Agent B","null","","","","",""
"null","","","video-keyboard-response","11","66234","0.0-11.0","smd3gjzv","","","null","","Agent B","veridical","STIM_SET_1_REAL/713707.bmp_pp154_L1_V1.0_veridical_freeview_isoFalse_fps144.mp4",""
"","","","call-function","12","66235","0.0-12.0","smd3gjzv","","","","","","","",""
"4837.959999999992","{""judgement"":0}","[0]","survey-likert","13","71074","0.0-13.0","smd3gjzv","","","","","","","","1"
"2273.574999999997","{""confidence"":1}","[0]","survey-likert","14","73349","0.0-14.0","smd3gjzv","","","","","","","",""
"","","","call-function","15","73349","0.0-15.0","smd3gjzv","","","","","","","",""
"null","","","html-keyboard-response","16","74853","0.0-16.0","smd3gjzv","","<span style=""color:Black; font-size:50px;"">Agent A","null","","","","",""
"null","","","video-keyboard-response","17","77931","0.0-17.0","smd3gjzv","","","null","","Agent A","veridical","STIM_SET_1_REAL/713593.bmp_pp64_L1_V1.0_veridical_freeview_isoFalse_fps144.mp4",""
"null","","","html-keyboard-response","18","79433","0.0-18.0","smd3gjzv","","<span style=""color:Black; font-size:50px;"">Agent B","null","","","","",""
"null","","","video-keyboard-response","19","82540","0.0-19.0","smd3gjzv","","","null","","Agent B","scrambled","STIM_SET_3/1592747.bmp_pp53_L2_V2_veridical_freeview_isoFalsemismatch_713593.bmp_L1_fps90.mp4",""
"","","","call-function","20","82541","0.0-20.0","smd3gjzv","","","","","","","",""
"1571.6699999999983","{""judgement"":0}","[0]","survey-likert","21","84115","0.0-21.0","smd3gjzv","","","","","","","","0"
"1401.8600000000006","{""confidence"":3}","[0]","survey-likert","22","85518","0.0-22.0","smd3gjzv","","","","","","","",""
"","","","call-function","23","85518","0.0-23.0","smd3gjzv","","","","","","","",""
"null","","","html-keyboard-response","24","87023","0.0-24.0","smd3gjzv","","<span style=""color:Black; font-size:50px;"">Agent A","null","","","","",""
"null","","","video-keyboard-response","25","90128","0.0-25.0","smd3gjzv","","","null","","Agent A","scrambled","STIM_SET_3/1592129.bmp_pp153_L3_V2_veridical_freeview_isoFalsemismatch_1159813.bmp_L2_fps90.mp4",""
"null","","","html-keyboard-response","26","91632","0.0-26.0","smd3gjzv","","<span style=""color:Black; font-size:50px;"">Agent B","null","","","","",""
"null","","","video-keyboard-response","27","94751","0.0-27.0","smd3gjzv","","","null","","Agent B","veridical","STIM_SET_1_REAL/1159813.bmp_pp79_L2_V1.0_veridical_freeview_isoFalse_fps144.mp4",""
"","","","call-function","28","94752","0.0-28.0","smd3gjzv","","","","","","","",""
"2212.1849999999977","{""judgement"":0}","[0]","survey-likert","29","96965","0.0-29.0","smd3gjzv","","","","","","","","1"
"1962.7200000000012","{""confidence"":1}","[0]","survey-likert","30","98929","0.0-30.0","smd3gjzv","","","","","","","",""
"","","","call-function","31","98929","0.0-31.0","smd3gjzv","","","","","","","",""
"null","","","html-keyboard-response","32","100436","0.0-32.0","smd3gjzv","","<span style=""color:Black; font-size:50px;"">Agent A","null","","","","",""
"null","","","video-keyboard-response","33","103526","0.0-33.0","smd3gjzv","","","null","","Agent A","scrambled","STIM_SET_3/1159427.bmp_pp98_L1_V2_veridical_freeview_isoFalsemismatch_1591876.bmp_L1_fps90.mp4",""
"null","","","html-keyboard-response","34","105032","0.0-34.0","smd3gjzv","","<span style=""color:Black; font-size:50px;"">Agent B","null","","","","",""
"null","","","video-keyboard-response","35","108107","0.0-35.0","smd3gjzv","","","null","","Agent B","veridical","STIM_SET_1_REAL/1591876.bmp_pp63_L1_V1.0_veridical_freeview_isoFalse_fps144.mp4",""
"","","","call-function","36","108107","0.0-36.0","smd3gjzv","","","","","","","",""
"4528.554999999993","{""judgement"":0}","[0]","survey-likert","37","112637","0.0-37.0","smd3gjzv","","","","","","","","1"
"1209.9300000000076","{""confidence"":1}","[0]","survey-likert","38","113848","0.0-38.0","smd3gjzv","","","","","","","",""
"","","","call-function","39","113848","0.0-39.0","smd3gjzv","","","","","","","",""
"null","","","html-keyboard-response","40","115353","0.0-40.0","smd3gjzv","","<span style=""color:Black; font-size:50px;"">Agent A","null","","","","",""
"null","","","video-keyboard-response","41","118461","0.0-41.0","smd3gjzv","","","null","","Agent A","veridical","STIM_SET_1_REAL/713211.bmp_pp100_L3_V1.0_veridical_freeview_isoFalse_fps144.mp4",""
"null","","","html-keyboard-response","42","119965","0.0-42.0","smd3gjzv","","<span style=""color:Black; font-size:50px;"">Agent B","null","","","","",""
"null","","","video-keyboard-response","43","123084","0.0-43.0","smd3gjzv","","","null","","Agent B","scrambled","STIM_SET_3/1592921.bmp_pp69_L3_V2_veridical_freeview_isoFalsemismatch_713211.bmp_L3_fps90.mp4",""
"","","","call-function","44","123085","0.0-44.0","smd3gjzv","","","","","","","",""
"3968.225000000006","{""judgement"":1}","[0]","survey-likert","45","127055","0.0-45.0","smd3gjzv","","","","","","","","0"
"1337.9900000000052","{""confidence"":1}","[0]","survey-likert","46","128395","0.0-46.0","smd3gjzv","","","","","","","",""
"","","","call-function","47","128396","0.0-47.0","smd3gjzv","","","","","","","",""
"null","","","html-keyboard-response","48","129899","0.0-48.0","smd3gjzv","","<span style=""color:Black; font-size:50px;"">Agent A","null","","","","",""
"null","","","video-keyboard-response","49","132961","0.0-49.0","smd3gjzv","","","null","","Agent A","veridical","STIM_SET_1_REAL/498149.bmp_pp99_L2_V1.0_veridical_freeview_isoFalse_fps144.mp4",""
"null","","","html-keyboard-response","50","134463","0.0-50.0","smd3gjzv","","<span style=""color:Black; font-size:50px;"">Agent B","null","","","","",""
"null","","","video-keyboard-response","51","137528","0.0-51.0","smd3gjzv","","","null","","Agent B","scrambled","STIM_SET_3/107955.bmp_pp90_L2_V2_veridical_freeview_isoFalsemismatch_498149.bmp_L2_fps90.mp4",""
"","","","call-function","52","137529","0.0-52.0","smd3gjzv","","","","","","","",""
"1880.2999999999884","{""judgement"":1}","[0]","survey-likert","53","139410","0.0-53.0","smd3gjzv","","","","","","","","0"
"1872.5650000000023","{""confidence"":1}","[0]","survey-likert","54","141284","0.0-54.0","smd3gjzv","","","","","","","",""
"","","","call-function","55","141285","0.0-55.0","smd3gjzv","","","","","","","",""
"null","","","html-keyboard-response","56","142791","0.0-56.0","smd3gjzv","","<span style=""color:Black; font-size:50px;"">Agent A","null","","","","",""
"null","","","video-keyboard-response","57","145853","0.0-57.0","smd3gjzv","","","null","","Agent A","scrambled","STIM_SET_3/1592044.bmp_pp94_L2_V2_veridical_freeview_isoFalsemismatch_1159446.bmp_L3_fps90.mp4",""
"null","","","html-keyboard-response","58","147355","0.0-58.0","smd3gjzv","","<span style=""color:Black; font-size:50px;"">Agent B","null","","","","",""
"null","","","video-keyboard-response","59","150416","0.0-59.0","smd3gjzv","","","null","","Agent B","veridical","STIM_SET_1_REAL/1159446.bmp_pp60_L3_V1.0_veridical_freeview_isoFalse_fps144.mp4",""
"","","","call-function","60","150417","0.0-60.0","smd3gjzv","","","","","","","",""
"3954.2699999999895","{""judgement"":1}","[0]","survey-likert","61","154372","0.0-61.0","smd3gjzv","","","","","","","","1"
"1694.5100000000093","{""confidence"":2}","[0]","survey-likert","62","156068","0.0-62.0","smd3gjzv","","","","","","","",""
"","","","call-function","63","156068","0.0-63.0","smd3gjzv","","","","","","","",""
"null","","","html-keyboard-response","64","157570","0.0-64.0","smd3gjzv","","<span style=""color:Black; font-size:50px;"">Agent A","null","","","","",""
"null","","","video-keyboard-response","65","160673","0.0-65.0","smd3gjzv","","","null","","Agent A","veridical","STIM_SET_1_REAL/1592657.bmp_pp98_L1_V1.0_veridical_freeview_isoFalse_fps144.mp4",""
"null","","","html-keyboard-response","66","162175","0.0-66.0","smd3gjzv","","<span style=""color:Black; font-size:50px;"">Agent B","null","","","","",""
"null","","","video-keyboard-response","67","165287","0.0-67.0","smd3gjzv","","","null","","Agent B","scrambled","STIM_SET_3/498261.bmp_pp84_L3_V2_veridical_freeview_isoFalsemismatch_1592657.bmp_L1_fps90.mp4",""
"","","","call-function","68","165288","0.0-68.0","smd3gjzv","","","","","","","",""
"2314.3150000000023","{""judgement"":1}","[0]","survey-likert","69","167603","0.0-69.0","smd3gjzv","","","","","","","","0"
"3728.540000000008","{""confidence"":1}","[0]","survey-likert","70","171333","0.0-70.0","smd3gjzv","","","","","","","",""
"","","","call-function","71","171333","0.0-71.0","smd3gjzv","","","","","","","",""
"null","","","html-keyboard-response","72","172837","0.0-72.0","smd3gjzv","","<span style=""color:Black; font-size:50px;"">Agent A","null","","","","",""
"null","","","video-keyboard-response","73","175922","0.0-73.0","smd3gjzv","","","null","","Agent A","scrambled","STIM_SET_3/498398.bmp_pp81_L1_V2_veridical_freeview_isoFalsemismatch_713620.bmp_L3_fps90.mp4",""
"null","","","html-keyboard-response","74","177425","0.0-74.0","smd3gjzv","","<span style=""color:Black; font-size:50px;"">Agent B","null","","","","",""
"null","","","video-keyboard-response","75","180529","0.0-75.0","smd3gjzv","","","null","","Agent B","veridical","STIM_SET_1_REAL/713620.bmp_pp65_L3_V1.0_veridical_freeview_isoFalse_fps144.mp4",""
"","","","call-function","76","180529","0.0-76.0","smd3gjzv","","","","","","","",""
"2766.720000000001","{""judgement"":1}","[0]","survey-likert","77","183297","0.0-77.0","smd3gjzv","","","","","","","","1"
"1916.7399999999907","{""confidence"":2}","[0]","survey-likert","78","185215","0.0-78.0","smd3gjzv","","","","","","","",""
"","","","call-function","79","185215","0.0-79.0","smd3gjzv","","","","","","","",""
"null","","","html-keyboard-response","80","186717","0.0-80.0","smd3gjzv","","<span style=""color:Black; font-size:50px;"">Agent A","null","","","","",""
"null","","","video-keyboard-response","81","189820","0.0-81.0","smd3gjzv","","","null","","Agent A","veridical","STIM_SET_1_REAL/1591961.bmp_pp67_L2_V1.0_veridical_freeview_isoFalse_fps144.mp4",""
"null","","","html-keyboard-response","82","191322","0.0-82.0","smd3gjzv","","<span style=""color:Black; font-size:50px;"">Agent B","null","","","","",""
"null","","","video-keyboard-response","83","194456","0.0-83.0","smd3gjzv","","","null","","Agent B","scrambled","STIM_SET_3/1592530.bmp_pp75_L1_V2_veridical_freeview_isoFalsemismatch_1591961.bmp_L2_fps90.mp4",""
"","","","call-function","84","194457","0.0-84.0","smd3gjzv","","","","","","","",""
"1913.8399999999965","{""judgement"":0}","[0]","survey-likert","85","196372","0.0-85.0","smd3gjzv","","","","","","","","0"
"1064.570000000007","{""confidence"":1}","[0]","survey-likert","86","197438","0.0-86.0","smd3gjzv","","","","","","","",""
"2591.8099999999977","","","instructions","87","200031","0.0-87.0","smd3gjzv","[{""page_index"":0,""viewing_time"":1463.4100000000035},{""page_index"":1,""viewing_time"":886.5849999999919},{""page_index"":2,""viewing_time"":241.59500000000116}]","","","","","","",""
"45114.75","","","instructions","88","245146","0.0-88.0","smd3gjzv","[{""page_index"":0,""viewing_time"":40489.75},{""page_index"":1,""viewing_time"":3699.820000000007},{""page_index"":2,""viewing_time"":925.0749999999825}]","","","","","","",""
"","","","call-function","89","245147","0.0-89.0","smd3gjzv","","","","","","","",""
"null","","","html-keyboard-response","90","246648","0.0-90.0","smd3gjzv","","<span style=""color:Black; font-size:50px;"">Agent A","null","","","","",""
"null","","","video-keyboard-response","91","249726","0.0-91.0","smd3gjzv","","","null","","Agent A","veridical","STIM_SET_1_REAL/1592804.bmp_pp91_L3_V1.0_veridical_freeview_isoFalse_fps144.mp4",""
"null","","","html-keyboard-response","92","251229","0.0-92.0","smd3gjzv","","<span style=""color:Black; font-size:50px;"">Agent B","null","","","","",""
"null","","","video-keyboard-response","93","254291","0.0-93.0","smd3gjzv","","","null","","Agent B","scrambled","STIM_SET_3/1591920.bmp_pp97_L3_V2_veridical_freeview_isoFalsemismatch_1592804.bmp_L3_fps90.mp4",""
"","","","call-function","94","254292","0.0-94.0","smd3gjzv","","","","","","","",""
"2063.209999999992","{""judgement"":1}","[0]","survey-likert","95","256356","0.0-95.0","smd3gjzv","","","","","","","","0"
"2445.875","{""confidence"":2}","[0]","survey-likert","96","258803","0.0-96.0","smd3gjzv","","","","","","","",""
"","","","call-function","97","258804","0.0-97.0","smd3gjzv","","","","","","","",""
"null","","","html-keyboard-response","98","260305","0.0-98.0","smd3gjzv","","<span style=""color:Black; font-size:50px;"">Agent A","null","","","","",""
"null","","","video-keyboard-response","99","263388","0.0-99.0","smd3gjzv","","","null","","Agent A","scrambled","STIM_SET_3/285715.bmp_pp67_L2_V2_veridical_freeview_isoFalsemismatch_1159882.bmp_L2_fps90.mp4",""
"null","","","html-keyboard-response","100","264891","0.0-100.0","smd3gjzv","","<span style=""color:Black; font-size:50px;"">Agent B","null","","","","",""
"null","","","video-keyboard-response","101","267955","0.0-101.0","smd3gjzv","","","null","","Agent B","veridical","STIM_SET_1_REAL/1159882.bmp_pp61_L2_V1.0_veridical_freeview_isoFalse_fps144.mp4",""
"","","","call-function","102","267956","0.0-102.0","smd3gjzv","","","","","","","",""
"2945.0499999999884","{""judgement"":1}","[0]","survey-likert","103","270902","0.0-103.0","smd3gjzv","","","","","","","","1"
"1615.5","{""confidence"":3}","[0]","survey-likert","104","272519","0.0-104.0","smd3gjzv","","","","","","","",""
"","","","call-function","105","272519","0.0-105.0","smd3gjzv","","","","","","","",""
"null","","","html-keyboard-response","106","274023","0.0-106.0","smd3gjzv","","<span style=""color:Black; font-size:50px;"">Agent A","null","","","","",""
"null","","","video-keyboard-response","107","277134","0.0-107.0","smd3gjzv","","","null","","Agent A","scrambled","STIM_SET_3/1592150.bmp_pp77_L3_V2_veridical_freeview_isoFalsemismatch_1159447.bmp_L2_fps90.mp4",""
"null","","","html-keyboard-response","108","278637","0.0-108.0","smd3gjzv","","<span style=""color:Black; font-size:50px;"">Agent B","null","","","","",""
"null","","","video-keyboard-response","109","281728","0.0-109.0","smd3gjzv","","","null","","Agent B","veridical","STIM_SET_1_REAL/1159447.bmp_pp70_L2_V1.0_veridical_freeview_isoFalse_fps144.mp4",""
"","","","call-function","110","281729","0.0-110.0","smd3gjzv","","","","","","","",""
"3003.359999999986","{""judgement"":0}","[0]","survey-likert","111","284733","0.0-111.0","smd3gjzv","","","","","","","","1"
"1731.429999999993","{""confidence"":2}","[0]","survey-likert","112","286466","0.0-112.0","smd3gjzv","","","","","","","",""
"","","","call-function","113","286466","0.0-113.0","smd3gjzv","","","","","","","",""
"null","","","html-keyboard-response","114","287968","0.0-114.0","smd3gjzv","","<span style=""color:Black; font-size:50px;"">Agent A","null","","","","",""
"null","","","video-keyboard-response","115","291079","0.0-115.0","smd3gjzv","","","null","","Agent A","scrambled","STIM_SET_3/1160204.bmp_pp54_L2_V2_veridical_freeview_isoFalsemismatch_286001.bmp_L2_fps90.mp4",""
"null","","","html-keyboard-response","116","292582","0.0-116.0","smd3gjzv","","<span style=""color:Black; font-size:50px;"">Agent B","null","","","","",""
"null","","","video-keyboard-response","117","295642","0.0-117.0","smd3gjzv","","","null","","Agent B","veridical","STIM_SET_1_REAL/286001.bmp_pp54_L2_V1.0_veridical_freeview_isoFalse_fps144.mp4",""
"","","","call-function","118","295643","0.0-118.0","smd3gjzv","","","","","","","",""
"5637.450000000012","{""judgement"":0}","[0]","survey-likert","119","301281","0.0-119.0","smd3gjzv","","","","","","","","1"
"3884.8549999999814","{""confidence"":2}","[0]","survey-likert","120","305168","0.0-120.0","smd3gjzv","","","","","","","",""
"","","","call-function","121","305169","0.0-121.0","smd3gjzv","","","","","","","",""
"null","","","html-keyboard-response","122","306672","0.0-122.0","smd3gjzv","","<span style=""color:Black; font-size:50px;"">Agent A","null","","","","",""
"null","","","video-keyboard-response","123","309748","0.0-123.0","smd3gjzv","","","null","","Agent A","scrambled","STIM_SET_3/713858.bmp_pp57_L1_V2_veridical_freeview_isoFalsemismatch_713749.bmp_L2_fps90.mp4",""
"null","","","html-keyboard-response","124","311254","0.0-124.0","smd3gjzv","","<span style=""color:Black; font-size:50px;"">Agent B","null","","","","",""
"null","","","video-keyboard-response","125","314330","0.0-125.0","smd3gjzv","","","null","","Agent B","veridical","STIM_SET_1_REAL/713749.bmp_pp88_L2_V1.0_veridical_freeview_isoFalse_fps144.mp4",""
"","","","call-function","126","314331","0.0-126.0","smd3gjzv","","","","","","","",""
"1496.195000000007","{""judgement"":1}","[0]","survey-likert","127","315828","0.0-127.0","smd3gjzv","","","","","","","","1"
"1877.0349999999744","{""confidence"":2}","[0]","survey-likert","128","317707","0.0-128.0","smd3gjzv","","","","","","","",""
"","","","call-function","129","317708","0.0-129.0","smd3gjzv","","","","","","","",""
"null","","","html-keyboard-response","130","319209","0.0-130.0","smd3gjzv","","<span style=""color:Black; font-size:50px;"">Agent A","null","","","","",""
"null","","","video-keyboard-response","131","322273","0.0-131.0","smd3gjzv","","","null","","Agent A","veridical","STIM_SET_1_REAL/497950.bmp_pp151_L1_V1.0_veridical_freeview_isoFalse_fps144.mp4",""
"null","","","html-keyboard-response","132","323774","0.0-132.0","smd3gjzv","","<span style=""color:Black; font-size:50px;"">Agent B","null","","","","",""
"null","","","video-keyboard-response","133","326876","0.0-133.0","smd3gjzv","","","null","","Agent B","scrambled","STIM_SET_3/713274.bmp_pp73_L3_V2_veridical_freeview_isoFalsemismatch_497950.bmp_L1_fps90.mp4",""
"","","","call-function","134","326876","0.0-134.0","smd3gjzv","","","","","","","",""
"1715.0350000000326","{""judgement"":0}","[0]","survey-likert","135","328593","0.0-135.0","smd3gjzv","","","","","","","","0"
"1718.789999999979","{""confidence"":2}","[0]","survey-likert","136","330313","0.0-136.0","smd3gjzv","","","","","","","",""
"","","","call-function","137","330314","0.0-137.0","smd3gjzv","","","","","","","",""
"null","","","html-keyboard-response","138","331816","0.0-138.0","smd3gjzv","","<span style=""color:Black; font-size:50px;"">Agent A","null","","","","",""
"null","","","video-keyboard-response","139","334921","0.0-139.0","smd3gjzv","","","null","","Agent A","scrambled","STIM_SET_3/1592289.bmp_pp92_L3_V2_veridical_freeview_isoFalsemismatch_713666.bmp_L3_fps90.mp4",""
"null","","","html-keyboard-response","140","336427","0.0-140.0","smd3gjzv","","<span style=""color:Black; font-size:50px;"">Agent B","null","","","","",""
"null","","","video-keyboard-response","141","339537","0.0-141.0","smd3gjzv","","","null","","Agent B","veridical","STIM_SET_1_REAL/713666.bmp_pp97_L3_V1.0_veridical_freeview_isoFalse_fps144.mp4",""
"","","","call-function","142","339537","0.0-142.0","smd3gjzv","","","","","","","",""
"1761.5200000000186","{""judgement"":1}","[0]","survey-likert","143","341300","0.0-143.0","smd3gjzv","","","","","","","","1"
"1477.8300000000163","{""confidence"":3}","[0]","survey-likert","144","342779","0.0-144.0","smd3gjzv","","","","","","","",""
"","","","call-function","145","342779","0.0-145.0","smd3gjzv","","","","","","","",""
"null","","","html-keyboard-response","146","344281","0.0-146.0","smd3gjzv","","<span style=""color:Black; font-size:50px;"">Agent A","null","","","","",""
"null","","","video-keyboard-response","147","347374","0.0-147.0","smd3gjzv","","","null","","Agent A","veridical","STIM_SET_1_REAL/1159572.bmp_pp71_L1_V1.0_veridical_freeview_isoFalse_fps144.mp4",""
"null","","","html-keyboard-response","148","348876","0.0-148.0","smd3gjzv","","<span style=""color:Black; font-size:50px;"">Agent B","null","","","","",""
"null","","","video-keyboard-response","149","351981","0.0-149.0","smd3gjzv","","","null","","Agent B","scrambled","STIM_SET_3/713381.bmp_pp82_L2_V2_veridical_freeview_isoFalsemismatch_1159572.bmp_L1_fps90.mp4",""
"","","","call-function","150","351981","0.0-150.0","smd3gjzv","","","","","","","",""
"2290.780000000028","{""judgement"":0}","[0]","survey-likert","151","354273","0.0-151.0","smd3gjzv","","","","","","","","0"
"2216.4799999999814","{""confidence"":2}","[0]","survey-likert","152","356491","0.0-152.0","smd3gjzv","","","","","","","",""
"","","","call-function","153","356492","0.0-153.0","smd3gjzv","","","","","","","",""
"null","","","html-keyboard-response","154","357994","0.0-154.0","smd3gjzv","","<span style=""color:Black; font-size:50px;"">Agent A","null","","","","",""
"null","","","video-keyboard-response","155","361065","0.0-155.0","smd3gjzv","","","null","","Agent A","veridical","STIM_SET_1_REAL/713513.bmp_pp62_L2_V1.0_veridical_freeview_isoFalse_fps144.mp4",""
"null","","","html-keyboard-response","156","362571","0.0-156.0","smd3gjzv","","<span style=""color:Black; font-size:50px;"">Agent B","null","","","","",""
"null","","","video-keyboard-response","157","365645","0.0-157.0","smd3gjzv","","","null","","Agent B","scrambled","STIM_SET_3/1592047.bmp_pp51_L1_V2_veridical_freeview_isoFalsemismatch_713513.bmp_L2_fps90.mp4",""
"","","","call-function","158","365646","0.0-158.0","smd3gjzv","","","","","","","",""
"2152.570000000007","{""judgement"":0}","[0]","survey-likert","159","367799","0.0-159.0","smd3gjzv","","","","","","","","0"
"1232.5500000000466","{""confidence"":1}","[0]","survey-likert","160","369034","0.0-160.0","smd3gjzv","","","","","","","",""
"","","","call-function","161","369034","0.0-161.0","smd3gjzv","","","","","","","",""
"null","","","html-keyboard-response","162","370536","0.0-162.0","smd3gjzv","","<span style=""color:Black; font-size:50px;"">Agent A","null","","","","",""
"null","","","video-keyboard-response","163","373608","0.0-163.0","smd3gjzv","","","null","","Agent A","veridical","STIM_SET_1_REAL/713796.bmp_pp84_L3_V1.0_veridical_freeview_isoFalse_fps144.mp4",""
"null","","","html-keyboard-response","164","375112","0.0-164.0","smd3gjzv","","<span style=""color:Black; font-size:50px;"">Agent B","null","","","","",""
"null","","","video-keyboard-response","165","378265","0.0-165.0","smd3gjzv","","","null","","Agent B","scrambled","STIM_SET_3/713633.bmp_pp58_L1_V2_veridical_freeview_isoFalsemismatch_713796.bmp_L3_fps90.mp4",""
"","","","call-function","166","378265","0.0-166.0","smd3gjzv","","","","","","","",""
"1289.969999999972","{""judgement"":0}","[0]","survey-likert","167","379556","0.0-167.0","smd3gjzv","","","","","","","","0"
"1313.9150000000373","{""confidence"":3}","[0]","survey-likert","168","380871","0.0-168.0","smd3gjzv","","","","","","","",""
"1715.795000000042","","","instructions","169","382588","0.0-169.0","smd3gjzv","[{""page_index"":0,""viewing_time"":1061.2900000000373},{""page_index"":1,""viewing_time"":423.0650000000023},{""page_index"":2,""viewing_time"":231.2149999999674}]","","","","","","",""
"926.265000000014","","","instructions","170","383515","0.0-170.0","smd3gjzv","[{""page_index"":0,""viewing_time"":147.125},{""page_index"":1,""viewing_time"":340.7949999999837},{""page_index"":2,""viewing_time"":438.13000000000466}]","","","","","","",""
"","","","call-function","171","383515","0.0-171.0","smd3gjzv","","","","","","","",""
"null","","","html-keyboard-response","172","385021","0.0-172.0","smd3gjzv","","<span style=""color:Black; font-size:50px;"">Agent A","null","","","","",""
"null","","","video-keyboard-response","173","388120","0.0-173.0","smd3gjzv","","","null","","Agent A","scrambled","STIM_SET_3/1592305.bmp_pp65_L3_V2_veridical_freeview_isoFalsemismatch_713779.bmp_L2_fps90.mp4",""
"null","","","html-keyboard-response","174","389626","0.0-174.0","smd3gjzv","","<span style=""color:Black; font-size:50px;"">Agent B","null","","","","",""
"null","","","video-keyboard-response","175","392715","0.0-175.0","smd3gjzv","","","null","","Agent B","veridical","STIM_SET_1_REAL/713779.bmp_pp152_L2_V1.0_veridical_freeview_isoFalse_fps144.mp4",""
"","","","call-function","176","392715","0.0-176.0","smd3gjzv","","","","","","","",""
"1714.475000000035","{""judgement"":0}","[0]","survey-likert","177","394430","0.0-177.0","smd3gjzv","","","","","","","","1"
"1632.1149999999907","{""confidence"":1}","[0]","survey-likert","178","396064","0.0-178.0","smd3gjzv","","","","","","","",""
"","","","call-function","179","396064","0.0-179.0","smd3gjzv","","","","","","","",""
"null","","","html-keyboard-response","180","397565","0.0-180.0","smd3gjzv","","<span style=""color:Black; font-size:50px;"">Agent A","null","","","","",""
"null","","","video-keyboard-response","181","400670","0.0-181.0","smd3gjzv","","","null","","Agent A","veridical","STIM_SET_1_REAL/1160127.bmp_pp90_L2_V1.0_veridical_freeview_isoFalse_fps144.mp4",""
"null","","","html-keyboard-response","182","402173","0.0-182.0","smd3gjzv","","<span style=""color:Black; font-size:50px;"">Agent B","null","","","","",""
"null","","","video-keyboard-response","183","405290","0.0-183.0","smd3gjzv","","","null","","Agent B","scrambled","STIM_SET_3/498372.bmp_pp95_L2_V2_veridical_freeview_isoFalsemismatch_1160127.bmp_L2_fps90.mp4",""
"","","","call-function","184","405291","0.0-184.0","smd3gjzv","","","","","","","",""
"1914.3850000000093","{""judgement"":1}","[0]","survey-likert","185","407206","0.0-185.0","smd3gjzv","","","","","","","","0"
"2952.1199999999953","{""confidence"":0}","[0]","survey-likert","186","410160","0.0-186.0","smd3gjzv","","","","","","","",""
"","","","call-function","187","410160","0.0-187.0","smd3gjzv","","","","","","","",""
"null","","","html-keyboard-response","188","411664","0.0-188.0","smd3gjzv","","<span style=""color:Black; font-size:50px;"">Agent A","null","","","","",""
"null","","","video-keyboard-response","189","414757","0.0-189.0","smd3gjzv","","","null","","Agent A","scrambled","STIM_SET_3/1159392.bmp_pp96_L2_V2_veridical_freeview_isoFalsemismatch_1592934.bmp_L1_fps90.mp4",""
"null","","","html-keyboard-response","190","416263","0.0-190.0","smd3gjzv","","<span style=""color:Black; font-size:50px;"">Agent B","null","","","","",""
"null","","","video-keyboard-response","191","419365","0.0-191.0","smd3gjzv","","","null","","Agent B","veridical","STIM_SET_1_REAL/1592934.bmp_pp63_L1_V1.0_veridical_freeview_isoFalse_fps144.mp4",""
"","","","call-function","192","419366","0.0-192.0","smd3gjzv","","","","","","","",""
"2731.820000000007","{""judgement"":0}","[0]","survey-likert","193","422098","0.0-193.0","smd3gjzv","","","","","","","","1"
"1284.6749999999884","{""confidence"":1}","[0]","survey-likert","194","423384","0.0-194.0","smd3gjzv","","","","","","","",""
"","","","call-function","195","423385","0.0-195.0","smd3gjzv","","","","","","","",""
"null","","","html-keyboard-response","196","424887","0.0-196.0","smd3gjzv","","<span style=""color:Black; font-size:50px;"">Agent A","null","","","","",""
"null","","","video-keyboard-response","197","427950","0.0-197.0","smd3gjzv","","","null","","Agent A","veridical","STIM_SET_1_REAL/285994.bmp_pp92_L3_V1.0_veridical_freeview_isoFalse_fps144.mp4",""
"null","","","html-keyboard-response","198","429455","0.0-198.0","smd3gjzv","","<span style=""color:Black; font-size:50px;"">Agent B","null","","","","",""
"null","","","video-keyboard-response","199","432552","0.0-199.0","smd3gjzv","","","null","","Agent B","scrambled","STIM_SET_3/1159592.bmp_pp91_L3_V2_veridical_freeview_isoFalsemismatch_285994.bmp_L3_fps90.mp4",""
"","","","call-function","200","432553","0.0-200.0","smd3gjzv","","","","","","","",""
"2180.7999999999884","{""judgement"":1}","[0]","survey-likert","201","434735","0.0-201.0","smd3gjzv","","","","","","","","0"
"2159.3099999999977","{""confidence"":1}","[0]","survey-likert","202","436895","0.0-202.0","smd3gjzv","","","","","","","",""
"","","","call-function","203","436896","0.0-203.0","smd3gjzv","","","","","","","",""
"null","","","html-keyboard-response","204","438398","0.0-204.0","smd3gjzv","","<span style=""color:Black; font-size:50px;"">Agent A","null","","","","",""
"null","","","video-keyboard-response","205","441467","0.0-205.0","smd3gjzv","","","null","","Agent A","veridical","STIM_SET_1_REAL/1592581.bmp_pp100_L3_V1.0_veridical_freeview_isoFalse_fps144.mp4",""
"null","","","html-keyboard-response","206","442972","0.0-206.0","smd3gjzv","","<span style=""color:Black; font-size:50px;"">Agent B","null","","","","",""
"null","","","video-keyboard-response","207","446052","0.0-207.0","smd3gjzv","","","null","","Agent B","scrambled","STIM_SET_3/1160189.bmp_pp64_L1_V2_veridical_freeview_isoFalsemismatch_1592581.bmp_L3_fps90.mp4",""
"","","","call-function","208","446053","0.0-208.0","smd3gjzv","","","","","","","",""
"2026.6399999999558","{""judgement"":1}","[0]","survey-likert","209","448080","0.0-209.0","smd3gjzv","","","","","","","","0"
"1277.6199999999953","{""confidence"":2}","[0]","survey-likert","210","449359","0.0-210.0","smd3gjzv","","","","","","","",""
"","","","call-function","211","449360","0.0-211.0","smd3gjzv","","","","","","","",""
"null","","","html-keyboard-response","212","450861","0.0-212.0","smd3gjzv","","<span style=""color:Black; font-size:50px;"">Agent A","null","","","","",""
"null","","","video-keyboard-response","213","453967","0.0-213.0","smd3gjzv","","","null","","Agent A","scrambled","STIM_SET_3/713788.bmp_pp52_L1_V2_veridical_freeview_isoFalsemismatch_1159768.bmp_L1_fps90.mp4",""
"null","","","html-keyboard-response","214","455473","0.0-214.0","smd3gjzv","","<span style=""color:Black; font-size:50px;"">Agent B","null","","","","",""
"null","","","video-keyboard-response","215","458579","0.0-215.0","smd3gjzv","","","null","","Agent B","veridical","STIM_SET_1_REAL/1159768.bmp_pp89_L1_V1.0_veridical_freeview_isoFalse_fps144.mp4",""
"","","","call-function","216","458580","0.0-216.0","smd3gjzv","","","","","","","",""
"2357.070000000007","{""judgement"":1}","[0]","survey-likert","217","460938","0.0-217.0","smd3gjzv","","","","","","","","1"
"1485.5499999999884","{""confidence"":3}","[0]","survey-likert","218","462425","0.0-218.0","smd3gjzv","","","","","","","",""
"","","","call-function","219","462425","0.0-219.0","smd3gjzv","","","","","","","",""
"null","","","html-keyboard-response","220","463926","0.0-220.0","smd3gjzv","","<span style=""color:Black; font-size:50px;"">Agent A","null","","","","",""
"null","","","video-keyboard-response","221","467028","0.0-221.0","smd3gjzv","","","null","","Agent A","veridical","STIM_SET_1_REAL/1159829.bmp_pp91_L3_V1.0_veridical_freeview_isoFalse_fps144.mp4",""
"null","","","html-keyboard-response","222","468531","0.0-222.0","smd3gjzv","","<span style=""color:Black; font-size:50px;"">Agent B","null","","","","",""
"null","","","video-keyboard-response","223","471617","0.0-223.0","smd3gjzv","","","null","","Agent B","scrambled","STIM_SET_3/1159956.bmp_pp59_L3_V2_veridical_freeview_isoFalsemismatch_1159829.bmp_L3_fps90.mp4",""
"","","","call-function","224","471618","0.0-224.0","smd3gjzv","","","","","","","",""
"2259.5250000000233","{""judgement"":1}","[0]","survey-likert","225","473880","0.0-225.0","smd3gjzv","","","","","","","","0"
"1333.719999999972","{""confidence"":2}","[0]","survey-likert","226","475216","0.0-226.0","smd3gjzv","","","","","","","",""
"","","","call-function","227","475217","0.0-227.0","smd3gjzv","","","","","","","",""
"null","","","html-keyboard-response","228","476719","0.0-228.0","smd3gjzv","","<span style=""color:Black; font-size:50px;"">Agent A","null","","","","",""
"null","","","video-keyboard-response","229","479788","0.0-229.0","smd3gjzv","","","null","","Agent A","veridical","STIM_SET_1_REAL/285905.bmp_pp57_L1_V1.0_veridical_freeview_isoFalse_fps144.mp4",""
"null","","","html-keyboard-response","230","481289","0.0-230.0","smd3gjzv","","<span style=""color:Black; font-size:50px;"">Agent B","null","","","","",""
"null","","","video-keyboard-response","231","486256","0.0-231.0","smd3gjzv","","","null","","Agent B","scrambled","STIM_SET_3/1592568.bmp_pp71_L1_V2_veridical_freeview_isoFalsemismatch_285905.bmp_L1_fps90.mp4",""
"","","","call-function","232","486257","0.0-232.0","smd3gjzv","","","","","","","",""
"3867.3250000000116","{""judgement"":0}","[0]","survey-likert","233","490126","0.0-233.0","smd3gjzv","","","","","","","","0"
"2849.585000000021","{""confidence"":3}","[0]","survey-likert","234","492977","0.0-234.0","smd3gjzv","","","","","","","",""
"","","","call-function","235","492977","0.0-235.0","smd3gjzv","","","","","","","",""
"null","","","html-keyboard-response","236","494479","0.0-236.0","smd3gjzv","","<span style=""color:Black; font-size:50px;"">Agent A","null","","","","",""
"null","","","video-keyboard-response","237","497547","0.0-237.0","smd3gjzv","","","null","","Agent A","veridical","STIM_SET_1_REAL/1592133.bmp_pp75_L1_V1.0_veridical_freeview_isoFalse_fps144.mp4",""
"null","","","html-keyboard-response","238","499050","0.0-238.0","smd3gjzv","","<span style=""color:Black; font-size:50px;"">Agent B","null","","","","",""
"null","","","video-keyboard-response","239","502144","0.0-239.0","smd3gjzv","","","null","","Agent B","scrambled","STIM_SET_3/1160247.bmp_pp54_L2_V2_veridical_freeview_isoFalsemismatch_1592133.bmp_L1_fps90.mp4",""
"","","","call-function","240","502145","0.0-240.0","smd3gjzv","","","","","","","",""
"1882.7600000000093","{""judgement"":0}","[0]","survey-likert","241","504029","0.0-241.0","smd3gjzv","","","","","","","","0"
"2049.6749999999884","{""confidence"":2}","[0]","survey-likert","242","506080","0.0-242.0","smd3gjzv","","","","","","","",""
"","","","call-function","243","506080","0.0-243.0","smd3gjzv","","","","","","","",""
"null","","","html-keyboard-response","244","507582","0.0-244.0","smd3gjzv","","<span style=""color:Black; font-size:50px;"">Agent A","null","","","","",""
"null","","","video-keyboard-response","245","510677","0.0-245.0","smd3gjzv","","","null","","Agent A","scrambled","STIM_SET_3/498326.bmp_pp57_L1_V2_veridical_freeview_isoFalsemismatch_1592286.bmp_L1_fps90.mp4",""
"null","","","html-keyboard-response","246","512179","0.0-246.0","smd3gjzv","","<span style=""color:Black; font-size:50px;"">Agent B","null","","","","",""
"null","","","video-keyboard-response","247","515284","0.0-247.0","smd3gjzv","","","null","","Agent B","veridical","STIM_SET_1_REAL/1592286.bmp_pp52_L1_V1.0_veridical_freeview_isoFalse_fps144.mp4",""
"","","","call-function","248","515284","0.0-248.0","smd3gjzv","","","","","","","",""
"2987.5250000000233","{""judgement"":1}","[0]","survey-likert","249","518272","0.0-249.0","smd3gjzv","","","","","","","","1"
"1764.7999999999884","{""confidence"":2}","[0]","survey-likert","250","520038","0.0-250.0","smd3gjzv","","","","","","","",""
"1645.3300000000163","","","instructions","251","521684","0.0-251.0","smd3gjzv","[{""page_index"":0,""viewing_time"":1033.429999999993},{""page_index"":1,""viewing_time"":421.2700000000186},{""page_index"":2,""viewing_time"":190.46999999997206}]","","","","","","",""
"546.1900000000023","","","instructions","252","522231","0.0-252.0","smd3gjzv","[{""page_index"":0,""viewing_time"":153.9199999999837},{""page_index"":1,""viewing_time"":175.10000000003492},{""page_index"":2,""viewing_time"":217.05499999999302}]","","","","","","",""
"","","","call-function","253","522232","0.0-253.0","smd3gjzv","","","","","","","",""
"null","","","html-keyboard-response","254","523736","0.0-254.0","smd3gjzv","","<span style=""color:Black; font-size:50px;"">Agent A","null","","","","",""
"null","","","video-keyboard-response","255","526855","0.0-255.0","smd3gjzv","","","null","","Agent A","scrambled","STIM_SET_3/1159819.bmp_pp151_L1_V2_veridical_freeview_isoFalsemismatch_1592499.bmp_L2_fps90.mp4",""
"null","","","html-keyboard-response","256","528360","0.0-256.0","smd3gjzv","","<span style=""color:Black; font-size:50px;"">Agent B","null","","","","",""
"null","","","video-keyboard-response","257","531460","0.0-257.0","smd3gjzv","","","null","","Agent B","veridical","STIM_SET_1_REAL/1592499.bmp_pp96_L2_V1.0_veridical_freeview_isoFalse_fps144.mp4",""
"","","","call-function","258","531461","0.0-258.0","smd3gjzv","","","","","","","",""
"28794.01000000001","{""judgement"":0}","[0]","survey-likert","259","560257","0.0-259.0","smd3gjzv","","","","","","","","1"
"1757.3549999999814","{""confidence"":0}","[0]","survey-likert","260","562016","0.0-260.0","smd3gjzv","","","","","","","",""
"","","","call-function","261","562017","0.0-261.0","smd3gjzv","","","","","","","",""
"null","","","html-keyboard-response","262","563518","0.0-262.0","smd3gjzv","","<span style=""color:Black; font-size:50px;"">Agent A","null","","","","",""
"null","","","video-keyboard-response","263","566588","0.0-263.0","smd3gjzv","","","null","","Agent A","veridical","STIM_SET_1_REAL/1592727.bmp_pp59_L3_V1.0_veridical_freeview_isoFalse_fps144.mp4",""
"null","","","html-keyboard-response","264","568090","0.0-264.0","smd3gjzv","","<span style=""color:Black; font-size:50px;"">Agent B","null","","","","",""
"null","","","video-keyboard-response","265","571168","0.0-265.0","smd3gjzv","","","null","","Agent B","scrambled","STIM_SET_3/1592038.bmp_pp79_L2_V2_veridical_freeview_isoFalsemismatch_1592727.bmp_L3_fps90.mp4",""
"","","","call-function","266","571168","0.0-266.0","smd3gjzv","","","","","","","",""
"1964.9150000000373","{""judgement"":1}","[0]","survey-likert","267","573134","0.0-267.0","smd3gjzv","","","","","","","","0"
"1735.9649999999674","{""confidence"":2}","[0]","survey-likert","268","574873","0.0-268.0","smd3gjzv","","","","","","","",""
"","","","call-function","269","574873","0.0-269.0","smd3gjzv","","","","","","","",""
"null","","","html-keyboard-response","270","576379","0.0-270.0","smd3gjzv","","<span style=""color:Black; font-size:50px;"">Agent A","null","","","","",""
"null","","","video-keyboard-response","271","579441","0.0-271.0","smd3gjzv","","","null","","Agent A","scrambled","STIM_SET_3/286034.bmp_pp69_L3_V2_veridical_freeview_isoFalsemismatch_713403.bmp_L3_fps90.mp4",""
"null","","","html-keyboard-response","272","580948","0.0-272.0","smd3gjzv","","<span style=""color:Black; font-size:50px;"">Agent B","null","","","","",""
"null","","","video-keyboard-response","273","584015","0.0-273.0","smd3gjzv","","","null","","Agent B","veridical","STIM_SET_1_REAL/713403.bmp_pp80_L3_V1.0_veridical_freeview_isoFalse_fps144.mp4",""
"","","","call-function","274","584015","0.0-274.0","smd3gjzv","","","","","","","",""
"2095.5","{""judgement"":1}","[0]","survey-likert","275","586112","0.0-275.0","smd3gjzv","","","","","","","","1"
"1539.1450000000186","{""confidence"":1}","[0]","survey-likert","276","587652","0.0-276.0","smd3gjzv","","","","","","","",""
"","","","call-function","277","587654","0.0-277.0","smd3gjzv","","","","","","","",""
"null","","","html-keyboard-response","278","589155","0.0-278.0","smd3gjzv","","<span style=""color:Black; font-size:50px;"">Agent A","null","","","","",""
"null","","","video-keyboard-response","279","592274","0.0-279.0","smd3gjzv","","","null","","Agent A","scrambled","STIM_SET_3/107909.bmp_pp95_L2_V2_veridical_freeview_isoFalsemismatch_1592372.bmp_L1_fps90.mp4",""
"null","","","html-keyboard-response","280","593780","0.0-280.0","smd3gjzv","","<span style=""color:Black; font-size:50px;"">Agent B","null","","","","",""
"null","","","video-keyboard-response","281","596890","0.0-281.0","smd3gjzv","","","null","","Agent B","veridical","STIM_SET_1_REAL/1592372.bmp_pp76_L1_V1.0_veridical_freeview_isoFalse_fps144.mp4",""
"","","","call-function","282","596890","0.0-282.0","smd3gjzv","","","","","","","",""
"1830.170000000042","{""judgement"":0}","[0]","survey-likert","283","598722","0.0-283.0","smd3gjzv","","","","","","","","1"
"1550.8499999999767","{""confidence"":2}","[0]","survey-likert","284","600275","0.0-284.0","smd3gjzv","","","","","","","",""
"","","","call-function","285","600275","0.0-285.0","smd3gjzv","","","","","","","",""
"null","","","html-keyboard-response","286","601777","0.0-286.0","smd3gjzv","","<span style=""color:Black; font-size:50px;"">Agent A","null","","","","",""
"null","","","video-keyboard-response","287","604880","0.0-287.0","smd3gjzv","","","null","","Agent A","veridical","STIM_SET_1_REAL/713684.bmp_pp85_L3_V1.0_veridical_freeview_isoFalse_fps144.mp4",""
"null","","","html-keyboard-response","288","606381","0.0-288.0","smd3gjzv","","<span style=""color:Black; font-size:50px;"">Agent B","null","","","","",""
"null","","","video-keyboard-response","289","609486","0.0-289.0","smd3gjzv","","","null","","Agent B","scrambled","STIM_SET_3/713920.bmp_pp76_L1_V2_veridical_freeview_isoFalsemismatch_713684.bmp_L3_fps90.mp4",""
"","","","call-function","290","609487","0.0-290.0","smd3gjzv","","","","","","","",""
"2316.125","{""judgement"":0}","[0]","survey-likert","291","611804","0.0-291.0","smd3gjzv","","","","","","","","0"
"1086.6750000000466","{""confidence"":0}","[0]","survey-likert","292","612891","0.0-292.0","smd3gjzv","","","","","","","",""
"","","","call-function","293","612892","0.0-293.0","smd3gjzv","","","","","","","",""
"null","","","html-keyboard-response","294","614394","0.0-294.0","smd3gjzv","","<span style=""color:Black; font-size:50px;"">Agent A","null","","","","",""
"null","","","video-keyboard-response","295","617495","0.0-295.0","smd3gjzv","","","null","","Agent A","scrambled","STIM_SET_3/1592350.bmp_pp55_L3_V2_veridical_freeview_isoFalsemismatch_498111.bmp_L2_fps90.mp4",""
"null","","","html-keyboard-response","296","618998","0.0-296.0","smd3gjzv","","<span style=""color:Black; font-size:50px;"">Agent B","null","","","","",""
"null","","","video-keyboard-response","297","622100","0.0-297.0","smd3gjzv","","","null","","Agent B","veridical","STIM_SET_1_REAL/498111.bmp_pp88_L2_V1.0_veridical_freeview_isoFalse_fps144.mp4",""
"","","","call-function","298","622101","0.0-298.0","smd3gjzv","","","","","","","",""
"1489.780000000028","{""judgement"":0}","[0]","survey-likert","299","623592","0.0-299.0","smd3gjzv","","","","","","","","1"
"1067.75","{""confidence"":1}","[0]","survey-likert","300","624662","0.0-300.0","smd3gjzv","","","","","","","",""
"","","","call-function","301","624663","0.0-301.0","smd3gjzv","","","","","","","",""
"null","","","html-keyboard-response","302","626166","0.0-302.0","smd3gjzv","","<span style=""color:Black; font-size:50px;"">Agent A","null","","","","",""
"null","","","video-keyboard-response","303","629250","0.0-303.0","smd3gjzv","","","null","","Agent A","scrambled","STIM_SET_3/1159325.bmp_pp67_L2_V2_veridical_freeview_isoFalsemismatch_1593035.bmp_L2_fps90.mp4",""
"null","","","html-keyboard-response","304","630753","0.0-304.0","smd3gjzv","","<span style=""color:Black; font-size:50px;"">Agent B","null","","","","",""
"null","","","video-keyboard-response","305","633816","0.0-305.0","smd3gjzv","","","null","","Agent B","veridical","STIM_SET_1_REAL/1593035.bmp_pp94_L2_V1.0_veridical_freeview_isoFalse_fps144.mp4",""
"","","","call-function","306","633816","0.0-306.0","smd3gjzv","","","","","","","",""
"2312.2550000000047","{""judgement"":1}","[0]","survey-likert","307","636130","0.0-307.0","smd3gjzv","","","","","","","","1"
"1492.0550000000512","{""confidence"":1}","[0]","survey-likert","308","637623","0.0-308.0","smd3gjzv","","","","","","","",""
"","","","call-function","309","637624","0.0-309.0","smd3gjzv","","","","","","","",""
"null","","","html-keyboard-response","310","639126","0.0-310.0","smd3gjzv","","<span style=""color:Black; font-size:50px;"">Agent A","null","","","","",""
"null","","","video-keyboard-response","311","642221","0.0-311.0","smd3gjzv","","","null","","Agent A","scrambled","STIM_SET_3/285946.bmp_pp79_L2_V2_veridical_freeview_isoFalsemismatch_285751.bmp_L3_fps90.mp4",""
"null","","","html-keyboard-response","312","643722","0.0-312.0","smd3gjzv","","<span style=""color:Black; font-size:50px;"">Agent B","null","","","","",""
"null","","","video-keyboard-response","313","646805","0.0-313.0","smd3gjzv","","","null","","Agent B","veridical","STIM_SET_1_REAL/285751.bmp_pp55_L3_V1.0_veridical_freeview_isoFalse_fps144.mp4",""
"","","","call-function","314","646805","0.0-314.0","smd3gjzv","","","","","","","",""
"1974.9899999999907","{""judgement"":1}","[0]","survey-likert","315","648781","0.0-315.0","smd3gjzv","","","","","","","","1"
"3659.6600000000326","{""confidence"":3}","[0]","survey-likert","316","652442","0.0-316.0","smd3gjzv","","","","","","","",""
"","","","call-function","317","652442","0.0-317.0","smd3gjzv","","","","","","","",""
"null","","","html-keyboard-response","318","653944","0.0-318.0","smd3gjzv","","<span style=""color:Black; font-size:50px;"">Agent A","null","","","","",""
"null","","","video-keyboard-response","319","657051","0.0-319.0","smd3gjzv","","","null","","Agent A","veridical","STIM_SET_1_REAL/712977.bmp_pp51_L1_V1.0_veridical_freeview_isoFalse_fps144.mp4",""
"null","","","html-keyboard-response","320","658556","0.0-320.0","smd3gjzv","","<span style=""color:Black; font-size:50px;"">Agent B","null","","","","",""
"null","","","video-keyboard-response","321","661666","0.0-321.0","smd3gjzv","","","null","","Agent B","scrambled","STIM_SET_3/1592951.bmp_pp80_L3_V2_veridical_freeview_isoFalsemismatch_712977.bmp_L1_fps90.mp4",""
"","","","call-function","322","661668","0.0-322.0","smd3gjzv","","","","","","","",""
"1887.4199999999255","{""judgement"":1}","[0]","survey-likert","323","663556","0.0-323.0","smd3gjzv","","","","","","","","0"
"1809.6750000000466","{""confidence"":3}","[0]","survey-likert","324","665367","0.0-324.0","smd3gjzv","","","","","","","",""
"","","","call-function","325","665368","0.0-325.0","smd3gjzv","","","","","","","",""
"null","","","html-keyboard-response","326","666869","0.0-326.0","smd3gjzv","","<span style=""color:Black; font-size:50px;"">Agent A","null","","","","",""
"null","","","video-keyboard-response","327","669972","0.0-327.0","smd3gjzv","","","null","","Agent A","scrambled","STIM_SET_3/1592857.bmp_pp52_L1_V2_veridical_freeview_isoFalsemismatch_1160168.bmp_L2_fps90.mp4",""
"null","","","html-keyboard-response","328","671478","0.0-328.0","smd3gjzv","","<span style=""color:Black; font-size:50px;"">Agent B","null","","","","",""
"null","","","video-keyboard-response","329","674585","0.0-329.0","smd3gjzv","","","null","","Agent B","veridical","STIM_SET_1_REAL/1160168.bmp_pp53_L2_V1.0_veridical_freeview_isoFalse_fps144.mp4",""
"","","","call-function","330","674586","0.0-330.0","smd3gjzv","","","","","","","",""
"3840.2200000000885","{""judgement"":0}","[0]","survey-likert","331","678428","0.0-331.0","smd3gjzv","","","","","","","","1"
"1506.3399999999674","{""confidence"":2}","[0]","survey-likert","332","679937","0.0-332.0","smd3gjzv","","","","","","","",""
"2434.384999999893","","","instructions","333","682372","0.0-333.0","smd3gjzv","[{""page_index"":0,""viewing_time"":1836.5049999998882},{""page_index"":1,""viewing_time"":399.9650000000838},{""page_index"":2,""viewing_time"":197.23499999998603}]","","","","","","",""
"926.4899999999907","","","instructions","334","683299","0.0-334.0","smd3gjzv","[{""page_index"":0,""viewing_time"":192.8049999999348},{""page_index"":1,""viewing_time"":288.42500000004657},{""page_index"":2,""viewing_time"":445.1549999999115}]","","","","","","",""
"","","","call-function","335","683300","0.0-335.0","smd3gjzv","","","","","","","",""
"null","","","html-keyboard-response","336","684804","0.0-336.0","smd3gjzv","","<span style=""color:Black; font-size:50px;"">Agent A","null","","","","",""
"null","","","video-keyboard-response","337","687884","0.0-337.0","smd3gjzv","","","null","","Agent A","scrambled","STIM_SET_3/1159860.bmp_pp152_L2_V2_veridical_freeview_isoFalsemismatch_1159621.bmp_L3_fps90.mp4",""
"null","","","html-keyboard-response","338","689387","0.0-338.0","smd3gjzv","","<span style=""color:Black; font-size:50px;"">Agent B","null","","","","",""
"null","","","video-keyboard-response","339","692449","0.0-339.0","smd3gjzv","","","null","","Agent B","veridical","STIM_SET_1_REAL/1159621.bmp_pp92_L3_V1.0_veridical_freeview_isoFalse_fps144.mp4",""
"","","","call-function","340","692450","0.0-340.0","smd3gjzv","","","","","","","",""
"4244.614999999991","{""judgement"":1}","[0]","survey-likert","341","696696","0.0-341.0","smd3gjzv","","","","","","","","1"
"2494.875","{""confidence"":0}","[0]","survey-likert","342","699192","0.0-342.0","smd3gjzv","","","","","","","",""
"","","","call-function","343","699193","0.0-343.0","smd3gjzv","","","","","","","",""
"null","","","html-keyboard-response","344","700698","0.0-344.0","smd3gjzv","","<span style=""color:Black; font-size:50px;"">Agent A","null","","","","",""
"null","","","video-keyboard-response","345","703775","0.0-345.0","smd3gjzv","","","null","","Agent A","veridical","STIM_SET_1_REAL/61537.bmp_pp73_L3_V1.0_veridical_freeview_isoFalse_fps144.mp4",""
"null","","","html-keyboard-response","346","705281","0.0-346.0","smd3gjzv","","<span style=""color:Black; font-size:50px;"">Agent B","null","","","","",""
"null","","","video-keyboard-response","347","708371","0.0-347.0","smd3gjzv","","","null","","Agent B","scrambled","STIM_SET_3/713770.bmp_pp89_L1_V2_veridical_freeview_isoFalsemismatch_61537.bmp_L3_fps90.mp4",""
"","","","call-function","348","708372","0.0-348.0","smd3gjzv","","","","","","","",""
"3106.5","{""judgement"":1}","[0]","survey-likert","349","711479","0.0-349.0","smd3gjzv","","","","","","","","0"
"1497.3050000000512","{""confidence"":2}","[0]","survey-likert","350","712978","0.0-350.0","smd3gjzv","","","","","","","",""
"","","","call-function","351","712978","0.0-351.0","smd3gjzv","","","","","","","",""
"null","","","html-keyboard-response","352","714483","0.0-352.0","smd3gjzv","","<span style=""color:Black; font-size:50px;"">Agent A","null","","","","",""
"null","","","video-keyboard-response","353","717575","0.0-353.0","smd3gjzv","","","null","","Agent A","veridical","STIM_SET_1_REAL/1592890.bmp_pp82_L2_V1.0_veridical_freeview_isoFalse_fps144.mp4",""
"null","","","html-keyboard-response","354","719077","0.0-354.0","smd3gjzv","","<span style=""color:Black; font-size:50px;"">Agent B","null","","","","",""
"null","","","video-keyboard-response","355","722189","0.0-355.0","smd3gjzv","","","null","","Agent B","scrambled","STIM_SET_3/1592168.bmp_pp71_L1_V2_veridical_freeview_isoFalsemismatch_1592890.bmp_L2_fps90.mp4",""
"","","","call-function","356","722190","0.0-356.0","smd3gjzv","","","","","","","",""
"2178.0849999999627","{""judgement"":0}","[0]","survey-likert","357","724369","0.0-357.0","smd3gjzv","","","","","","","","0"
"2318.1600000000326","{""confidence"":1}","[0]","survey-likert","358","726688","0.0-358.0","smd3gjzv","","","","","","","",""
"","","","call-function","359","726688","0.0-359.0","smd3gjzv","","","","","","","",""
"null","","","html-keyboard-response","360","728195","0.0-360.0","smd3gjzv","","<span style=""color:Black; font-size:50px;"">Agent A","null","","","","",""
"null","","","video-keyboard-response","361","731284","0.0-361.0","smd3gjzv","","","null","","Agent A","veridical","STIM_SET_1_REAL/498170.bmp_pp153_L3_V1.0_veridical_freeview_isoFalse_fps144.mp4",""
"null","","","html-keyboard-response","362","732787","0.0-362.0","smd3gjzv","","<span style=""color:Black; font-size:50px;"">Agent B","null","","","","",""
"null","","","video-keyboard-response","363","735907","0.0-363.0","smd3gjzv","","","null","","Agent B","scrambled","STIM_SET_3/713742.bmp_pp91_L3_V2_veridical_freeview_isoFalsemismatch_498170.bmp_L3_fps90.mp4",""
"","","","call-function","364","735907","0.0-364.0","smd3gjzv","","","","","","","",""
"1874.609999999986","{""judgement"":0}","[0]","survey-likert","365","737783","0.0-365.0","smd3gjzv","","","","","","","","0"
"1231.9149999999208","{""confidence"":1}","[0]","survey-likert","366","739016","0.0-366.0","smd3gjzv","","","","","","","",""
"","","","call-function","367","739017","0.0-367.0","smd3gjzv","","","","","","","",""
"null","","","html-keyboard-response","368","740519","0.0-368.0","smd3gjzv","","<span style=""color:Black; font-size:50px;"">Agent A","null","","","","",""
"null","","","video-keyboard-response","369","743620","0.0-369.0","smd3gjzv","","","null","","Agent A","veridical","STIM_SET_1_REAL/285933.bmp_pp81_L1_V1.0_veridical_freeview_isoFalse_fps144.mp4",""
"null","","","html-keyboard-response","370","745125","0.0-370.0","smd3gjzv","","<span style=""color:Black; font-size:50px;"">Agent B","null","","","","",""
"null","","","video-keyboard-response","371","748225","0.0-371.0","smd3gjzv","","","null","","Agent B","scrambled","STIM_SET_3/1159973.bmp_pp98_L1_V2_veridical_freeview_isoFalsemismatch_285933.bmp_L1_fps90.mp4",""
"","","","call-function","372","748225","0.0-372.0","smd3gjzv","","","","","","","",""
"1702.8999999999069","{""judgement"":0}","[0]","survey-likert","373","749929","0.0-373.0","smd3gjzv","","","","","","","","0"
"1725.0350000000326","{""confidence"":3}","[0]","survey-likert","374","751657","0.0-374.0","smd3gjzv","","","","","","","",""
"","","","call-function","375","751658","0.0-375.0","smd3gjzv","","","","","","","",""
"null","","","html-keyboard-response","376","753164","0.0-376.0","smd3gjzv","","<span style=""color:Black; font-size:50px;"">Agent A","null","","","","",""
"null","","","video-keyboard-response","377","756232","0.0-377.0","smd3gjzv","","","null","","Agent A","scrambled","STIM_SET_3/1592201.bmp_pp97_L3_V2_veridical_freeview_isoFalsemismatch_713089.bmp_L3_fps90.mp4",""
"null","","","html-keyboard-response","378","757734","0.0-378.0","smd3gjzv","","<span style=""color:Black; font-size:50px;"">Agent B","null","","","","",""
"null","","","video-keyboard-response","379","760797","0.0-379.0","smd3gjzv","","","null","","Agent B","veridical","STIM_SET_1_REAL/713089.bmp_pp60_L3_V1.0_veridical_freeview_isoFalse_fps144.mp4",""
"","","","call-function","380","760798","0.0-380.0","smd3gjzv","","","","","","","",""
"1974.2900000000373","{""judgement"":0}","[0]","survey-likert","381","762773","0.0-381.0","smd3gjzv","","","","","","","","1"
"1612.515000000014","{""confidence"":1}","[0]","survey-likert","382","764387","0.0-382.0","smd3gjzv","","","","","","","",""
"","","","call-function","383","764388","0.0-383.0","smd3gjzv","","","","","","","",""
"null","","","html-keyboard-response","384","765892","0.0-384.0","smd3gjzv","","<span style=""color:Black; font-size:50px;"">Agent A","null","","","","",""
"null","","","video-keyboard-response","385","768977","0.0-385.0","smd3gjzv","","","null","","Agent A","scrambled","STIM_SET_3/150463.bmp_pp55_L3_V2_veridical_freeview_isoFalsemismatch_1592619.bmp_L3_fps90.mp4",""
"null","","","html-keyboard-response","386","770479","0.0-386.0","smd3gjzv","","<span style=""color:Black; font-size:50px;"">Agent B","null","","","","",""
"null","","","video-keyboard-response","387","773542","0.0-387.0","smd3gjzv","","","null","","Agent B","veridical","STIM_SET_1_REAL/1592619.bmp_pp56_L3_V1.0_veridical_freeview_isoFalse_fps144.mp4",""
"","","","call-function","388","773542","0.0-388.0","smd3gjzv","","","","","","","",""
"3292.2550000000047","{""judgement"":1}","[0]","survey-likert","389","776836","0.0-389.0","smd3gjzv","","","","","","","","1"
"2289.1199999999953","{""confidence"":2}","[0]","survey-likert","390","779126","0.0-390.0","smd3gjzv","","","","","","","",""
"","","","call-function","391","779127","0.0-391.0","smd3gjzv","","","","","","","",""
"null","","","html-keyboard-response","392","780632","0.0-392.0","smd3gjzv","","<span style=""color:Black; font-size:50px;"">Agent A","null","","","","",""
"null","","","video-keyboard-response","393","783725","0.0-393.0","smd3gjzv","","","null","","Agent A","veridical","STIM_SET_1_REAL/1592351.bmp_pp51_L1_V1.0_veridical_freeview_isoFalse_fps144.mp4",""
"null","","","html-keyboard-response","394","785230","0.0-394.0","smd3gjzv","","<span style=""color:Black; font-size:50px;"">Agent B","null","","","","",""
"null","","","video-keyboard-response","395","788437","0.0-395.0","smd3gjzv","","","null","","Agent B","scrambled","STIM_SET_3/1592025.bmp_pp68_L1_V2_veridical_freeview_isoFalsemismatch_1592351.bmp_L1_fps90.mp4",""
"","","","call-function","396","788438","0.0-396.0","smd3gjzv","","","","","","","",""
"2170.420000000042","{""judgement"":0}","[0]","survey-likert","397","790609","0.0-397.0","smd3gjzv","","","","","","","","0"
"3626.579999999958","{""confidence"":2}","[0]","survey-likert","398","794237","0.0-398.0","smd3gjzv","","","","","","","",""
"","","","call-function","399","794238","0.0-399.0","smd3gjzv","","","","","","","",""
"null","","","html-keyboard-response","400","795741","0.0-400.0","smd3gjzv","","<span style=""color:Black; font-size:50px;"">Agent A","null","","","","",""
"null","","","video-keyboard-response","401","798841","0.0-401.0","smd3gjzv","","","null","","Agent A","veridical","STIM_SET_1_REAL/1159777.bmp_pp77_L3_V1.0_veridical_freeview_isoFalse_fps144.mp4",""
"null","","","html-keyboard-response","402","800347","0.0-402.0","smd3gjzv","","<span style=""color:Black; font-size:50px;"">Agent B","null","","","","",""
"null","","","video-keyboard-response","403","803437","0.0-403.0","smd3gjzv","","","null","","Agent B","scrambled","STIM_SET_3/1592017.bmp_pp154_L1_V2_veridical_freeview_isoFalsemismatch_1159777.bmp_L3_fps90.mp4",""
"","","","call-function","404","803437","0.0-404.0","smd3gjzv","","","","","","","",""
"1893.1500000000233","{""judgement"":0}","[0]","survey-likert","405","805331","0.0-405.0","smd3gjzv","","","","","","","","0"
"2659.0100000000093","{""confidence"":1}","[0]","survey-likert","406","807992","0.0-406.0","smd3gjzv","","","","","","","",""
"","","","call-function","407","807993","0.0-407.0","smd3gjzv","","","","","","","",""
"null","","","html-keyboard-response","408","809495","0.0-408.0","smd3gjzv","","<span style=""color:Black; font-size:50px;"">Agent A","null","","","","",""
"null","","","video-keyboard-response","409","812594","0.0-409.0","smd3gjzv","","","null","","Agent A","veridical","STIM_SET_1_REAL/1159784.bmp_pp73_L3_V1.0_veridical_freeview_isoFalse_fps144.mp4",""
"null","","","html-keyboard-response","410","814095","0.0-410.0","smd3gjzv","","<span style=""color:Black; font-size:50px;"">Agent B","null","","","","",""
"null","","","video-keyboard-response","411","817205","0.0-411.0","smd3gjzv","","","null","","Agent B","scrambled","STIM_SET_3/61513.bmp_pp75_L1_V2_veridical_freeview_isoFalsemismatch_1159784.bmp_L3_fps90.mp4",""
"","","","call-function","412","817206","0.0-412.0","smd3gjzv","","","","","","","",""
"2594.170000000042","{""judgement"":0}","[0]","survey-likert","413","819802","0.0-413.0","smd3gjzv","","","","","","","","0"
"2481.9649999999674","{""confidence"":0}","[0]","survey-likert","414","822285","0.0-414.0","smd3gjzv","","","","","","","",""
"6399.030000000028","","","instructions","415","828685","0.0-415.0","smd3gjzv","[{""page_index"":0,""viewing_time"":5994.435000000056},{""page_index"":1,""viewing_time"":196.24499999999534},{""page_index"":2,""viewing_time"":208.1700000000419}]","","","","","","",""
"674.0050000000047","","","instructions","416","829360","0.0-416.0","smd3gjzv","[{""page_index"":0,""viewing_time"":168.0799999999581},{""page_index"":1,""viewing_time"":204.98500000010245},{""page_index"":2,""viewing_time"":300.8149999999441}]","","","","","","",""
"","","","call-function","417","829362","0.0-417.0","smd3gjzv","","","","","","","",""
"null","","","html-keyboard-response","418","830867","0.0-418.0","smd3gjzv","","<span style=""color:Black; font-size:50px;"">Agent A","null","","","","",""
"null","","","video-keyboard-response","419","833948","0.0-419.0","smd3gjzv","","","null","","Agent A","veridical","STIM_SET_1_REAL/498175.bmp_pp154_L1_V1.0_veridical_freeview_isoFalse_fps144.mp4",""
"null","","","html-keyboard-response","420","835451","0.0-420.0","smd3gjzv","","<span style=""color:Black; font-size:50px;"">Agent B","null","","","","",""
"null","","","video-keyboard-response","421","838517","0.0-421.0","smd3gjzv","","","null","","Agent B","scrambled","STIM_SET_3/713689.bmp_pp153_L3_V2_veridical_freeview_isoFalsemismatch_498175.bmp_L1_fps90.mp4",""
"","","","call-function","422","838518","0.0-422.0","smd3gjzv","","","","","","","",""
"3660.960000000079","{""judgement"":1}","[0]","survey-likert","423","842180","0.0-423.0","smd3gjzv","","","","","","","","0"
"1616.0650000000605","{""confidence"":0}","[0]","survey-likert","424","843798","0.0-424.0","smd3gjzv","","","","","","","",""
"","","","call-function","425","843798","0.0-425.0","smd3gjzv","","","","","","","",""
"null","","","html-keyboard-response","426","845300","0.0-426.0","smd3gjzv","","<span style=""color:Black; font-size:50px;"">Agent A","null","","","","",""
"null","","","video-keyboard-response","427","848378","0.0-427.0","smd3gjzv","","","null","","Agent A","scrambled","STIM_SET_3/1592567.bmp_pp70_L2_V2_veridical_freeview_isoFalsemismatch_713135.bmp_L2_fps90.mp4",""
"null","","","html-keyboard-response","428","849885","0.0-428.0","smd3gjzv","","<span style=""color:Black; font-size:50px;"">Agent B","null","","","","",""
"null","","","video-keyboard-response","429","852956","0.0-429.0","smd3gjzv","","","null","","Agent B","veridical","STIM_SET_1_REAL/713135.bmp_pp54_L2_V1.0_veridical_freeview_isoFalse_fps144.mp4",""
"","","","call-function","430","852956","0.0-430.0","smd3gjzv","","","","","","","",""
"2733.4949999999953","{""judgement"":0}","[0]","survey-likert","431","855691","0.0-431.0","smd3gjzv","","","","","","","","1"
"2787.640000000014","{""confidence"":3}","[0]","survey-likert","432","858480","0.0-432.0","smd3gjzv","","","","","","","",""
"","","","call-function","433","858480","0.0-433.0","smd3gjzv","","","","","","","",""
"null","","","html-keyboard-response","434","859982","0.0-434.0","smd3gjzv","","<span style=""color:Black; font-size:50px;"">Agent A","null","","","","",""
"null","","","video-keyboard-response","435","863104","0.0-435.0","smd3gjzv","","","null","","Agent A","scrambled","STIM_SET_3/1160049.bmp_pp53_L2_V2_veridical_freeview_isoFalsemismatch_1591954.bmp_L2_fps90.mp4",""
"null","","","html-keyboard-response","436","864607","0.0-436.0","smd3gjzv","","<span style=""color:Black; font-size:50px;"">Agent B","null","","","","",""
"null","","","video-keyboard-response","437","867723","0.0-437.0","smd3gjzv","","","null","","Agent B","veridical","STIM_SET_1_REAL/1591954.bmp_pp62_L2_V1.0_veridical_freeview_isoFalse_fps144.mp4",""
"","","","call-function","438","867724","0.0-438.0","smd3gjzv","","","","","","","",""
"3097.649999999907","{""judgement"":1}","[0]","survey-likert","439","870823","0.0-439.0","smd3gjzv","","","","","","","","1"
"2330.5899999999674","{""confidence"":1}","[0]","survey-likert","440","873154","0.0-440.0","smd3gjzv","","","","","","","",""
"","","","call-function","441","873155","0.0-441.0","smd3gjzv","","","","","","","",""
"null","","","html-keyboard-response","442","874661","0.0-442.0","smd3gjzv","","<span style=""color:Black; font-size:50px;"">Agent A","null","","","","",""
"null","","","video-keyboard-response","443","877770","0.0-443.0","smd3gjzv","","","null","","Agent A","veridical","STIM_SET_1_REAL/1159855.bmp_pp99_L2_V1.0_veridical_freeview_isoFalse_fps144.mp4",""
"null","","","html-keyboard-response","444","879276","0.0-444.0","smd3gjzv","","<span style=""color:Black; font-size:50px;"">Agent B","null","","","","",""
"null","","","video-keyboard-response","445","882384","0.0-445.0","smd3gjzv","","","null","","Agent B","scrambled","STIM_SET_3/285932.bmp_pp64_L1_V2_veridical_freeview_isoFalsemismatch_1159855.bmp_L2_fps90.mp4",""
"","","","call-function","446","882384","0.0-446.0","smd3gjzv","","","","","","","",""
"2099.70000000007","{""judgement"":0}","[0]","survey-likert","447","884485","0.0-447.0","smd3gjzv","","","","","","","","0"
"1157.8350000000792","{""confidence"":2}","[0]","survey-likert","448","885644","0.0-448.0","smd3gjzv","","","","","","","",""
"","","","call-function","449","885645","0.0-449.0","smd3gjzv","","","","","","","",""
"null","","","html-keyboard-response","450","887147","0.0-450.0","smd3gjzv","","<span style=""color:Black; font-size:50px;"">Agent A","null","","","","",""
"null","","","video-keyboard-response","451","890259","0.0-451.0","smd3gjzv","","","null","","Agent A","scrambled","STIM_SET_3/713829.bmp_pp60_L3_V2_veridical_freeview_isoFalsemismatch_1159440.bmp_L1_fps90.mp4",""
"null","","","html-keyboard-response","452","891765","0.0-452.0","smd3gjzv","","<span style=""color:Black; font-size:50px;"">Agent B","null","","","","",""
"null","","","video-keyboard-response","453","894834","0.0-453.0","smd3gjzv","","","null","","Agent B","veridical","STIM_SET_1_REAL/1159440.bmp_pp98_L1_V1.0_veridical_freeview_isoFalse_fps144.mp4",""
"","","","call-function","454","894835","0.0-454.0","smd3gjzv","","","","","","","",""
"2036.4600000000792","{""judgement"":1}","[0]","survey-likert","455","896873","0.0-455.0","smd3gjzv","","","","","","","","1"
"1255.8199999999488","{""confidence"":1}","[0]","survey-likert","456","898130","0.0-456.0","smd3gjzv","","","","","","","",""
"","","","call-function","457","898131","0.0-457.0","smd3gjzv","","","","","","","",""
"null","","","html-keyboard-response","458","899632","0.0-458.0","smd3gjzv","","<span style=""color:Black; font-size:50px;"">Agent A","null","","","","",""
"null","","","video-keyboard-response","459","902700","0.0-459.0","smd3gjzv","","","null","","Agent A","veridical","STIM_SET_1_REAL/713017.bmp_pp152_L2_V1.0_veridical_freeview_isoFalse_fps144.mp4",""
"null","","","html-keyboard-response","460","904203","0.0-460.0","smd3gjzv","","<span style=""color:Black; font-size:50px;"">Agent B","null","","","","",""
"null","","","video-keyboard-response","461","907264","0.0-461.0","smd3gjzv","","","null","","Agent B","scrambled","STIM_SET_3/1591975.bmp_pp88_L2_V2_veridical_freeview_isoFalsemismatch_713017.bmp_L2_fps90.mp4",""
"","","","call-function","462","907265","0.0-462.0","smd3gjzv","","","","","","","",""
"1895.5600000000559","{""judgement"":1}","[0]","survey-likert","463","909162","0.0-463.0","smd3gjzv","","","","","","","","0"
"2321.1999999999534","{""confidence"":3}","[0]","survey-likert","464","911484","0.0-464.0","smd3gjzv","","","","","","","",""
"","","","call-function","465","911485","0.0-465.0","smd3gjzv","","","","","","","",""
"null","","","html-keyboard-response","466","912992","0.0-466.0","smd3gjzv","","<span style=""color:Black; font-size:50px;"">Agent A","null","","","","",""
"null","","","video-keyboard-response","467","916067","0.0-467.0","smd3gjzv","","","null","","Agent A","veridical","STIM_SET_1_REAL/1591994.bmp_pp69_L3_V1.0_veridical_freeview_isoFalse_fps144.mp4",""
"null","","","html-keyboard-response","468","917569","0.0-468.0","smd3gjzv","","<span style=""color:Black; font-size:50px;"">Agent B","null","","","","",""
"null","","","video-keyboard-response","469","920684","0.0-469.0","smd3gjzv","","","null","","Agent B","scrambled","STIM_SET_3/713328.bmp_pp86_L2_V2_veridical_freeview_isoFalsemismatch_1591994.bmp_L3_fps90.mp4",""
"","","","call-function","470","920684","0.0-470.0","smd3gjzv","","","","","","","",""
"4887.820000000065","{""judgement"":0}","[0]","survey-likert","471","925573","0.0-471.0","smd3gjzv","","","","","","","","0"
"2378.390000000014","{""confidence"":1}","[0]","survey-likert","472","927953","0.0-472.0","smd3gjzv","","","","","","","",""
"","","","call-function","473","927953","0.0-473.0","smd3gjzv","","","","","","","",""
"null","","","html-keyboard-response","474","929457","0.0-474.0","smd3gjzv","","<span style=""color:Black; font-size:50px;"">Agent A","null","","","","",""
"null","","","video-keyboard-response","475","932562","0.0-475.0","smd3gjzv","","","null","","Agent A","scrambled","STIM_SET_3/1591781.bmp_pp63_L1_V2_veridical_freeview_isoFalsemismatch_1593041.bmp_L1_fps90.mp4",""
"null","","","html-keyboard-response","476","934064","0.0-476.0","smd3gjzv","","<span style=""color:Black; font-size:50px;"">Agent B","null","","","","",""
"null","","","video-keyboard-response","477","937180","0.0-477.0","smd3gjzv","","","null","","Agent B","veridical","STIM_SET_1_REAL/1593041.bmp_pp58_L1_V1.0_veridical_freeview_isoFalse_fps144.mp4",""
"","","","call-function","478","937181","0.0-478.0","smd3gjzv","","","","","","","",""
"2544.4649999999674","{""judgement"":0}","[0]","survey-likert","479","939727","0.0-479.0","smd3gjzv","","","","","","","","1"
"1460.5050000000047","{""confidence"":2}","[0]","survey-likert","480","941189","0.0-480.0","smd3gjzv","","","","","","","",""
"","","","call-function","481","941189","0.0-481.0","smd3gjzv","","","","","","","",""
"null","","","html-keyboard-response","482","942692","0.0-482.0","smd3gjzv","","<span style=""color:Black; font-size:50px;"">Agent A","null","","","","",""
"null","","","video-keyboard-response","483","945784","0.0-483.0","smd3gjzv","","","null","","Agent A","scrambled","STIM_SET_3/713790.bmp_pp100_L3_V2_veridical_freeview_isoFalsemismatch_1592397.bmp_L3_fps90.mp4",""
"null","","","html-keyboard-response","484","947285","0.0-484.0","smd3gjzv","","<span style=""color:Black; font-size:50px;"">Agent B","null","","","","",""
"null","","","video-keyboard-response","485","950358","0.0-485.0","smd3gjzv","","","null","","Agent B","veridical","STIM_SET_1_REAL/1592397.bmp_pp85_L3_V1.0_veridical_freeview_isoFalse_fps144.mp4",""
"","","","call-function","486","950359","0.0-486.0","smd3gjzv","","","","","","","",""
"2516.060000000056","{""judgement"":0}","[0]","survey-likert","487","952876","0.0-487.0","smd3gjzv","","","","","","","","1"
"1291.3850000000093","{""confidence"":1}","[0]","survey-likert","488","954169","0.0-488.0","smd3gjzv","","","","","","","",""
"","","","call-function","489","954169","0.0-489.0","smd3gjzv","","","","","","","",""
"null","","","html-keyboard-response","490","955670","0.0-490.0","smd3gjzv","","<span style=""color:Black; font-size:50px;"">Agent A","null","","","","",""
"null","","","video-keyboard-response","491","958734","0.0-491.0","smd3gjzv","","","null","","Agent A","veridical","STIM_SET_1_REAL/713681.bmp_pp86_L2_V1.0_veridical_freeview_isoFalse_fps144.mp4",""
"null","","","html-keyboard-response","492","960238","0.0-492.0","smd3gjzv","","<span style=""color:Black; font-size:50px;"">Agent B","null","","","","",""
"null","","","video-keyboard-response","493","963324","0.0-493.0","smd3gjzv","","","null","","Agent B","scrambled","STIM_SET_3/498025.bmp_pp81_L1_V2_veridical_freeview_isoFalsemismatch_713681.bmp_L2_fps90.mp4",""
"","","","call-function","494","963326","0.0-494.0","smd3gjzv","","","","","","","",""
"1956.109999999986","{""judgement"":1}","[0]","survey-likert","495","965282","0.0-495.0","smd3gjzv","","","","","","","","0"
"1715.6350000000093","{""confidence"":3}","[0]","survey-likert","496","966999","0.0-496.0","smd3gjzv","","","","","","","",""
"1452.219999999972","","","instructions","497","968452","0.0-497.0","smd3gjzv","[{""page_index"":0,""viewing_time"":1023.0699999999488},{""page_index"":1,""viewing_time"":278.4200000000419},{""page_index"":2,""viewing_time"":150.44499999994878}]","","","","","","",""
"944.75","","","instructions","498","969398","0.0-498.0","smd3gjzv","[{""page_index"":0,""viewing_time"":144.01500000001397},{""page_index"":1,""viewing_time"":349.6600000000326},{""page_index"":2,""viewing_time"":450.9649999999674}]","","","","","","",""
"","","","call-function","499","969398","0.0-499.0","smd3gjzv","","","","","","","",""
"null","","","html-keyboard-response","500","970899","0.0-500.0","smd3gjzv","","<span style=""color:Black; font-size:50px;"">Agent A","null","","","","",""
"null","","","video-keyboard-response","501","974010","0.0-501.0","smd3gjzv","","","null","","Agent A","veridical","STIM_SET_1_REAL/498155.bmp_pp61_L2_V1.0_veridical_freeview_isoFalse_fps144.mp4",""
"null","","","html-keyboard-response","502","975513","0.0-502.0","smd3gjzv","","<span style=""color:Black; font-size:50px;"">Agent B","null","","","","",""
"null","","","video-keyboard-response","503","978610","0.0-503.0","smd3gjzv","","","null","","Agent B","scrambled","STIM_SET_3/498258.bmp_pp51_L1_V2_veridical_freeview_isoFalsemismatch_498155.bmp_L2_fps90.mp4",""
"","","","call-function","504","978610","0.0-504.0","smd3gjzv","","","","","","","",""
"1884.3499999999767","{""judgement"":0}","[0]","survey-likert","505","980496","0.0-505.0","smd3gjzv","","","","","","","","0"
"1087.4299999999348","{""confidence"":3}","[0]","survey-likert","506","981584","0.0-506.0","smd3gjzv","","","","","","","",""
"","","","call-function","507","981585","0.0-507.0","smd3gjzv","","","","","","","",""
"null","","","html-keyboard-response","508","983086","0.0-508.0","smd3gjzv","","<span style=""color:Black; font-size:50px;"">Agent A","null","","","","",""
"null","","","video-keyboard-response","509","986198","0.0-509.0","smd3gjzv","","","null","","Agent A","scrambled","STIM_SET_3/1159508.bmp_pp151_L1_V2_veridical_freeview_isoFalsemismatch_1159675.bmp_L3_fps90.mp4",""
"null","","","html-keyboard-response","510","987703","0.0-510.0","smd3gjzv","","<span style=""color:Black; font-size:50px;"">Agent B","null","","","","",""
"null","","","video-keyboard-response","511","990781","0.0-511.0","smd3gjzv","","","null","","Agent B","veridical","STIM_SET_1_REAL/1159675.bmp_pp77_L3_V1.0_veridical_freeview_isoFalse_fps144.mp4",""
"","","","call-function","512","990782","0.0-512.0","smd3gjzv","","","","","","","",""
"5036.6900000000605","{""judgement"":1}","[0]","survey-likert","513","995820","0.0-513.0","smd3gjzv","","","","","","","","1"
"2066.875","{""confidence"":2}","[0]","survey-likert","514","997888","0.0-514.0","smd3gjzv","","","","","","","",""
"","","","call-function","515","997889","0.0-515.0","smd3gjzv","","","","","","","",""
"null","","","html-keyboard-response","516","999391","0.0-516.0","smd3gjzv","","<span style=""color:Black; font-size:50px;"">Agent A","null","","","","",""
"null","","","video-keyboard-response","517","1002474","0.0-517.0","smd3gjzv","","","null","","Agent A","veridical","STIM_SET_1_REAL/498253.bmp_pp67_L2_V1.0_veridical_freeview_isoFalse_fps144.mp4",""
"null","","","html-keyboard-response","518","1003975","0.0-518.0","smd3gjzv","","<span style=""color:Black; font-size:50px;"">Agent B","null","","","","",""
"null","","","video-keyboard-response","519","1007070","0.0-519.0","smd3gjzv","","","null","","Agent B","scrambled","STIM_SET_3/285959.bmp_pp93_L1_V2_veridical_freeview_isoFalsemismatch_498253.bmp_L2_fps90.mp4",""
"","","","call-function","520","1007071","0.0-520.0","smd3gjzv","","","","","","","",""
"2764.070000000065","{""judgement"":1}","[0]","survey-likert","521","1009836","0.0-521.0","smd3gjzv","","","","","","","","0"
"1782.5749999999534","{""confidence"":2}","[0]","survey-likert","522","1011620","0.0-522.0","smd3gjzv","","","","","","","",""
"","","","call-function","523","1011621","0.0-523.0","smd3gjzv","","","","","","","",""
"null","","","html-keyboard-response","524","1013126","0.0-524.0","smd3gjzv","","<span style=""color:Black; font-size:50px;"">Agent A","null","","","","",""
"null","","","video-keyboard-response","525","1016203","0.0-525.0","smd3gjzv","","","null","","Agent A","veridical","STIM_SET_1_REAL/713760.bmp_pp81_L1_V1.0_veridical_freeview_isoFalse_fps144.mp4",""
"null","","","html-keyboard-response","526","1017710","0.0-526.0","smd3gjzv","","<span style=""color:Black; font-size:50px;"">Agent B","null","","","","",""
"null","","","video-keyboard-response","527","1020814","0.0-527.0","smd3gjzv","","","null","","Agent B","scrambled","STIM_SET_3/285684.bmp_pp80_L3_V2_veridical_freeview_isoFalsemismatch_713760.bmp_L1_fps90.mp4",""
"","","","call-function","528","1020815","0.0-528.0","smd3gjzv","","","","","","","",""
"2048.560000000056","{""judgement"":0}","[0]","survey-likert","529","1022865","0.0-529.0","smd3gjzv","","","","","","","","0"
"2626.9950000001118","{""confidence"":3}","[0]","survey-likert","530","1025493","0.0-530.0","smd3gjzv","","","","","","","",""
"","","","call-function","531","1025493","0.0-531.0","smd3gjzv","","","","","","","",""
"null","","","html-keyboard-response","532","1026995","0.0-532.0","smd3gjzv","","<span style=""color:Black; font-size:50px;"">Agent A","null","","","","",""
"null","","","video-keyboard-response","533","1030098","0.0-533.0","smd3gjzv","","","null","","Agent A","veridical","STIM_SET_1_REAL/1592807.bmp_pp68_L1_V1.0_veridical_freeview_isoFalse_fps144.mp4",""
"null","","","html-keyboard-response","534","1031599","0.0-534.0","smd3gjzv","","<span style=""color:Black; font-size:50px;"">Agent B","null","","","","",""
"null","","","video-keyboard-response","535","1034691","0.0-535.0","smd3gjzv","","","null","","Agent B","scrambled","STIM_SET_3/713652.bmp_pp89_L1_V2_veridical_freeview_isoFalsemismatch_1592807.bmp_L1_fps90.mp4",""
"","","","call-function","536","1034692","0.0-536.0","smd3gjzv","","","","","","","",""
"2619.8800000000047","{""judgement"":0}","[0]","survey-likert","537","1037313","0.0-537.0","smd3gjzv","","","","","","","","0"
"1845.545000000042","{""confidence"":2}","[0]","survey-likert","538","1039160","0.0-538.0","smd3gjzv","","","","","","","",""
"","","","call-function","539","1039161","0.0-539.0","smd3gjzv","","","","","","","",""
"null","","","html-keyboard-response","540","1040664","0.0-540.0","smd3gjzv","","<span style=""color:Black; font-size:50px;"">Agent A","null","","","","",""
"null","","","video-keyboard-response","541","1043785","0.0-541.0","smd3gjzv","","","null","","Agent A","scrambled","STIM_SET_3/1159874.bmp_pp96_L2_V2_veridical_freeview_isoFalsemismatch_1159515.bmp_L3_fps90.mp4",""
"null","","","html-keyboard-response","542","1045292","0.0-542.0","smd3gjzv","","<span style=""color:Black; font-size:50px;"">Agent B","null","","","","",""
"null","","","video-keyboard-response","543","1048388","0.0-543.0","smd3gjzv","","","null","","Agent B","veridical","STIM_SET_1_REAL/1159515.bmp_pp84_L3_V1.0_veridical_freeview_isoFalse_fps144.mp4",""
"","","","call-function","544","1048389","0.0-544.0","smd3gjzv","","","","","","","",""
"2589.5350000000326","{""judgement"":1}","[0]","survey-likert","545","1050980","0.0-545.0","smd3gjzv","","","","","","","","1"
"2109.4799999999814","{""confidence"":3}","[0]","survey-likert","546","1053091","0.0-546.0","smd3gjzv","","","","","","","",""
"","","","call-function","547","1053093","0.0-547.0","smd3gjzv","","","","","","","",""
"null","","","html-keyboard-response","548","1054596","0.0-548.0","smd3gjzv","","<span style=""color:Black; font-size:50px;"">Agent A","null","","","","",""
"null","","","video-keyboard-response","549","1057671","0.0-549.0","smd3gjzv","","","null","","Agent A","veridical","STIM_SET_1_REAL/713371.bmp_pp68_L1_V1.0_veridical_freeview_isoFalse_fps144.mp4",""
"null","","","html-keyboard-response","550","1059176","0.0-550.0","smd3gjzv","","<span style=""color:Black; font-size:50px;"">Agent B","null","","","","",""
"null","","","video-keyboard-response","551","1062246","0.0-551.0","smd3gjzv","","","null","","Agent B","scrambled","STIM_SET_3/498396.bmp_pp99_L2_V2_veridical_freeview_isoFalsemismatch_713371.bmp_L1_fps90.mp4",""
"","","","call-function","552","1062246","0.0-552.0","smd3gjzv","","","","","","","",""
"2808.8000000000466","{""judgement"":0}","[0]","survey-likert","553","1065057","0.0-553.0","smd3gjzv","","","","","","","","0"
"3281.784999999916","{""confidence"":3}","[0]","survey-likert","554","1068340","0.0-554.0","smd3gjzv","","","","","","","",""
"","","","call-function","555","1068341","0.0-555.0","smd3gjzv","","","","","","","",""
"null","","","html-keyboard-response","556","1069842","0.0-556.0","smd3gjzv","","<span style=""color:Black; font-size:50px;"">Agent A","null","","","","",""
"null","","","video-keyboard-response","557","1072930","0.0-557.0","smd3gjzv","","","null","","Agent A","scrambled","STIM_SET_3/150277.bmp_pp65_L3_V2_veridical_freeview_isoFalsemismatch_1592362.bmp_L2_fps90.mp4",""
"null","","","html-keyboard-response","558","1074436","0.0-558.0","smd3gjzv","","<span style=""color:Black; font-size:50px;"">Agent B","null","","","","",""
"null","","","video-keyboard-response","559","1077503","0.0-559.0","smd3gjzv","","","null","","Agent B","veridical","STIM_SET_1_REAL/1592362.bmp_pp95_L2_V1.0_veridical_freeview_isoFalse_fps144.mp4",""
"","","","call-function","560","1077504","0.0-560.0","smd3gjzv","","","","","","","",""
"2112.350000000093","{""judgement"":1}","[0]","survey-likert","561","1079618","0.0-561.0","smd3gjzv","","","","","","","","1"
"2649.8850000000093","{""confidence"":2}","[0]","survey-likert","562","1082269","0.0-562.0","smd3gjzv","","","","","","","",""
"","","","call-function","563","1082270","0.0-563.0","smd3gjzv","","","","","","","",""
"null","","","html-keyboard-response","564","1083775","0.0-564.0","smd3gjzv","","<span style=""color:Black; font-size:50px;"">Agent A","null","","","","",""
"null","","","video-keyboard-response","565","1086874","0.0-565.0","smd3gjzv","","","null","","Agent A","scrambled","STIM_SET_3/1592298.bmp_pp56_L3_V2_veridical_freeview_isoFalsemismatch_1593146.bmp_L1_fps90.mp4",""
"null","","","html-keyboard-response","566","1088379","0.0-566.0","smd3gjzv","","<span style=""color:Black; font-size:50px;"">Agent B","null","","","","",""
"null","","","video-keyboard-response","567","1091484","0.0-567.0","smd3gjzv","","","null","","Agent B","veridical","STIM_SET_1_REAL/1593146.bmp_pp93_L1_V1.0_veridical_freeview_isoFalse_fps144.mp4",""
"","","","call-function","568","1091485","0.0-568.0","smd3gjzv","","","","","","","",""
"1919.1749999998137","{""judgement"":0}","[0]","survey-likert","569","1093405","0.0-569.0","smd3gjzv","","","","","","","","1"
"3260.1749999998137","{""confidence"":0}","[0]","survey-likert","570","1096667","0.0-570.0","smd3gjzv","","","","","","","",""
"","","","call-function","571","1096667","0.0-571.0","smd3gjzv","","","","","","","",""
"null","","","html-keyboard-response","572","1098171","0.0-572.0","smd3gjzv","","<span style=""color:Black; font-size:50px;"">Agent A","null","","","","",""
"null","","","video-keyboard-response","573","1101264","0.0-573.0","smd3gjzv","","","null","","Agent A","veridical","STIM_SET_1_REAL/1592817.bmp_pp55_L3_V1.0_veridical_freeview_isoFalse_fps144.mp4",""
"null","","","html-keyboard-response","574","1102766","0.0-574.0","smd3gjzv","","<span style=""color:Black; font-size:50px;"">Agent B","null","","","","",""
"null","","","video-keyboard-response","575","1105865","0.0-575.0","smd3gjzv","","","null","","Agent B","scrambled","STIM_SET_3/1159329.bmp_pp61_L2_V2_veridical_freeview_isoFalsemismatch_1592817.bmp_L3_fps90.mp4",""
"","","","call-function","576","1105866","0.0-576.0","smd3gjzv","","","","","","","",""
"2094.0749999999534","{""judgement"":1}","[0]","survey-likert","577","1107961","0.0-577.0","smd3gjzv","","","","","","","","0"
"1195.6899999999441","{""confidence"":2}","[0]","survey-likert","578","1109158","0.0-578.0","smd3gjzv","","","","","","","",""
"1805.6050000002142","","","instructions","579","1110964","0.0-579.0","smd3gjzv","[{""page_index"":0,""viewing_time"":1805.4650000000838}]","","","","","","",""
"2261.3599999998696","","","instructions","580","1113226","0.0-580.0","smd3gjzv","[{""page_index"":0,""viewing_time"":2261.25}]","","","","","","",""
"3453.1650000000373","{""post-1"":2}","[0]","survey-likert","581","1116680","0.0-581.0","smd3gjzv","","","","","","","",""
"5110.679999999935","{""post-1"":1}","[0]","survey-likert","582","1121793","0.0-582.0","smd3gjzv","","","","","","","",""
"8449.139999999898","{""post-2"":2}","[0]","survey-likert","583","1130244","0.0-583.0","smd3gjzv","","","","","","","",""
"4462.034999999916","{""post-2"":1}","[0]","survey-likert","584","1134709","0.0-584.0","smd3gjzv","","","","","","","",""
"4320.790000000037","{""post-3"":3}","[0]","survey-likert","585","1139031","0.0-585.0","smd3gjzv","","","","","","","",""
"2787.475000000093","{""post-3"":1}","[0]","survey-likert","586","1141820","0.0-586.0","smd3gjzv","","","","","","","",""
"8068.7400000002235","{""post-4"":1}","[0]","survey-likert","587","1149890","0.0-587.0","smd3gjzv","","","","","","","",""
"5074.344999999972","{""post-4"":1}","[0]","survey-likert","588","1154966","0.0-588.0","smd3gjzv","","","","","","","",""
"4578.340000000084","{""post-5"":1}","[0]","survey-likert","589","1159546","0.0-589.0","smd3gjzv","","","","","","","",""
"1699.6599999999162","{""post-5"":2}","[0]","survey-likert","590","1161247","0.0-590.0","smd3gjzv","","","","","","","",""
"45104.85499999998","{""Q0"":""this round seemed more challenging than the previous part and it became a bit harder to discern between the two agents ""}","","survey-text","591","1206356","0.0-591.0","smd3gjzv","","","","","","","",""
"7339.824999999953","{""Q0"":""same as last time""}","","survey-text","592","1213701","0.0-592.0","smd3gjzv","","","","","","","",""
"31040.344999999972","{""Q0"":""same as last time -- this part also seemed quite repetitive and tedious to keep up with ""}","","survey-text","593","1244744","0.0-593.0","smd3gjzv","","","","","","","",""
"51904.210000000196","","","instructions","594","1296649","0.0-594.0","smd3gjzv","[{""page_index"":0,""viewing_time"":51904.070000000065}]","","","","","","",""
"43487.91000000015","{""Experimenter_end"":[""Printed ID# smd3gjzv on consent form"",""Given subject SONA credit or payment"",""Given the subject debrief form""]}","[0]","survey-multi-select","595","1340140","0.0-595.0","smd3gjzv","","","","","","","",""
