"rt","responses","question_order","trial_type","trial_index","time_elapsed","internal_node_id","ID","view_history","stimulus","key_press","value","agent","condition","image","correct_answer"
"146137.72","{""Experimenter"":[""Confirmed subject's identity"",""Confirmed normal or corrected-to-normal vision"",""Obtained consent (signature and date)"",""Checked the test room lighting"",""Checked computer screen lighting"",""Checked distance from screen to chin rest (50cm)"",""Cleaned and adjusted chin rest"",""Counterbalanced the order of the tasks"",""Opened the experiment in Firefox"",""Made the experiment full screen"",""Encouraged subject to silence phone, put away distractors, etc.""]}","[0]","survey-multi-select","0","146146","0.0-0.0","smnfj5yg","","","","","","","",""
"19060.660000000003","","","instructions","1","165208","0.0-1.0","smnfj5yg","[{""page_index"":0,""viewing_time"":19060.51000000001}]","","","","","","",""
"24567.535000000003","","","instructions","2","189777","0.0-2.0","smnfj5yg","[{""page_index"":0,""viewing_time"":16858.705000000016},{""page_index"":1,""viewing_time"":1394.8150000000023},{""page_index"":2,""viewing_time"":6313.889999999985}]","","","","","","",""
"2915.595000000001","","","instructions","3","192693","0.0-3.0","smnfj5yg","[{""page_index"":0,""viewing_time"":2915.49000000002}]","","","","","","",""
"null","","","video-keyboard-response","4","195768","0.0-4.0","smnfj5yg","","","null","","","","",""
"6968.444999999978","","","instructions","5","202737","0.0-5.0","smnfj5yg","[{""page_index"":0,""viewing_time"":3903.039999999979},{""page_index"":1,""viewing_time"":2988.045000000013},{""page_index"":2,""viewing_time"":77.24499999999534}]","","","","","","",""
"3316.2600000000093","","","instructions","6","206054","0.0-6.0","smnfj5yg","[{""page_index"":0,""viewing_time"":3316.154999999999}]","","","","","","",""
"1698.6600000000035","","","instructions","7","207753","0.0-7.0","smnfj5yg","[{""page_index"":0,""viewing_time"":1698.4349999999977}]","","","","","","",""
"null","","","video-keyboard-response","8","210830","0.0-8.0","smnfj5yg","","","null","","","","",""
"14151.789999999979","","","instructions","9","224982","0.0-9.0","smnfj5yg","[{""page_index"":0,""viewing_time"":1677.7549999999756},{""page_index"":1,""viewing_time"":5668.955000000016},{""page_index"":2,""viewing_time"":6804.854999999981}]","","","","","","",""
"3999.4500000000116","","","instructions","10","228982","0.0-10.0","smnfj5yg","[{""page_index"":0,""viewing_time"":3999.334999999992}]","","","","","","",""
"","","","call-function","11","228983","0.0-11.0","smnfj5yg","","","","","","","",""
"null","","","html-keyboard-response","12","230489","0.0-12.0","smnfj5yg","","<span style=""color:Black; font-size:50px;"">Agent A","null","","","","",""
"null","","","video-keyboard-response","13","233256","0.0-13.0","smnfj5yg","","","null","","Agent A","scrambled","FOR_REV_MAP_BLOBBY_STIM/285684.bmp_pp80_L3_V1.0_veridical_freeview_isoTrue_fps144_reversed_REAL.mp4",""
"null","","","html-keyboard-response","14","234762","0.0-14.0","smnfj5yg","","<span style=""color:Black; font-size:50px;"">Agent B","null","","","","",""
"null","","","video-keyboard-response","15","237529","0.0-15.0","smnfj5yg","","","null","","Agent B","veridical","FOR_REV_MAP_BLOBBY_STIM/285684.bmp_pp80_L3_V1.0_veridical_freeview_isoTrue_fps144.mp4",""
"","","","call-function","16","237529","0.0-16.0","smnfj5yg","","","","","","","",""
"3696.709999999992","{""judgement"":0}","[0]","survey-likert","17","241227","0.0-17.0","smnfj5yg","","","","","","","","1"
"2852.5349999999744","{""confidence"":2}","[0]","survey-likert","18","244081","0.0-18.0","smnfj5yg","","","","","","","",""
"","","","call-function","19","244081","0.0-19.0","smnfj5yg","","","","","","","",""
"null","","","html-keyboard-response","20","245587","0.0-20.0","smnfj5yg","","<span style=""color:Black; font-size:50px;"">Agent A","null","","","","",""
"null","","","video-keyboard-response","21","248415","0.0-21.0","smnfj5yg","","","null","","Agent A","veridical","FOR_REV_MAP_BLOBBY_STIM/713770.bmp_pp89_L1_V1.0_veridical_freeview_isoTrue_fps144.mp4",""
"null","","","html-keyboard-response","22","249917","0.0-22.0","smnfj5yg","","<span style=""color:Black; font-size:50px;"">Agent B","null","","","","",""
"null","","","video-keyboard-response","23","252742","0.0-23.0","smnfj5yg","","","null","","Agent B","scrambled","FOR_REV_MAP_BLOBBY_STIM/713770.bmp_pp89_L1_V1.0_veridical_freeview_isoTrue_fps144_reversed_REAL.mp4",""
"","","","call-function","24","252743","0.0-24.0","smnfj5yg","","","","","","","",""
"8076.600000000006","{""judgement"":1}","[0]","survey-likert","25","260820","0.0-25.0","smnfj5yg","","","","","","","","0"
"4510.885000000009","{""confidence"":0}","[0]","survey-likert","26","265332","0.0-26.0","smnfj5yg","","","","","","","",""
"","","","call-function","27","265333","0.0-27.0","smnfj5yg","","","","","","","",""
"null","","","html-keyboard-response","28","266837","0.0-28.0","smnfj5yg","","<span style=""color:Black; font-size:50px;"">Agent A","null","","","","",""
"null","","","video-keyboard-response","29","269690","0.0-29.0","smnfj5yg","","","null","","Agent A","veridical","FOR_REV_MAP_BLOBBY_STIM/1592025.bmp_pp68_L1_V1.0_veridical_freeview_isoTrue_fps144.mp4",""
"null","","","html-keyboard-response","30","271194","0.0-30.0","smnfj5yg","","<span style=""color:Black; font-size:50px;"">Agent B","null","","","","",""
"null","","","video-keyboard-response","31","274013","0.0-31.0","smnfj5yg","","","null","","Agent B","scrambled","FOR_REV_MAP_BLOBBY_STIM/1592025.bmp_pp68_L1_V1.0_veridical_freeview_isoTrue_fps144_reversed_REAL.mp4",""
"","","","call-function","32","274014","0.0-32.0","smnfj5yg","","","","","","","",""
"4444.994999999995","{""judgement"":0}","[0]","survey-likert","33","278460","0.0-33.0","smnfj5yg","","","","","","","","0"
"2301.8899999999558","{""confidence"":1}","[0]","survey-likert","34","280764","0.0-34.0","smnfj5yg","","","","","","","",""
"","","","call-function","35","280764","0.0-35.0","smnfj5yg","","","","","","","",""
"null","","","html-keyboard-response","36","282265","0.0-36.0","smnfj5yg","","<span style=""color:Black; font-size:50px;"">Agent A","null","","","","",""
"null","","","video-keyboard-response","37","285032","0.0-37.0","smnfj5yg","","","null","","Agent A","scrambled","FOR_REV_MAP_BLOBBY_STIM/1159329.bmp_pp61_L2_V1.0_veridical_freeview_isoTrue_fps144_reversed_REAL.mp4",""
"null","","","html-keyboard-response","38","286538","0.0-38.0","smnfj5yg","","<span style=""color:Black; font-size:50px;"">Agent B","null","","","","",""
"null","","","video-keyboard-response","39","289305","0.0-39.0","smnfj5yg","","","null","","Agent B","veridical","FOR_REV_MAP_BLOBBY_STIM/1159329.bmp_pp61_L2_V1.0_veridical_freeview_isoTrue_fps144.mp4",""
"","","","call-function","40","289305","0.0-40.0","smnfj5yg","","","","","","","",""
"4412.755000000005","{""judgement"":0}","[0]","survey-likert","41","293719","0.0-41.0","smnfj5yg","","","","","","","","1"
"2410.2300000000396","{""confidence"":3}","[0]","survey-likert","42","296131","0.0-42.0","smnfj5yg","","","","","","","",""
"","","","call-function","43","296131","0.0-43.0","smnfj5yg","","","","","","","",""
"null","","","html-keyboard-response","44","297632","0.0-44.0","smnfj5yg","","<span style=""color:Black; font-size:50px;"">Agent A","null","","","","",""
"null","","","video-keyboard-response","45","300415","0.0-45.0","smnfj5yg","","","null","","Agent A","scrambled","FOR_REV_MAP_BLOBBY_STIM/713328.bmp_pp86_L2_V1.0_veridical_freeview_isoTrue_fps144_reversed_REAL.mp4",""
"null","","","html-keyboard-response","46","301918","0.0-46.0","smnfj5yg","","<span style=""color:Black; font-size:50px;"">Agent B","null","","","","",""
"null","","","video-keyboard-response","47","304692","0.0-47.0","smnfj5yg","","","null","","Agent B","veridical","FOR_REV_MAP_BLOBBY_STIM/713328.bmp_pp86_L2_V1.0_veridical_freeview_isoTrue_fps144.mp4",""
"","","","call-function","48","304692","0.0-48.0","smnfj5yg","","","","","","","",""
"13038.675000000047","{""judgement"":1}","[0]","survey-likert","49","317731","0.0-49.0","smnfj5yg","","","","","","","","1"
"965.0750000000116","{""confidence"":2}","[0]","survey-likert","50","318698","0.0-50.0","smnfj5yg","","","","","","","",""
"","","","call-function","51","318698","0.0-51.0","smnfj5yg","","","","","","","",""
"null","","","html-keyboard-response","52","320200","0.0-52.0","smnfj5yg","","<span style=""color:Black; font-size:50px;"">Agent A","null","","","","",""
"null","","","video-keyboard-response","53","322115","0.0-53.0","smnfj5yg","","","null","","Agent A","scrambled","FOR_REV_MAP_BLOBBY_STIM/285946.bmp_pp79_L2_V1.0_veridical_freeview_isoTrue_fps144_reversed_REAL.mp4",""
"null","","","html-keyboard-response","54","323620","0.0-54.0","smnfj5yg","","<span style=""color:Black; font-size:50px;"">Agent B","null","","","","",""
"null","","","video-keyboard-response","55","325519","0.0-55.0","smnfj5yg","","","null","","Agent B","veridical","FOR_REV_MAP_BLOBBY_STIM/285946.bmp_pp79_L2_V1.0_veridical_freeview_isoTrue_fps144.mp4",""
"","","","call-function","56","325519","0.0-56.0","smnfj5yg","","","","","","","",""
"5978.614999999991","{""judgement"":0}","[0]","survey-likert","57","331498","0.0-57.0","smnfj5yg","","","","","","","","1"
"1399.914999999979","{""confidence"":0}","[0]","survey-likert","58","332899","0.0-58.0","smnfj5yg","","","","","","","",""
"","","","call-function","59","332900","0.0-59.0","smnfj5yg","","","","","","","",""
"null","","","html-keyboard-response","60","334404","0.0-60.0","smnfj5yg","","<span style=""color:Black; font-size:50px;"">Agent A","null","","","","",""
"null","","","video-keyboard-response","61","337107","0.0-61.0","smnfj5yg","","","null","","Agent A","scrambled","FOR_REV_MAP_BLOBBY_STIM/1159427.bmp_pp98_L1_V1.0_veridical_freeview_isoTrue_fps144_reversed_REAL.mp4",""
"null","","","html-keyboard-response","62","338609","0.0-62.0","smnfj5yg","","<span style=""color:Black; font-size:50px;"">Agent B","null","","","","",""
"null","","","video-keyboard-response","63","341326","0.0-63.0","smnfj5yg","","","null","","Agent B","veridical","FOR_REV_MAP_BLOBBY_STIM/1159427.bmp_pp98_L1_V1.0_veridical_freeview_isoTrue_fps144.mp4",""
"","","","call-function","64","341326","0.0-64.0","smnfj5yg","","","","","","","",""
"7735.619999999995","{""judgement"":1}","[0]","survey-likert","65","349063","0.0-65.0","smnfj5yg","","","","","","","","1"
"1586.024999999965","{""confidence"":3}","[0]","survey-likert","66","350650","0.0-66.0","smnfj5yg","","","","","","","",""
"","","","call-function","67","350650","0.0-67.0","smnfj5yg","","","","","","","",""
"null","","","html-keyboard-response","68","352154","0.0-68.0","smnfj5yg","","<span style=""color:Black; font-size:50px;"">Agent A","null","","","","",""
"null","","","video-keyboard-response","69","355023","0.0-69.0","smnfj5yg","","","null","","Agent A","scrambled","FOR_REV_MAP_BLOBBY_STIM/713742.bmp_pp91_L3_V1.0_veridical_freeview_isoTrue_fps144_reversed_REAL.mp4",""
"null","","","html-keyboard-response","70","356527","0.0-70.0","smnfj5yg","","<span style=""color:Black; font-size:50px;"">Agent B","null","","","","",""
"null","","","video-keyboard-response","71","359368","0.0-71.0","smnfj5yg","","","null","","Agent B","veridical","FOR_REV_MAP_BLOBBY_STIM/713742.bmp_pp91_L3_V1.0_veridical_freeview_isoTrue_fps144.mp4",""
"","","","call-function","72","359368","0.0-72.0","smnfj5yg","","","","","","","",""
"2312.4000000000233","{""judgement"":0}","[0]","survey-likert","73","361682","0.0-73.0","smnfj5yg","","","","","","","","1"
"2357.570000000007","{""confidence"":3}","[0]","survey-likert","74","364040","0.0-74.0","smnfj5yg","","","","","","","",""
"","","","call-function","75","364041","0.0-75.0","smnfj5yg","","","","","","","",""
"null","","","html-keyboard-response","76","365543","0.0-76.0","smnfj5yg","","<span style=""color:Black; font-size:50px;"">Agent A","null","","","","",""
"null","","","video-keyboard-response","77","368324","0.0-77.0","smnfj5yg","","","null","","Agent A","scrambled","FOR_REV_MAP_BLOBBY_STIM/713790.bmp_pp100_L3_V1.0_veridical_freeview_isoTrue_fps144_reversed_REAL.mp4",""
"null","","","html-keyboard-response","78","369829","0.0-78.0","smnfj5yg","","<span style=""color:Black; font-size:50px;"">Agent B","null","","","","",""
"null","","","video-keyboard-response","79","372627","0.0-79.0","smnfj5yg","","","null","","Agent B","veridical","FOR_REV_MAP_BLOBBY_STIM/713790.bmp_pp100_L3_V1.0_veridical_freeview_isoTrue_fps144.mp4",""
"","","","call-function","80","372627","0.0-80.0","smnfj5yg","","","","","","","",""
"5651.075000000012","{""judgement"":0}","[0]","survey-likert","81","378279","0.0-81.0","smnfj5yg","","","","","","","","1"
"1745.3549999999814","{""confidence"":0}","[0]","survey-likert","82","380026","0.0-82.0","smnfj5yg","","","","","","","",""
"","","","call-function","83","380026","0.0-83.0","smnfj5yg","","","","","","","",""
"null","","","html-keyboard-response","84","381527","0.0-84.0","smnfj5yg","","<span style=""color:Black; font-size:50px;"">Agent A","null","","","","",""
"null","","","video-keyboard-response","85","384324","0.0-85.0","smnfj5yg","","","null","","Agent A","veridical","FOR_REV_MAP_BLOBBY_STIM/1160049.bmp_pp53_L2_V1.0_veridical_freeview_isoTrue_fps144.mp4",""
"null","","","html-keyboard-response","86","385830","0.0-86.0","smnfj5yg","","<span style=""color:Black; font-size:50px;"">Agent B","null","","","","",""
"null","","","video-keyboard-response","87","388622","0.0-87.0","smnfj5yg","","","null","","Agent B","scrambled","FOR_REV_MAP_BLOBBY_STIM/1160049.bmp_pp53_L2_V1.0_veridical_freeview_isoTrue_fps144_reversed_REAL.mp4",""
"","","","call-function","88","388623","0.0-88.0","smnfj5yg","","","","","","","",""
"1271.2649999999558","{""judgement"":0}","[0]","survey-likert","89","389895","0.0-89.0","smnfj5yg","","","","","","","","0"
"1593.4949999999953","{""confidence"":3}","[0]","survey-likert","90","391490","0.0-90.0","smnfj5yg","","","","","","","",""
"7960.75","","","instructions","91","399452","0.0-91.0","smnfj5yg","[{""page_index"":0,""viewing_time"":1575.8850000000093},{""page_index"":1,""viewing_time"":5100.77999999997},{""page_index"":2,""viewing_time"":1283.4400000000023}]","","","","","","",""
"3846.6849999999977","","","instructions","92","403299","0.0-92.0","smnfj5yg","[{""page_index"":0,""viewing_time"":885.5949999999721},{""page_index"":1,""viewing_time"":2182.2550000000047},{""page_index"":2,""viewing_time"":778.7299999999814}]","","","","","","",""
"","","","call-function","93","403300","0.0-93.0","smnfj5yg","","","","","","","",""
"null","","","html-keyboard-response","94","404805","0.0-94.0","smnfj5yg","","<span style=""color:Black; font-size:50px;"">Agent A","null","","","","",""
"null","","","video-keyboard-response","95","407566","0.0-95.0","smnfj5yg","","","null","","Agent A","veridical","FOR_REV_MAP_BLOBBY_STIM/1592017.bmp_pp154_L1_V1.0_veridical_freeview_isoTrue_fps144.mp4",""
"null","","","html-keyboard-response","96","409070","0.0-96.0","smnfj5yg","","<span style=""color:Black; font-size:50px;"">Agent B","null","","","","",""
"null","","","video-keyboard-response","97","411828","0.0-97.0","smnfj5yg","","","null","","Agent B","scrambled","FOR_REV_MAP_BLOBBY_STIM/1592017.bmp_pp154_L1_V1.0_veridical_freeview_isoTrue_fps144_reversed_REAL.mp4",""
"","","","call-function","98","411829","0.0-98.0","smnfj5yg","","","","","","","",""
"2688.2999999999884","{""judgement"":1}","[0]","survey-likert","99","414518","0.0-99.0","smnfj5yg","","","","","","","","0"
"1193.5350000000326","{""confidence"":3}","[0]","survey-likert","100","415713","0.0-100.0","smnfj5yg","","","","","","","",""
"","","","call-function","101","415714","0.0-101.0","smnfj5yg","","","","","","","",""
"null","","","html-keyboard-response","102","417220","0.0-102.0","smnfj5yg","","<span style=""color:Black; font-size:50px;"">Agent A","null","","","","",""
"null","","","video-keyboard-response","103","419951","0.0-103.0","smnfj5yg","","","null","","Agent A","scrambled","FOR_REV_MAP_BLOBBY_STIM/1159956.bmp_pp59_L3_V1.0_veridical_freeview_isoTrue_fps144_reversed_REAL.mp4",""
"null","","","html-keyboard-response","104","421455","0.0-104.0","smnfj5yg","","<span style=""color:Black; font-size:50px;"">Agent B","null","","","","",""
"null","","","video-keyboard-response","105","424186","0.0-105.0","smnfj5yg","","","null","","Agent B","veridical","FOR_REV_MAP_BLOBBY_STIM/1159956.bmp_pp59_L3_V1.0_veridical_freeview_isoTrue_fps144.mp4",""
"","","","call-function","106","424186","0.0-106.0","smnfj5yg","","","","","","","",""
"1461.3250000000116","{""judgement"":0}","[0]","survey-likert","107","425648","0.0-107.0","smnfj5yg","","","","","","","","1"
"999.3549999999814","{""confidence"":3}","[0]","survey-likert","108","426649","0.0-108.0","smnfj5yg","","","","","","","",""
"","","","call-function","109","426649","0.0-109.0","smnfj5yg","","","","","","","",""
"null","","","html-keyboard-response","110","428154","0.0-110.0","smnfj5yg","","<span style=""color:Black; font-size:50px;"">Agent A","null","","","","",""
"null","","","video-keyboard-response","111","430590","0.0-111.0","smnfj5yg","","","null","","Agent A","scrambled","FOR_REV_MAP_BLOBBY_STIM/1592951.bmp_pp80_L3_V1.0_veridical_freeview_isoTrue_fps144_reversed_REAL.mp4",""
"null","","","html-keyboard-response","112","432095","0.0-112.0","smnfj5yg","","<span style=""color:Black; font-size:50px;"">Agent B","null","","","","",""
"null","","","video-keyboard-response","113","434527","0.0-113.0","smnfj5yg","","","null","","Agent B","veridical","FOR_REV_MAP_BLOBBY_STIM/1592951.bmp_pp80_L3_V1.0_veridical_freeview_isoTrue_fps144.mp4",""
"","","","call-function","114","434527","0.0-114.0","smnfj5yg","","","","","","","",""
"2065.820000000007","{""judgement"":1}","[0]","survey-likert","115","436594","0.0-115.0","smnfj5yg","","","","","","","","1"
"1111.3150000000023","{""confidence"":1}","[0]","survey-likert","116","437706","0.0-116.0","smnfj5yg","","","","","","","",""
"","","","call-function","117","437706","0.0-117.0","smnfj5yg","","","","","","","",""
"null","","","html-keyboard-response","118","439212","0.0-118.0","smnfj5yg","","<span style=""color:Black; font-size:50px;"">Agent A","null","","","","",""
"null","","","video-keyboard-response","119","442143","0.0-119.0","smnfj5yg","","","null","","Agent A","veridical","FOR_REV_MAP_BLOBBY_STIM/498025.bmp_pp81_L1_V1.0_veridical_freeview_isoTrue_fps144.mp4",""
"null","","","html-keyboard-response","120","443647","0.0-120.0","smnfj5yg","","<span style=""color:Black; font-size:50px;"">Agent B","null","","","","",""
"null","","","video-keyboard-response","121","446581","0.0-121.0","smnfj5yg","","","null","","Agent B","scrambled","FOR_REV_MAP_BLOBBY_STIM/498025.bmp_pp81_L1_V1.0_veridical_freeview_isoTrue_fps144_reversed_REAL.mp4",""
"","","","call-function","122","446581","0.0-122.0","smnfj5yg","","","","","","","",""
"1964.945000000007","{""judgement"":0}","[0]","survey-likert","123","448547","0.0-123.0","smnfj5yg","","","","","","","","0"
"1264.4250000000466","{""confidence"":3}","[0]","survey-likert","124","449813","0.0-124.0","smnfj5yg","","","","","","","",""
"","","","call-function","125","449813","0.0-125.0","smnfj5yg","","","","","","","",""
"null","","","html-keyboard-response","126","451317","0.0-126.0","smnfj5yg","","<span style=""color:Black; font-size:50px;"">Agent A","null","","","","",""
"null","","","video-keyboard-response","127","454058","0.0-127.0","smnfj5yg","","","null","","Agent A","veridical","FOR_REV_MAP_BLOBBY_STIM/1159592.bmp_pp91_L3_V1.0_veridical_freeview_isoTrue_fps144.mp4",""
"null","","","html-keyboard-response","128","455562","0.0-128.0","smnfj5yg","","<span style=""color:Black; font-size:50px;"">Agent B","null","","","","",""
"null","","","video-keyboard-response","129","458307","0.0-129.0","smnfj5yg","","","null","","Agent B","scrambled","FOR_REV_MAP_BLOBBY_STIM/1159592.bmp_pp91_L3_V1.0_veridical_freeview_isoTrue_fps144_reversed_REAL.mp4",""
"","","","call-function","130","458308","0.0-130.0","smnfj5yg","","","","","","","",""
"1517.1500000000233","{""judgement"":0}","[0]","survey-likert","131","459826","0.0-131.0","smnfj5yg","","","","","","","","0"
"4585.339999999967","{""confidence"":1}","[0]","survey-likert","132","464413","0.0-132.0","smnfj5yg","","","","","","","",""
"","","","call-function","133","464413","0.0-133.0","smnfj5yg","","","","","","","",""
"null","","","html-keyboard-response","134","465919","0.0-134.0","smnfj5yg","","<span style=""color:Black; font-size:50px;"">Agent A","null","","","","",""
"null","","","video-keyboard-response","135","468746","0.0-135.0","smnfj5yg","","","null","","Agent A","veridical","FOR_REV_MAP_BLOBBY_STIM/1592314.bmp_pp100_L3_V1.0_veridical_freeview_isoTrue_fps144.mp4",""
"null","","","html-keyboard-response","136","470250","0.0-136.0","smnfj5yg","","<span style=""color:Black; font-size:50px;"">Agent B","null","","","","",""
"null","","","video-keyboard-response","137","473071","0.0-137.0","smnfj5yg","","","null","","Agent B","scrambled","FOR_REV_MAP_BLOBBY_STIM/1592314.bmp_pp100_L3_V1.0_veridical_freeview_isoTrue_fps144_reversed_REAL.mp4",""
"","","","call-function","138","473071","0.0-138.0","smnfj5yg","","","","","","","",""
"1999.304999999993","{""judgement"":1}","[0]","survey-likert","139","475072","0.0-139.0","smnfj5yg","","","","","","","","0"
"928.8150000000023","{""confidence"":2}","[0]","survey-likert","140","476001","0.0-140.0","smnfj5yg","","","","","","","",""
"","","","call-function","141","476002","0.0-141.0","smnfj5yg","","","","","","","",""
"null","","","html-keyboard-response","142","477508","0.0-142.0","smnfj5yg","","<span style=""color:Black; font-size:50px;"">Agent A","null","","","","",""
"null","","","video-keyboard-response","143","480341","0.0-143.0","smnfj5yg","","","null","","Agent A","scrambled","FOR_REV_MAP_BLOBBY_STIM/1160204.bmp_pp54_L2_V1.0_veridical_freeview_isoTrue_fps144_reversed_REAL.mp4",""
"null","","","html-keyboard-response","144","481845","0.0-144.0","smnfj5yg","","<span style=""color:Black; font-size:50px;"">Agent B","null","","","","",""
"null","","","video-keyboard-response","145","484682","0.0-145.0","smnfj5yg","","","null","","Agent B","veridical","FOR_REV_MAP_BLOBBY_STIM/1160204.bmp_pp54_L2_V1.0_veridical_freeview_isoTrue_fps144.mp4",""
"","","","call-function","146","484682","0.0-146.0","smnfj5yg","","","","","","","",""
"3735.195000000007","{""judgement"":1}","[0]","survey-likert","147","488419","0.0-147.0","smnfj5yg","","","","","","","","1"
"1169.204999999958","{""confidence"":2}","[0]","survey-likert","148","489590","0.0-148.0","smnfj5yg","","","","","","","",""
"","","","call-function","149","489590","0.0-149.0","smnfj5yg","","","","","","","",""
"null","","","html-keyboard-response","150","491093","0.0-150.0","smnfj5yg","","<span style=""color:Black; font-size:50px;"">Agent A","null","","","","",""
"null","","","video-keyboard-response","151","493903","0.0-151.0","smnfj5yg","","","null","","Agent A","scrambled","FOR_REV_MAP_BLOBBY_STIM/1592921.bmp_pp69_L3_V1.0_veridical_freeview_isoTrue_fps144_reversed_REAL.mp4",""
"null","","","html-keyboard-response","152","495407","0.0-152.0","smnfj5yg","","<span style=""color:Black; font-size:50px;"">Agent B","null","","","","",""
"null","","","video-keyboard-response","153","498239","0.0-153.0","smnfj5yg","","","null","","Agent B","veridical","FOR_REV_MAP_BLOBBY_STIM/1592921.bmp_pp69_L3_V1.0_veridical_freeview_isoTrue_fps144.mp4",""
"","","","call-function","154","498240","0.0-154.0","smnfj5yg","","","","","","","",""
"2779.7949999999837","{""judgement"":0}","[0]","survey-likert","155","501021","0.0-155.0","smnfj5yg","","","","","","","","1"
"2093.8150000000023","{""confidence"":3}","[0]","survey-likert","156","503116","0.0-156.0","smnfj5yg","","","","","","","",""
"","","","call-function","157","503116","0.0-157.0","smnfj5yg","","","","","","","",""
"null","","","html-keyboard-response","158","504617","0.0-158.0","smnfj5yg","","<span style=""color:Black; font-size:50px;"">Agent A","null","","","","",""
"null","","","video-keyboard-response","159","507477","0.0-159.0","smnfj5yg","","","null","","Agent A","scrambled","FOR_REV_MAP_BLOBBY_STIM/498396.bmp_pp99_L2_V1.0_veridical_freeview_isoTrue_fps144_reversed_REAL.mp4",""
"null","","","html-keyboard-response","160","508981","0.0-160.0","smnfj5yg","","<span style=""color:Black; font-size:50px;"">Agent B","null","","","","",""
"null","","","video-keyboard-response","161","511824","0.0-161.0","smnfj5yg","","","null","","Agent B","veridical","FOR_REV_MAP_BLOBBY_STIM/498396.bmp_pp99_L2_V1.0_veridical_freeview_isoTrue_fps144.mp4",""
"","","","call-function","162","511825","0.0-162.0","smnfj5yg","","","","","","","",""
"2424.2399999999907","{""judgement"":0}","[0]","survey-likert","163","514251","0.0-163.0","smnfj5yg","","","","","","","","1"
"2567.5999999999767","{""confidence"":0}","[0]","survey-likert","164","516821","0.0-164.0","smnfj5yg","","","","","","","",""
"","","","call-function","165","516821","0.0-165.0","smnfj5yg","","","","","","","",""
"null","","","html-keyboard-response","166","518325","0.0-166.0","smnfj5yg","","<span style=""color:Black; font-size:50px;"">Agent A","null","","","","",""
"null","","","video-keyboard-response","167","521066","0.0-167.0","smnfj5yg","","","null","","Agent A","veridical","FOR_REV_MAP_BLOBBY_STIM/1591975.bmp_pp88_L2_V1.0_veridical_freeview_isoTrue_fps144.mp4",""
"null","","","html-keyboard-response","168","522570","0.0-168.0","smnfj5yg","","<span style=""color:Black; font-size:50px;"">Agent B","null","","","","",""
"null","","","video-keyboard-response","169","525300","0.0-169.0","smnfj5yg","","","null","","Agent B","scrambled","FOR_REV_MAP_BLOBBY_STIM/1591975.bmp_pp88_L2_V1.0_veridical_freeview_isoTrue_fps144_reversed_REAL.mp4",""
"","","","call-function","170","525300","0.0-170.0","smnfj5yg","","","","","","","",""
"10258.469999999972","{""judgement"":0}","[0]","survey-likert","171","535560","0.0-171.0","smnfj5yg","","","","","","","","0"
"2162.0149999998976","{""confidence"":1}","[0]","survey-likert","172","537723","0.0-172.0","smnfj5yg","","","","","","","",""
"11439.03999999992","","","instructions","173","549163","0.0-173.0","smnfj5yg","[{""page_index"":0,""viewing_time"":1057.6749999999302},{""page_index"":1,""viewing_time"":8902.095000000088},{""page_index"":2,""viewing_time"":1479.1149999999907}]","","","","","","",""
"5200.025000000023","","","instructions","174","554364","0.0-174.0","smnfj5yg","[{""page_index"":0,""viewing_time"":987.9400000000605},{""page_index"":1,""viewing_time"":2986.094999999972},{""page_index"":2,""viewing_time"":1225.8800000000047}]","","","","","","",""
"","","","call-function","175","554364","0.0-175.0","smnfj5yg","","","","","","","",""
"null","","","html-keyboard-response","176","555865","0.0-176.0","smnfj5yg","","<span style=""color:Black; font-size:50px;"">Agent A","null","","","","",""
"null","","","video-keyboard-response","177","557956","0.0-177.0","smnfj5yg","","","null","","Agent A","scrambled","FOR_REV_MAP_BLOBBY_STIM/1159973.bmp_pp98_L1_V1.0_veridical_freeview_isoTrue_fps144_reversed_REAL.mp4",""
"null","","","html-keyboard-response","178","559461","0.0-178.0","smnfj5yg","","<span style=""color:Black; font-size:50px;"">Agent B","null","","","","",""
"null","","","video-keyboard-response","179","561582","0.0-179.0","smnfj5yg","","","null","","Agent B","veridical","FOR_REV_MAP_BLOBBY_STIM/1159973.bmp_pp98_L1_V1.0_veridical_freeview_isoTrue_fps144.mp4",""
"","","","call-function","180","561582","0.0-180.0","smnfj5yg","","","","","","","",""
"2234.9949999999953","{""judgement"":1}","[0]","survey-likert","181","563818","0.0-181.0","smnfj5yg","","","","","","","","1"
"1037.8850000000093","{""confidence"":2}","[0]","survey-likert","182","564857","0.0-182.0","smnfj5yg","","","","","","","",""
"","","","call-function","183","564857","0.0-183.0","smnfj5yg","","","","","","","",""
"null","","","html-keyboard-response","184","566362","0.0-184.0","smnfj5yg","","<span style=""color:Black; font-size:50px;"">Agent A","null","","","","",""
"null","","","video-keyboard-response","185","569172","0.0-185.0","smnfj5yg","","","null","","Agent A","veridical","FOR_REV_MAP_BLOBBY_STIM/498372.bmp_pp95_L2_V1.0_veridical_freeview_isoTrue_fps144.mp4",""
"null","","","html-keyboard-response","186","570677","0.0-186.0","smnfj5yg","","<span style=""color:Black; font-size:50px;"">Agent B","null","","","","",""
"null","","","video-keyboard-response","187","573465","0.0-187.0","smnfj5yg","","","null","","Agent B","scrambled","FOR_REV_MAP_BLOBBY_STIM/498372.bmp_pp95_L2_V1.0_veridical_freeview_isoTrue_fps144_reversed_REAL.mp4",""
"","","","call-function","188","573465","0.0-188.0","smnfj5yg","","","","","","","",""
"6319.194999999949","{""judgement"":1}","[0]","survey-likert","189","579785","0.0-189.0","smnfj5yg","","","","","","","","0"
"1058.6000000000931","{""confidence"":2}","[0]","survey-likert","190","580845","0.0-190.0","smnfj5yg","","","","","","","",""
"","","","call-function","191","580846","0.0-191.0","smnfj5yg","","","","","","","",""
"null","","","html-keyboard-response","192","582352","0.0-192.0","smnfj5yg","","<span style=""color:Black; font-size:50px;"">Agent A","null","","","","",""
"null","","","video-keyboard-response","193","585118","0.0-193.0","smnfj5yg","","","null","","Agent A","veridical","FOR_REV_MAP_BLOBBY_STIM/150463.bmp_pp55_L3_V1.0_veridical_freeview_isoTrue_fps144.mp4",""
"null","","","html-keyboard-response","194","586623","0.0-194.0","smnfj5yg","","<span style=""color:Black; font-size:50px;"">Agent B","null","","","","",""
"null","","","video-keyboard-response","195","589391","0.0-195.0","smnfj5yg","","","null","","Agent B","scrambled","FOR_REV_MAP_BLOBBY_STIM/150463.bmp_pp55_L3_V1.0_veridical_freeview_isoTrue_fps144_reversed_REAL.mp4",""
"","","","call-function","196","589392","0.0-196.0","smnfj5yg","","","","","","","",""
"1934.515000000014","{""judgement"":1}","[0]","survey-likert","197","591327","0.0-197.0","smnfj5yg","","","","","","","","0"
"1835.9950000001118","{""confidence"":1}","[0]","survey-likert","198","593164","0.0-198.0","smnfj5yg","","","","","","","",""
"","","","call-function","199","593165","0.0-199.0","smnfj5yg","","","","","","","",""
"null","","","html-keyboard-response","200","594665","0.0-200.0","smnfj5yg","","<span style=""color:Black; font-size:50px;"">Agent A","null","","","","",""
"null","","","video-keyboard-response","201","597435","0.0-201.0","smnfj5yg","","","null","","Agent A","veridical","FOR_REV_MAP_BLOBBY_STIM/285932.bmp_pp64_L1_V1.0_veridical_freeview_isoTrue_fps144.mp4",""
"null","","","html-keyboard-response","202","598937","0.0-202.0","smnfj5yg","","<span style=""color:Black; font-size:50px;"">Agent B","null","","","","",""
"null","","","video-keyboard-response","203","601724","0.0-203.0","smnfj5yg","","","null","","Agent B","scrambled","FOR_REV_MAP_BLOBBY_STIM/285932.bmp_pp64_L1_V1.0_veridical_freeview_isoTrue_fps144_reversed_REAL.mp4",""
"","","","call-function","204","601725","0.0-204.0","smnfj5yg","","","","","","","",""
"1574.25","{""judgement"":1}","[0]","survey-likert","205","603300","0.0-205.0","smnfj5yg","","","","","","","","0"
"2173.375","{""confidence"":3}","[0]","survey-likert","206","605474","0.0-206.0","smnfj5yg","","","","","","","",""
"","","","call-function","207","605475","0.0-207.0","smnfj5yg","","","","","","","",""
"null","","","html-keyboard-response","208","606980","0.0-208.0","smnfj5yg","","<span style=""color:Black; font-size:50px;"">Agent A","null","","","","",""
"null","","","video-keyboard-response","209","609813","0.0-209.0","smnfj5yg","","","null","","Agent A","scrambled","FOR_REV_MAP_BLOBBY_STIM/1592857.bmp_pp52_L1_V1.0_veridical_freeview_isoTrue_fps144_reversed_REAL.mp4",""
"null","","","html-keyboard-response","210","611317","0.0-210.0","smnfj5yg","","<span style=""color:Black; font-size:50px;"">Agent B","null","","","","",""
"null","","","video-keyboard-response","211","614170","0.0-211.0","smnfj5yg","","","null","","Agent B","veridical","FOR_REV_MAP_BLOBBY_STIM/1592857.bmp_pp52_L1_V1.0_veridical_freeview_isoTrue_fps144.mp4",""
"","","","call-function","212","614170","0.0-212.0","smnfj5yg","","","","","","","",""
"2626.180000000051","{""judgement"":1}","[0]","survey-likert","213","616797","0.0-213.0","smnfj5yg","","","","","","","","1"
"1467.7449999999953","{""confidence"":1}","[0]","survey-likert","214","618266","0.0-214.0","smnfj5yg","","","","","","","",""
"","","","call-function","215","618266","0.0-215.0","smnfj5yg","","","","","","","",""
"null","","","html-keyboard-response","216","619770","0.0-216.0","smnfj5yg","","<span style=""color:Black; font-size:50px;"">Agent A","null","","","","",""
"null","","","video-keyboard-response","217","622436","0.0-217.0","smnfj5yg","","","null","","Agent A","veridical","FOR_REV_MAP_BLOBBY_STIM/61513.bmp_pp75_L1_V1.0_veridical_freeview_isoTrue_fps144.mp4",""
"null","","","html-keyboard-response","218","623941","0.0-218.0","smnfj5yg","","<span style=""color:Black; font-size:50px;"">Agent B","null","","","","",""
"null","","","video-keyboard-response","219","626606","0.0-219.0","smnfj5yg","","","null","","Agent B","scrambled","FOR_REV_MAP_BLOBBY_STIM/61513.bmp_pp75_L1_V1.0_veridical_freeview_isoTrue_fps144_reversed_REAL.mp4",""
"","","","call-function","220","626607","0.0-220.0","smnfj5yg","","","","","","","",""
"3384.3349999999627","{""judgement"":0}","[0]","survey-likert","221","629993","0.0-221.0","smnfj5yg","","","","","","","","0"
"1573.109999999986","{""confidence"":0}","[0]","survey-likert","222","631568","0.0-222.0","smnfj5yg","","","","","","","",""
"","","","call-function","223","631569","0.0-223.0","smnfj5yg","","","","","","","",""
"null","","","html-keyboard-response","224","633072","0.0-224.0","smnfj5yg","","<span style=""color:Black; font-size:50px;"">Agent A","null","","","","",""
"null","","","video-keyboard-response","225","635871","0.0-225.0","smnfj5yg","","","null","","Agent A","veridical","FOR_REV_MAP_BLOBBY_STIM/498258.bmp_pp51_L1_V1.0_veridical_freeview_isoTrue_fps144.mp4",""
"null","","","html-keyboard-response","226","637376","0.0-226.0","smnfj5yg","","<span style=""color:Black; font-size:50px;"">Agent B","null","","","","",""
"null","","","video-keyboard-response","227","640181","0.0-227.0","smnfj5yg","","","null","","Agent B","scrambled","FOR_REV_MAP_BLOBBY_STIM/498258.bmp_pp51_L1_V1.0_veridical_freeview_isoTrue_fps144_reversed_REAL.mp4",""
"","","","call-function","228","640181","0.0-228.0","smnfj5yg","","","","","","","",""
"2189.8899999998976","{""judgement"":1}","[0]","survey-likert","229","642372","0.0-229.0","smnfj5yg","","","","","","","","0"
"2026.1950000000652","{""confidence"":3}","[0]","survey-likert","230","644399","0.0-230.0","smnfj5yg","","","","","","","",""
"","","","call-function","231","644400","0.0-231.0","smnfj5yg","","","","","","","",""
"null","","","html-keyboard-response","232","645904","0.0-232.0","smnfj5yg","","<span style=""color:Black; font-size:50px;"">Agent A","null","","","","",""
"null","","","video-keyboard-response","233","648644","0.0-233.0","smnfj5yg","","","null","","Agent A","veridical","FOR_REV_MAP_BLOBBY_STIM/1159819.bmp_pp151_L1_V1.0_veridical_freeview_isoTrue_fps144.mp4",""
"null","","","html-keyboard-response","234","650149","0.0-234.0","smnfj5yg","","<span style=""color:Black; font-size:50px;"">Agent B","null","","","","",""
"null","","","video-keyboard-response","235","652889","0.0-235.0","smnfj5yg","","","null","","Agent B","scrambled","FOR_REV_MAP_BLOBBY_STIM/1159819.bmp_pp151_L1_V1.0_veridical_freeview_isoTrue_fps144_reversed_REAL.mp4",""
"","","","call-function","236","652889","0.0-236.0","smnfj5yg","","","","","","","",""
"4506.609999999986","{""judgement"":0}","[0]","survey-likert","237","657397","0.0-237.0","smnfj5yg","","","","","","","","0"
"2077.4400000000605","{""confidence"":1}","[0]","survey-likert","238","659476","0.0-238.0","smnfj5yg","","","","","","","",""
"","","","call-function","239","659476","0.0-239.0","smnfj5yg","","","","","","","",""
"null","","","html-keyboard-response","240","660981","0.0-240.0","smnfj5yg","","<span style=""color:Black; font-size:50px;"">Agent A","null","","","","",""
"null","","","video-keyboard-response","241","663813","0.0-241.0","smnfj5yg","","","null","","Agent A","veridical","FOR_REV_MAP_BLOBBY_STIM/713689.bmp_pp153_L3_V1.0_veridical_freeview_isoTrue_fps144.mp4",""
"null","","","html-keyboard-response","242","665317","0.0-242.0","smnfj5yg","","<span style=""color:Black; font-size:50px;"">Agent B","null","","","","",""
"null","","","video-keyboard-response","243","668133","0.0-243.0","smnfj5yg","","","null","","Agent B","scrambled","FOR_REV_MAP_BLOBBY_STIM/713689.bmp_pp153_L3_V1.0_veridical_freeview_isoTrue_fps144_reversed_REAL.mp4",""
"","","","call-function","244","668133","0.0-244.0","smnfj5yg","","","","","","","",""
"1503.3999999999069","{""judgement"":1}","[0]","survey-likert","245","669637","0.0-245.0","smnfj5yg","","","","","","","","0"
"1298.454999999958","{""confidence"":1}","[0]","survey-likert","246","670937","0.0-246.0","smnfj5yg","","","","","","","",""
"","","","call-function","247","670937","0.0-247.0","smnfj5yg","","","","","","","",""
"null","","","html-keyboard-response","248","672443","0.0-248.0","smnfj5yg","","<span style=""color:Black; font-size:50px;"">Agent A","null","","","","",""
"null","","","video-keyboard-response","249","675050","0.0-249.0","smnfj5yg","","","null","","Agent A","veridical","FOR_REV_MAP_BLOBBY_STIM/713633.bmp_pp58_L1_V1.0_veridical_freeview_isoTrue_fps144.mp4",""
"null","","","html-keyboard-response","250","676555","0.0-250.0","smnfj5yg","","<span style=""color:Black; font-size:50px;"">Agent B","null","","","","",""
"null","","","video-keyboard-response","251","679162","0.0-251.0","smnfj5yg","","","null","","Agent B","scrambled","FOR_REV_MAP_BLOBBY_STIM/713633.bmp_pp58_L1_V1.0_veridical_freeview_isoTrue_fps144_reversed_REAL.mp4",""
"","","","call-function","252","679162","0.0-252.0","smnfj5yg","","","","","","","",""
"2422.9250000000466","{""judgement"":1}","[0]","survey-likert","253","681586","0.0-253.0","smnfj5yg","","","","","","","","0"
"1912.2299999999814","{""confidence"":2}","[0]","survey-likert","254","683499","0.0-254.0","smnfj5yg","","","","","","","",""
"17437.824999999953","","","instructions","255","700937","0.0-255.0","smnfj5yg","[{""page_index"":0,""viewing_time"":1042.219999999972},{""page_index"":1,""viewing_time"":15468.310000000056},{""page_index"":2,""viewing_time"":927.125}]","","","","","","",""
"2884.295000000042","","","instructions","256","703822","0.0-256.0","smnfj5yg","[{""page_index"":0,""viewing_time"":1229.234999999986},{""page_index"":1,""viewing_time"":1539.6200000001118},{""page_index"":2,""viewing_time"":115.32999999995809}]","","","","","","",""
"","","","call-function","257","703822","0.0-257.0","smnfj5yg","","","","","","","",""
"null","","","html-keyboard-response","258","705325","0.0-258.0","smnfj5yg","","<span style=""color:Black; font-size:50px;"">Agent A","null","","","","",""
"null","","","video-keyboard-response","259","708056","0.0-259.0","smnfj5yg","","","null","","Agent A","scrambled","FOR_REV_MAP_BLOBBY_STIM/285959.bmp_pp93_L1_V1.0_veridical_freeview_isoTrue_fps144_reversed_REAL.mp4",""
"null","","","html-keyboard-response","260","709563","0.0-260.0","smnfj5yg","","<span style=""color:Black; font-size:50px;"">Agent B","null","","","","",""
"null","","","video-keyboard-response","261","712293","0.0-261.0","smnfj5yg","","","null","","Agent B","veridical","FOR_REV_MAP_BLOBBY_STIM/285959.bmp_pp93_L1_V1.0_veridical_freeview_isoTrue_fps144.mp4",""
"","","","call-function","262","712293","0.0-262.0","smnfj5yg","","","","","","","",""
"2132.7399999999907","{""judgement"":1}","[0]","survey-likert","263","714427","0.0-263.0","smnfj5yg","","","","","","","","1"
"1297.405000000028","{""confidence"":3}","[0]","survey-likert","264","715725","0.0-264.0","smnfj5yg","","","","","","","",""
"","","","call-function","265","715726","0.0-265.0","smnfj5yg","","","","","","","",""
"null","","","html-keyboard-response","266","717232","0.0-266.0","smnfj5yg","","<span style=""color:Black; font-size:50px;"">Agent A","null","","","","",""
"null","","","video-keyboard-response","267","719990","0.0-267.0","smnfj5yg","","","null","","Agent A","scrambled","FOR_REV_MAP_BLOBBY_STIM/1592129.bmp_pp153_L3_V1.0_veridical_freeview_isoTrue_fps144_reversed_REAL.mp4",""
"null","","","html-keyboard-response","268","721492","0.0-268.0","smnfj5yg","","<span style=""color:Black; font-size:50px;"">Agent B","null","","","","",""
"null","","","video-keyboard-response","269","724277","0.0-269.0","smnfj5yg","","","null","","Agent B","veridical","FOR_REV_MAP_BLOBBY_STIM/1592129.bmp_pp153_L3_V1.0_veridical_freeview_isoTrue_fps144.mp4",""
"","","","call-function","270","724277","0.0-270.0","smnfj5yg","","","","","","","",""
"7775.395000000019","{""judgement"":1}","[0]","survey-likert","271","732054","0.0-271.0","smnfj5yg","","","","","","","","1"
"2186.2649999998976","{""confidence"":0}","[0]","survey-likert","272","734241","0.0-272.0","smnfj5yg","","","","","","","",""
"","","","call-function","273","734242","0.0-273.0","smnfj5yg","","","","","","","",""
"null","","","html-keyboard-response","274","735744","0.0-274.0","smnfj5yg","","<span style=""color:Black; font-size:50px;"">Agent A","null","","","","",""
"null","","","video-keyboard-response","275","738328","0.0-275.0","smnfj5yg","","","null","","Agent A","veridical","FOR_REV_MAP_BLOBBY_STIM/498398.bmp_pp81_L1_V1.0_veridical_freeview_isoTrue_fps144.mp4",""
"null","","","html-keyboard-response","276","739834","0.0-276.0","smnfj5yg","","<span style=""color:Black; font-size:50px;"">Agent B","null","","","","",""
"null","","","video-keyboard-response","277","742416","0.0-277.0","smnfj5yg","","","null","","Agent B","scrambled","FOR_REV_MAP_BLOBBY_STIM/498398.bmp_pp81_L1_V1.0_veridical_freeview_isoTrue_fps144_reversed_REAL.mp4",""
"","","","call-function","278","742417","0.0-278.0","smnfj5yg","","","","","","","",""
"2522.170000000042","{""judgement"":1}","[0]","survey-likert","279","744941","0.0-279.0","smnfj5yg","","","","","","","","0"
"4888.954999999958","{""confidence"":2}","[0]","survey-likert","280","749831","0.0-280.0","smnfj5yg","","","","","","","",""
"","","","call-function","281","749832","0.0-281.0","smnfj5yg","","","","","","","",""
"null","","","html-keyboard-response","282","751338","0.0-282.0","smnfj5yg","","<span style=""color:Black; font-size:50px;"">Agent A","null","","","","",""
"null","","","video-keyboard-response","283","754261","0.0-283.0","smnfj5yg","","","null","","Agent A","veridical","FOR_REV_MAP_BLOBBY_STIM/1592568.bmp_pp71_L1_V1.0_veridical_freeview_isoTrue_fps144.mp4",""
"null","","","html-keyboard-response","284","755765","0.0-284.0","smnfj5yg","","<span style=""color:Black; font-size:50px;"">Agent B","null","","","","",""
"null","","","video-keyboard-response","285","758693","0.0-285.0","smnfj5yg","","","null","","Agent B","scrambled","FOR_REV_MAP_BLOBBY_STIM/1592568.bmp_pp71_L1_V1.0_veridical_freeview_isoTrue_fps144_reversed_REAL.mp4",""
"","","","call-function","286","758694","0.0-286.0","smnfj5yg","","","","","","","",""
"1911.0400000000373","{""judgement"":1}","[0]","survey-likert","287","760606","0.0-287.0","smnfj5yg","","","","","","","","0"
"813.6650000000373","{""confidence"":1}","[0]","survey-likert","288","761421","0.0-288.0","smnfj5yg","","","","","","","",""
"","","","call-function","289","761421","0.0-289.0","smnfj5yg","","","","","","","",""
"null","","","html-keyboard-response","290","762928","0.0-290.0","smnfj5yg","","<span style=""color:Black; font-size:50px;"">Agent A","null","","","","",""
"null","","","video-keyboard-response","291","765690","0.0-291.0","smnfj5yg","","","null","","Agent A","veridical","FOR_REV_MAP_BLOBBY_STIM/1159325.bmp_pp67_L2_V1.0_veridical_freeview_isoTrue_fps144.mp4",""
"null","","","html-keyboard-response","292","767195","0.0-292.0","smnfj5yg","","<span style=""color:Black; font-size:50px;"">Agent B","null","","","","",""
"null","","","video-keyboard-response","293","769946","0.0-293.0","smnfj5yg","","","null","","Agent B","scrambled","FOR_REV_MAP_BLOBBY_STIM/1159325.bmp_pp67_L2_V1.0_veridical_freeview_isoTrue_fps144_reversed_REAL.mp4",""
"","","","call-function","294","769947","0.0-294.0","smnfj5yg","","","","","","","",""
"2406.984999999986","{""judgement"":0}","[0]","survey-likert","295","772354","0.0-295.0","smnfj5yg","","","","","","","","0"
"1511.2200000000885","{""confidence"":1}","[0]","survey-likert","296","773867","0.0-296.0","smnfj5yg","","","","","","","",""
"","","","call-function","297","773867","0.0-297.0","smnfj5yg","","","","","","","",""
"null","","","html-keyboard-response","298","775370","0.0-298.0","smnfj5yg","","<span style=""color:Black; font-size:50px;"">Agent A","null","","","","",""
"null","","","video-keyboard-response","299","778185","0.0-299.0","smnfj5yg","","","null","","Agent A","veridical","FOR_REV_MAP_BLOBBY_STIM/1592567.bmp_pp70_L2_V1.0_veridical_freeview_isoTrue_fps144.mp4",""
"null","","","html-keyboard-response","300","779691","0.0-300.0","smnfj5yg","","<span style=""color:Black; font-size:50px;"">Agent B","null","","","","",""
"null","","","video-keyboard-response","301","782484","0.0-301.0","smnfj5yg","","","null","","Agent B","scrambled","FOR_REV_MAP_BLOBBY_STIM/1592567.bmp_pp70_L2_V1.0_veridical_freeview_isoTrue_fps144_reversed_REAL.mp4",""
"","","","call-function","302","782484","0.0-302.0","smnfj5yg","","","","","","","",""
"1511.1300000000047","{""judgement"":1}","[0]","survey-likert","303","783996","0.0-303.0","smnfj5yg","","","","","","","","0"
"3025.2399999999907","{""confidence"":0}","[0]","survey-likert","304","787023","0.0-304.0","smnfj5yg","","","","","","","",""
"","","","call-function","305","787024","0.0-305.0","smnfj5yg","","","","","","","",""
"null","","","html-keyboard-response","306","788528","0.0-306.0","smnfj5yg","","<span style=""color:Black; font-size:50px;"">Agent A","null","","","","",""
"null","","","video-keyboard-response","307","791338","0.0-307.0","smnfj5yg","","","null","","Agent A","veridical","FOR_REV_MAP_BLOBBY_STIM/1592289.bmp_pp92_L3_V1.0_veridical_freeview_isoTrue_fps144.mp4",""
"null","","","html-keyboard-response","308","792842","0.0-308.0","smnfj5yg","","<span style=""color:Black; font-size:50px;"">Agent B","null","","","","",""
"null","","","video-keyboard-response","309","795637","0.0-309.0","smnfj5yg","","","null","","Agent B","scrambled","FOR_REV_MAP_BLOBBY_STIM/1592289.bmp_pp92_L3_V1.0_veridical_freeview_isoTrue_fps144_reversed_REAL.mp4",""
"","","","call-function","310","795637","0.0-310.0","smnfj5yg","","","","","","","",""
"3213.125","{""judgement"":1}","[0]","survey-likert","311","798851","0.0-311.0","smnfj5yg","","","","","","","","0"
"2577.8349999999627","{""confidence"":3}","[0]","survey-likert","312","801430","0.0-312.0","smnfj5yg","","","","","","","",""
"","","","call-function","313","801431","0.0-313.0","smnfj5yg","","","","","","","",""
"null","","","html-keyboard-response","314","802933","0.0-314.0","smnfj5yg","","<span style=""color:Black; font-size:50px;"">Agent A","null","","","","",""
"null","","","video-keyboard-response","315","805792","0.0-315.0","smnfj5yg","","","null","","Agent A","scrambled","FOR_REV_MAP_BLOBBY_STIM/498326.bmp_pp57_L1_V1.0_veridical_freeview_isoTrue_fps144_reversed_REAL.mp4",""
"null","","","html-keyboard-response","316","807295","0.0-316.0","smnfj5yg","","<span style=""color:Black; font-size:50px;"">Agent B","null","","","","",""
"null","","","video-keyboard-response","317","810154","0.0-317.0","smnfj5yg","","","null","","Agent B","veridical","FOR_REV_MAP_BLOBBY_STIM/498326.bmp_pp57_L1_V1.0_veridical_freeview_isoTrue_fps144.mp4",""
"","","","call-function","318","810154","0.0-318.0","smnfj5yg","","","","","","","",""
"3384.4000000000233","{""judgement"":0}","[0]","survey-likert","319","813540","0.0-319.0","smnfj5yg","","","","","","","","1"
"2251.944999999949","{""confidence"":1}","[0]","survey-likert","320","815793","0.0-320.0","smnfj5yg","","","","","","","",""
"","","","call-function","321","815794","0.0-321.0","smnfj5yg","","","","","","","",""
"null","","","html-keyboard-response","322","817296","0.0-322.0","smnfj5yg","","<span style=""color:Black; font-size:50px;"">Agent A","null","","","","",""
"null","","","video-keyboard-response","323","820111","0.0-323.0","smnfj5yg","","","null","","Agent A","veridical","FOR_REV_MAP_BLOBBY_STIM/1591920.bmp_pp97_L3_V1.0_veridical_freeview_isoTrue_fps144.mp4",""
"null","","","html-keyboard-response","324","821616","0.0-324.0","smnfj5yg","","<span style=""color:Black; font-size:50px;"">Agent B","null","","","","",""
"null","","","video-keyboard-response","325","824423","0.0-325.0","smnfj5yg","","","null","","Agent B","scrambled","FOR_REV_MAP_BLOBBY_STIM/1591920.bmp_pp97_L3_V1.0_veridical_freeview_isoTrue_fps144_reversed_REAL.mp4",""
"","","","call-function","326","824424","0.0-326.0","smnfj5yg","","","","","","","",""
"2282.70000000007","{""judgement"":0}","[0]","survey-likert","327","826707","0.0-327.0","smnfj5yg","","","","","","","","0"
"2188.1600000000326","{""confidence"":2}","[0]","survey-likert","328","828896","0.0-328.0","smnfj5yg","","","","","","","",""
"","","","call-function","329","828897","0.0-329.0","smnfj5yg","","","","","","","",""
"null","","","html-keyboard-response","330","830400","0.0-330.0","smnfj5yg","","<span style=""color:Black; font-size:50px;"">Agent A","null","","","","",""
"null","","","video-keyboard-response","331","833189","0.0-331.0","smnfj5yg","","","null","","Agent A","scrambled","FOR_REV_MAP_BLOBBY_STIM/286034.bmp_pp69_L3_V1.0_veridical_freeview_isoTrue_fps144_reversed_REAL.mp4",""
"null","","","html-keyboard-response","332","834693","0.0-332.0","smnfj5yg","","<span style=""color:Black; font-size:50px;"">Agent B","null","","","","",""
"null","","","video-keyboard-response","333","837480","0.0-333.0","smnfj5yg","","","null","","Agent B","veridical","FOR_REV_MAP_BLOBBY_STIM/286034.bmp_pp69_L3_V1.0_veridical_freeview_isoTrue_fps144.mp4",""
"","","","call-function","334","837480","0.0-334.0","smnfj5yg","","","","","","","",""
"4755.3300000000745","{""judgement"":1}","[0]","survey-likert","335","842237","0.0-335.0","smnfj5yg","","","","","","","","1"
"1655.9350000000559","{""confidence"":2}","[0]","survey-likert","336","843894","0.0-336.0","smnfj5yg","","","","","","","",""
"10696.045000000042","","","instructions","337","854590","0.0-337.0","smnfj5yg","[{""page_index"":0,""viewing_time"":2101.8600000001024},{""page_index"":1,""viewing_time"":7578.9199999999255},{""page_index"":2,""viewing_time"":1015.1049999999814}]","","","","","","",""
"6698.430000000051","","","instructions","338","861289","0.0-338.0","smnfj5yg","[{""page_index"":0,""viewing_time"":2058.3549999999814},{""page_index"":1,""viewing_time"":1612.8549999999814},{""page_index"":0,""viewing_time"":1708.2100000000792},{""page_index"":1,""viewing_time"":752.1149999999907},{""page_index"":2,""viewing_time"":566.7899999999208}]","","","","","","",""
"","","","call-function","339","861290","0.0-339.0","smnfj5yg","","","","","","","",""
"null","","","html-keyboard-response","340","862792","0.0-340.0","smnfj5yg","","<span style=""color:Black; font-size:50px;"">Agent A","null","","","","",""
"null","","","video-keyboard-response","341","865560","0.0-341.0","smnfj5yg","","","null","","Agent A","scrambled","FOR_REV_MAP_BLOBBY_STIM/1160247.bmp_pp54_L2_V1.0_veridical_freeview_isoTrue_fps144_reversed_REAL.mp4",""
"null","","","html-keyboard-response","342","867062","0.0-342.0","smnfj5yg","","<span style=""color:Black; font-size:50px;"">Agent B","null","","","","",""
"null","","","video-keyboard-response","343","869829","0.0-343.0","smnfj5yg","","","null","","Agent B","veridical","FOR_REV_MAP_BLOBBY_STIM/1160247.bmp_pp54_L2_V1.0_veridical_freeview_isoTrue_fps144.mp4",""
"","","","call-function","344","869830","0.0-344.0","smnfj5yg","","","","","","","",""
"4277.234999999986","{""judgement"":1}","[0]","survey-likert","345","874108","0.0-345.0","smnfj5yg","","","","","","","","1"
"1180.6949999999488","{""confidence"":3}","[0]","survey-likert","346","875289","0.0-346.0","smnfj5yg","","","","","","","",""
"","","","call-function","347","875290","0.0-347.0","smnfj5yg","","","","","","","",""
"null","","","html-keyboard-response","348","876794","0.0-348.0","smnfj5yg","","<span style=""color:Black; font-size:50px;"">Agent A","null","","","","",""
"null","","","video-keyboard-response","349","879498","0.0-349.0","smnfj5yg","","","null","","Agent A","veridical","FOR_REV_MAP_BLOBBY_STIM/1592350.bmp_pp55_L3_V1.0_veridical_freeview_isoTrue_fps144.mp4",""
"null","","","html-keyboard-response","350","881003","0.0-350.0","smnfj5yg","","<span style=""color:Black; font-size:50px;"">Agent B","null","","","","",""
"null","","","video-keyboard-response","351","883691","0.0-351.0","smnfj5yg","","","null","","Agent B","scrambled","FOR_REV_MAP_BLOBBY_STIM/1592350.bmp_pp55_L3_V1.0_veridical_freeview_isoTrue_fps144_reversed_REAL.mp4",""
"","","","call-function","352","883692","0.0-352.0","smnfj5yg","","","","","","","",""
"12424.994999999995","{""judgement"":0}","[0]","survey-likert","353","896119","0.0-353.0","smnfj5yg","","","","","","","","0"
"1400.3699999999953","{""confidence"":3}","[0]","survey-likert","354","897521","0.0-354.0","smnfj5yg","","","","","","","",""
"","","","call-function","355","897522","0.0-355.0","smnfj5yg","","","","","","","",""
"null","","","html-keyboard-response","356","899029","0.0-356.0","smnfj5yg","","<span style=""color:Black; font-size:50px;"">Agent A","null","","","","",""
"null","","","video-keyboard-response","357","901635","0.0-357.0","smnfj5yg","","","null","","Agent A","veridical","FOR_REV_MAP_BLOBBY_STIM/1159874.bmp_pp96_L2_V1.0_veridical_freeview_isoTrue_fps144.mp4",""
"null","","","html-keyboard-response","358","903141","0.0-358.0","smnfj5yg","","<span style=""color:Black; font-size:50px;"">Agent B","null","","","","",""
"null","","","video-keyboard-response","359","905749","0.0-359.0","smnfj5yg","","","null","","Agent B","scrambled","FOR_REV_MAP_BLOBBY_STIM/1159874.bmp_pp96_L2_V1.0_veridical_freeview_isoTrue_fps144_reversed_REAL.mp4",""
"","","","call-function","360","905750","0.0-360.0","smnfj5yg","","","","","","","",""
"7849.7949999999255","{""judgement"":0}","[0]","survey-likert","361","913601","0.0-361.0","smnfj5yg","","","","","","","","0"
"2570.875","{""confidence"":1}","[0]","survey-likert","362","916173","0.0-362.0","smnfj5yg","","","","","","","",""
"","","","call-function","363","916174","0.0-363.0","smnfj5yg","","","","","","","",""
"null","","","html-keyboard-response","364","917680","0.0-364.0","smnfj5yg","","<span style=""color:Black; font-size:50px;"">Agent A","null","","","","",""
"null","","","video-keyboard-response","365","920405","0.0-365.0","smnfj5yg","","","null","","Agent A","scrambled","FOR_REV_MAP_BLOBBY_STIM/285715.bmp_pp67_L2_V1.0_veridical_freeview_isoTrue_fps144_reversed_REAL.mp4",""
"null","","","html-keyboard-response","366","921907","0.0-366.0","smnfj5yg","","<span style=""color:Black; font-size:50px;"">Agent B","null","","","","",""
"null","","","video-keyboard-response","367","924667","0.0-367.0","smnfj5yg","","","null","","Agent B","veridical","FOR_REV_MAP_BLOBBY_STIM/285715.bmp_pp67_L2_V1.0_veridical_freeview_isoTrue_fps144.mp4",""
"","","","call-function","368","924667","0.0-368.0","smnfj5yg","","","","","","","",""
"5034.869999999995","{""judgement"":1}","[0]","survey-likert","369","929703","0.0-369.0","smnfj5yg","","","","","","","","1"
"1210.1749999999302","{""confidence"":3}","[0]","survey-likert","370","930914","0.0-370.0","smnfj5yg","","","","","","","",""
"","","","call-function","371","930914","0.0-371.0","smnfj5yg","","","","","","","",""
"null","","","html-keyboard-response","372","932416","0.0-372.0","smnfj5yg","","<span style=""color:Black; font-size:50px;"">Agent A","null","","","","",""
"null","","","video-keyboard-response","373","935189","0.0-373.0","smnfj5yg","","","null","","Agent A","veridical","FOR_REV_MAP_BLOBBY_STIM/1592747.bmp_pp53_L2_V1.0_veridical_freeview_isoTrue_fps144.mp4",""
"null","","","html-keyboard-response","374","936694","0.0-374.0","smnfj5yg","","<span style=""color:Black; font-size:50px;"">Agent B","null","","","","",""
"null","","","video-keyboard-response","375","939466","0.0-375.0","smnfj5yg","","","null","","Agent B","scrambled","FOR_REV_MAP_BLOBBY_STIM/1592747.bmp_pp53_L2_V1.0_veridical_freeview_isoTrue_fps144_reversed_REAL.mp4",""
"","","","call-function","376","939466","0.0-376.0","smnfj5yg","","","","","","","",""
"9381.38500000001","{""judgement"":1}","[0]","survey-likert","377","948849","0.0-377.0","smnfj5yg","","","","","","","","0"
"1517.0650000000605","{""confidence"":3}","[0]","survey-likert","378","950367","0.0-378.0","smnfj5yg","","","","","","","",""
"","","","call-function","379","950367","0.0-379.0","smnfj5yg","","","","","","","",""
"null","","","html-keyboard-response","380","951869","0.0-380.0","smnfj5yg","","<span style=""color:Black; font-size:50px;"">Agent A","null","","","","",""
"null","","","video-keyboard-response","381","954730","0.0-381.0","smnfj5yg","","","null","","Agent A","scrambled","FOR_REV_MAP_BLOBBY_STIM/713381.bmp_pp82_L2_V1.0_veridical_freeview_isoTrue_fps144_reversed_REAL.mp4",""
"null","","","html-keyboard-response","382","956235","0.0-382.0","smnfj5yg","","<span style=""color:Black; font-size:50px;"">Agent B","null","","","","",""
"null","","","video-keyboard-response","383","959077","0.0-383.0","smnfj5yg","","","null","","Agent B","veridical","FOR_REV_MAP_BLOBBY_STIM/713381.bmp_pp82_L2_V1.0_veridical_freeview_isoTrue_fps144.mp4",""
"","","","call-function","384","959078","0.0-384.0","smnfj5yg","","","","","","","",""
"8808","{""judgement"":0}","[0]","survey-likert","385","967887","0.0-385.0","smnfj5yg","","","","","","","","1"
"4416.969999999972","{""confidence"":3}","[0]","survey-likert","386","972305","0.0-386.0","smnfj5yg","","","","","","","",""
"","","","call-function","387","972305","0.0-387.0","smnfj5yg","","","","","","","",""
"null","","","html-keyboard-response","388","973808","0.0-388.0","smnfj5yg","","<span style=""color:Black; font-size:50px;"">Agent A","null","","","","",""
"null","","","video-keyboard-response","389","976480","0.0-389.0","smnfj5yg","","","null","","Agent A","veridical","FOR_REV_MAP_BLOBBY_STIM/713788.bmp_pp52_L1_V1.0_veridical_freeview_isoTrue_fps144.mp4",""
"null","","","html-keyboard-response","390","977985","0.0-390.0","smnfj5yg","","<span style=""color:Black; font-size:50px;"">Agent B","null","","","","",""
"null","","","video-keyboard-response","391","980661","0.0-391.0","smnfj5yg","","","null","","Agent B","scrambled","FOR_REV_MAP_BLOBBY_STIM/713788.bmp_pp52_L1_V1.0_veridical_freeview_isoTrue_fps144_reversed_REAL.mp4",""
"","","","call-function","392","980661","0.0-392.0","smnfj5yg","","","","","","","",""
"24123.44499999995","{""judgement"":0}","[0]","survey-likert","393","1004786","0.0-393.0","smnfj5yg","","","","","","","","0"
"1413.265000000014","{""confidence"":1}","[0]","survey-likert","394","1006200","0.0-394.0","smnfj5yg","","","","","","","",""
"","","","call-function","395","1006200","0.0-395.0","smnfj5yg","","","","","","","",""
"null","","","html-keyboard-response","396","1007702","0.0-396.0","smnfj5yg","","<span style=""color:Black; font-size:50px;"">Agent A","null","","","","",""
"null","","","video-keyboard-response","397","1010493","0.0-397.0","smnfj5yg","","","null","","Agent A","scrambled","FOR_REV_MAP_BLOBBY_STIM/107909.bmp_pp95_L2_V1.0_veridical_freeview_isoTrue_fps144_reversed_REAL.mp4",""
"null","","","html-keyboard-response","398","1011995","0.0-398.0","smnfj5yg","","<span style=""color:Black; font-size:50px;"">Agent B","null","","","","",""
"null","","","video-keyboard-response","399","1014787","0.0-399.0","smnfj5yg","","","null","","Agent B","veridical","FOR_REV_MAP_BLOBBY_STIM/107909.bmp_pp95_L2_V1.0_veridical_freeview_isoTrue_fps144.mp4",""
"","","","call-function","400","1014787","0.0-400.0","smnfj5yg","","","","","","","",""
"4900.459999999963","{""judgement"":1}","[0]","survey-likert","401","1019689","0.0-401.0","smnfj5yg","","","","","","","","1"
"1910.2099999999627","{""confidence"":1}","[0]","survey-likert","402","1021600","0.0-402.0","smnfj5yg","","","","","","","",""
"","","","call-function","403","1021600","0.0-403.0","smnfj5yg","","","","","","","",""
"null","","","html-keyboard-response","404","1023105","0.0-404.0","smnfj5yg","","<span style=""color:Black; font-size:50px;"">Agent A","null","","","","",""
"null","","","video-keyboard-response","405","1025948","0.0-405.0","smnfj5yg","","","null","","Agent A","veridical","FOR_REV_MAP_BLOBBY_STIM/1159508.bmp_pp151_L1_V1.0_veridical_freeview_isoTrue_fps144.mp4",""
"null","","","html-keyboard-response","406","1027452","0.0-406.0","smnfj5yg","","<span style=""color:Black; font-size:50px;"">Agent B","null","","","","",""
"null","","","video-keyboard-response","407","1030294","0.0-407.0","smnfj5yg","","","null","","Agent B","scrambled","FOR_REV_MAP_BLOBBY_STIM/1159508.bmp_pp151_L1_V1.0_veridical_freeview_isoTrue_fps144_reversed_REAL.mp4",""
"","","","call-function","408","1030295","0.0-408.0","smnfj5yg","","","","","","","",""
"5811.7949999999255","{""judgement"":0}","[0]","survey-likert","409","1036108","0.0-409.0","smnfj5yg","","","","","","","","0"
"1614.1599999999162","{""confidence"":3}","[0]","survey-likert","410","1037724","0.0-410.0","smnfj5yg","","","","","","","",""
"","","","call-function","411","1037725","0.0-411.0","smnfj5yg","","","","","","","",""
"null","","","html-keyboard-response","412","1039232","0.0-412.0","smnfj5yg","","<span style=""color:Black; font-size:50px;"">Agent A","null","","","","",""
"null","","","video-keyboard-response","413","1041995","0.0-413.0","smnfj5yg","","","null","","Agent A","veridical","FOR_REV_MAP_BLOBBY_STIM/150277.bmp_pp65_L3_V1.0_veridical_freeview_isoTrue_fps144.mp4",""
"null","","","html-keyboard-response","414","1043498","0.0-414.0","smnfj5yg","","<span style=""color:Black; font-size:50px;"">Agent B","null","","","","",""
"null","","","video-keyboard-response","415","1046266","0.0-415.0","smnfj5yg","","","null","","Agent B","scrambled","FOR_REV_MAP_BLOBBY_STIM/150277.bmp_pp65_L3_V1.0_veridical_freeview_isoTrue_fps144_reversed_REAL.mp4",""
"","","","call-function","416","1046267","0.0-416.0","smnfj5yg","","","","","","","",""
"1313.579999999958","{""judgement"":0}","[0]","survey-likert","417","1047581","0.0-417.0","smnfj5yg","","","","","","","","0"
"1539.615000000107","{""confidence"":3}","[0]","survey-likert","418","1049122","0.0-418.0","smnfj5yg","","","","","","","",""
"3107.9850000001024","","","instructions","419","1052231","0.0-419.0","smnfj5yg","[{""page_index"":0,""viewing_time"":1507.9150000000373},{""page_index"":1,""viewing_time"":827.035000000149},{""page_index"":2,""viewing_time"":772.8799999998882}]","","","","","","",""
"3199.6100000001024","","","instructions","420","1055431","0.0-420.0","smnfj5yg","[{""page_index"":0,""viewing_time"":502.48500000010245},{""page_index"":1,""viewing_time"":2131.024999999907},{""page_index"":2,""viewing_time"":565.9950000001118}]","","","","","","",""
"","","","call-function","421","1055431","0.0-421.0","smnfj5yg","","","","","","","",""
"null","","","html-keyboard-response","422","1056934","0.0-422.0","smnfj5yg","","<span style=""color:Black; font-size:50px;"">Agent A","null","","","","",""
"null","","","video-keyboard-response","423","1059728","0.0-423.0","smnfj5yg","","","null","","Agent A","veridical","FOR_REV_MAP_BLOBBY_STIM/1592305.bmp_pp65_L3_V1.0_veridical_freeview_isoTrue_fps144.mp4",""
"null","","","html-keyboard-response","424","1061231","0.0-424.0","smnfj5yg","","<span style=""color:Black; font-size:50px;"">Agent B","null","","","","",""
"null","","","video-keyboard-response","425","1064022","0.0-425.0","smnfj5yg","","","null","","Agent B","scrambled","FOR_REV_MAP_BLOBBY_STIM/1592305.bmp_pp65_L3_V1.0_veridical_freeview_isoTrue_fps144_reversed_REAL.mp4",""
"","","","call-function","426","1064022","0.0-426.0","smnfj5yg","","","","","","","",""
"2677.0450000001583","{""judgement"":0}","[0]","survey-likert","427","1066700","0.0-427.0","smnfj5yg","","","","","","","","0"
"1337.780000000028","{""confidence"":3}","[0]","survey-likert","428","1068039","0.0-428.0","smnfj5yg","","","","","","","",""
"","","","call-function","429","1068039","0.0-429.0","smnfj5yg","","","","","","","",""
"null","","","html-keyboard-response","430","1069542","0.0-430.0","smnfj5yg","","<span style=""color:Black; font-size:50px;"">Agent A","null","","","","",""
"null","","","video-keyboard-response","431","1072376","0.0-431.0","smnfj5yg","","","null","","Agent A","veridical","FOR_REV_MAP_BLOBBY_STIM/713920.bmp_pp76_L1_V1.0_veridical_freeview_isoTrue_fps144.mp4",""
"null","","","html-keyboard-response","432","1073880","0.0-432.0","smnfj5yg","","<span style=""color:Black; font-size:50px;"">Agent B","null","","","","",""
"null","","","video-keyboard-response","433","1076710","0.0-433.0","smnfj5yg","","","null","","Agent B","scrambled","FOR_REV_MAP_BLOBBY_STIM/713920.bmp_pp76_L1_V1.0_veridical_freeview_isoTrue_fps144_reversed_REAL.mp4",""
"","","","call-function","434","1076710","0.0-434.0","smnfj5yg","","","","","","","",""
"1752.8199999998324","{""judgement"":1}","[0]","survey-likert","435","1078464","0.0-435.0","smnfj5yg","","","","","","","","0"
"1619.7749999999069","{""confidence"":3}","[0]","survey-likert","436","1080085","0.0-436.0","smnfj5yg","","","","","","","",""
"","","","call-function","437","1080085","0.0-437.0","smnfj5yg","","","","","","","",""
"null","","","html-keyboard-response","438","1081589","0.0-438.0","smnfj5yg","","<span style=""color:Black; font-size:50px;"">Agent A","null","","","","",""
"null","","","video-keyboard-response","439","1084422","0.0-439.0","smnfj5yg","","","null","","Agent A","veridical","FOR_REV_MAP_BLOBBY_STIM/1591781.bmp_pp63_L1_V1.0_veridical_freeview_isoTrue_fps144.mp4",""
"null","","","html-keyboard-response","440","1085926","0.0-440.0","smnfj5yg","","<span style=""color:Black; font-size:50px;"">Agent B","null","","","","",""
"null","","","video-keyboard-response","441","1088736","0.0-441.0","smnfj5yg","","","null","","Agent B","scrambled","FOR_REV_MAP_BLOBBY_STIM/1591781.bmp_pp63_L1_V1.0_veridical_freeview_isoTrue_fps144_reversed_REAL.mp4",""
"","","","call-function","442","1088736","0.0-442.0","smnfj5yg","","","","","","","",""
"22110.01000000001","{""judgement"":1}","[0]","survey-likert","443","1110848","0.0-443.0","smnfj5yg","","","","","","","","0"
"1237.4899999999907","{""confidence"":2}","[0]","survey-likert","444","1112086","0.0-444.0","smnfj5yg","","","","","","","",""
"","","","call-function","445","1112087","0.0-445.0","smnfj5yg","","","","","","","",""
"null","","","html-keyboard-response","446","1113589","0.0-446.0","smnfj5yg","","<span style=""color:Black; font-size:50px;"">Agent A","null","","","","",""
"null","","","video-keyboard-response","447","1116544","0.0-447.0","smnfj5yg","","","null","","Agent A","veridical","FOR_REV_MAP_BLOBBY_STIM/713829.bmp_pp60_L3_V1.0_veridical_freeview_isoTrue_fps144.mp4",""
"null","","","html-keyboard-response","448","1118048","0.0-448.0","smnfj5yg","","<span style=""color:Black; font-size:50px;"">Agent B","null","","","","",""
"null","","","video-keyboard-response","449","1120878","0.0-449.0","smnfj5yg","","","null","","Agent B","scrambled","FOR_REV_MAP_BLOBBY_STIM/713829.bmp_pp60_L3_V1.0_veridical_freeview_isoTrue_fps144_reversed_REAL.mp4",""
"","","","call-function","450","1120878","0.0-450.0","smnfj5yg","","","","","","","",""
"1903.1299999998882","{""judgement"":0}","[0]","survey-likert","451","1122782","0.0-451.0","smnfj5yg","","","","","","","","0"
"2262.725000000093","{""confidence"":3}","[0]","survey-likert","452","1125046","0.0-452.0","smnfj5yg","","","","","","","",""
"","","","call-function","453","1125047","0.0-453.0","smnfj5yg","","","","","","","",""
"null","","","html-keyboard-response","454","1126549","0.0-454.0","smnfj5yg","","<span style=""color:Black; font-size:50px;"">Agent A","null","","","","",""
"null","","","video-keyboard-response","455","1129240","0.0-455.0","smnfj5yg","","","null","","Agent A","veridical","FOR_REV_MAP_BLOBBY_STIM/1592038.bmp_pp79_L2_V1.0_veridical_freeview_isoTrue_fps144.mp4",""
"null","","","html-keyboard-response","456","1130746","0.0-456.0","smnfj5yg","","<span style=""color:Black; font-size:50px;"">Agent B","null","","","","",""
"null","","","video-keyboard-response","457","1133430","0.0-457.0","smnfj5yg","","","null","","Agent B","scrambled","FOR_REV_MAP_BLOBBY_STIM/1592038.bmp_pp79_L2_V1.0_veridical_freeview_isoTrue_fps144_reversed_REAL.mp4",""
"","","","call-function","458","1133430","0.0-458.0","smnfj5yg","","","","","","","",""
"27338.76500000013","{""judgement"":1}","[0]","survey-likert","459","1160770","0.0-459.0","smnfj5yg","","","","","","","","0"
"1429.3100000000559","{""confidence"":2}","[0]","survey-likert","460","1162200","0.0-460.0","smnfj5yg","","","","","","","",""
"","","","call-function","461","1162201","0.0-461.0","smnfj5yg","","","","","","","",""
"null","","","html-keyboard-response","462","1163702","0.0-462.0","smnfj5yg","","<span style=""color:Black; font-size:50px;"">Agent A","null","","","","",""
"null","","","video-keyboard-response","463","1166433","0.0-463.0","smnfj5yg","","","null","","Agent A","veridical","FOR_REV_MAP_BLOBBY_STIM/713858.bmp_pp57_L1_V1.0_veridical_freeview_isoTrue_fps144.mp4",""
"null","","","html-keyboard-response","464","1167937","0.0-464.0","smnfj5yg","","<span style=""color:Black; font-size:50px;"">Agent B","null","","","","",""
"null","","","video-keyboard-response","465","1170641","0.0-465.0","smnfj5yg","","","null","","Agent B","scrambled","FOR_REV_MAP_BLOBBY_STIM/713858.bmp_pp57_L1_V1.0_veridical_freeview_isoTrue_fps144_reversed_REAL.mp4",""
"","","","call-function","466","1170642","0.0-466.0","smnfj5yg","","","","","","","",""
"6272.844999999972","{""judgement"":0}","[0]","survey-likert","467","1176916","0.0-467.0","smnfj5yg","","","","","","","","0"
"843.4950000001118","{""confidence"":1}","[0]","survey-likert","468","1177760","0.0-468.0","smnfj5yg","","","","","","","",""
"","","","call-function","469","1177761","0.0-469.0","smnfj5yg","","","","","","","",""
"null","","","html-keyboard-response","470","1179263","0.0-470.0","smnfj5yg","","<span style=""color:Black; font-size:50px;"">Agent A","null","","","","",""
"null","","","video-keyboard-response","471","1182112","0.0-471.0","smnfj5yg","","","null","","Agent A","scrambled","FOR_REV_MAP_BLOBBY_STIM/1592201.bmp_pp97_L3_V1.0_veridical_freeview_isoTrue_fps144_reversed_REAL.mp4",""
"null","","","html-keyboard-response","472","1183617","0.0-472.0","smnfj5yg","","<span style=""color:Black; font-size:50px;"">Agent B","null","","","","",""
"null","","","video-keyboard-response","473","1186468","0.0-473.0","smnfj5yg","","","null","","Agent B","veridical","FOR_REV_MAP_BLOBBY_STIM/1592201.bmp_pp97_L3_V1.0_veridical_freeview_isoTrue_fps144.mp4",""
"","","","call-function","474","1186469","0.0-474.0","smnfj5yg","","","","","","","",""
"13736.98999999999","{""judgement"":0}","[0]","survey-likert","475","1200208","0.0-475.0","smnfj5yg","","","","","","","","1"
"2290.125","{""confidence"":2}","[0]","survey-likert","476","1202500","0.0-476.0","smnfj5yg","","","","","","","",""
"","","","call-function","477","1202501","0.0-477.0","smnfj5yg","","","","","","","",""
"null","","","html-keyboard-response","478","1204006","0.0-478.0","smnfj5yg","","<span style=""color:Black; font-size:50px;"">Agent A","null","","","","",""
"null","","","video-keyboard-response","479","1206806","0.0-479.0","smnfj5yg","","","null","","Agent A","scrambled","FOR_REV_MAP_BLOBBY_STIM/1592530.bmp_pp75_L1_V1.0_veridical_freeview_isoTrue_fps144_reversed_REAL.mp4",""
"null","","","html-keyboard-response","480","1208311","0.0-480.0","smnfj5yg","","<span style=""color:Black; font-size:50px;"">Agent B","null","","","","",""
"null","","","video-keyboard-response","481","1211111","0.0-481.0","smnfj5yg","","","null","","Agent B","veridical","FOR_REV_MAP_BLOBBY_STIM/1592530.bmp_pp75_L1_V1.0_veridical_freeview_isoTrue_fps144.mp4",""
"","","","call-function","482","1211112","0.0-482.0","smnfj5yg","","","","","","","",""
"6044.600000000093","{""judgement"":0}","[0]","survey-likert","483","1217157","0.0-483.0","smnfj5yg","","","","","","","","1"
"1221.3600000001024","{""confidence"":0}","[0]","survey-likert","484","1218380","0.0-484.0","smnfj5yg","","","","","","","",""
"","","","call-function","485","1218380","0.0-485.0","smnfj5yg","","","","","","","",""
"null","","","html-keyboard-response","486","1219882","0.0-486.0","smnfj5yg","","<span style=""color:Black; font-size:50px;"">Agent A","null","","","","",""
"null","","","video-keyboard-response","487","1222657","0.0-487.0","smnfj5yg","","","null","","Agent A","scrambled","FOR_REV_MAP_BLOBBY_STIM/1159860.bmp_pp152_L2_V1.0_veridical_freeview_isoTrue_fps144_reversed_REAL.mp4",""
"null","","","html-keyboard-response","488","1224160","0.0-488.0","smnfj5yg","","<span style=""color:Black; font-size:50px;"">Agent B","null","","","","",""
"null","","","video-keyboard-response","489","1226930","0.0-489.0","smnfj5yg","","","null","","Agent B","veridical","FOR_REV_MAP_BLOBBY_STIM/1159860.bmp_pp152_L2_V1.0_veridical_freeview_isoTrue_fps144.mp4",""
"","","","call-function","490","1226931","0.0-490.0","smnfj5yg","","","","","","","",""
"1325.25","{""judgement"":1}","[0]","survey-likert","491","1228257","0.0-491.0","smnfj5yg","","","","","","","","1"
"1045.9150000000373","{""confidence"":3}","[0]","survey-likert","492","1229304","0.0-492.0","smnfj5yg","","","","","","","",""
"","","","call-function","493","1229304","0.0-493.0","smnfj5yg","","","","","","","",""
"null","","","html-keyboard-response","494","1230806","0.0-494.0","smnfj5yg","","<span style=""color:Black; font-size:50px;"">Agent A","null","","","","",""
"null","","","video-keyboard-response","495","1233681","0.0-495.0","smnfj5yg","","","null","","Agent A","veridical","FOR_REV_MAP_BLOBBY_STIM/1160189.bmp_pp64_L1_V1.0_veridical_freeview_isoTrue_fps144.mp4",""
"null","","","html-keyboard-response","496","1235185","0.0-496.0","smnfj5yg","","<span style=""color:Black; font-size:50px;"">Agent B","null","","","","",""
"null","","","video-keyboard-response","497","1238056","0.0-497.0","smnfj5yg","","","null","","Agent B","scrambled","FOR_REV_MAP_BLOBBY_STIM/1160189.bmp_pp64_L1_V1.0_veridical_freeview_isoTrue_fps144_reversed_REAL.mp4",""
"","","","call-function","498","1238057","0.0-498.0","smnfj5yg","","","","","","","",""
"7360.729999999981","{""judgement"":1}","[0]","survey-likert","499","1245419","0.0-499.0","smnfj5yg","","","","","","","","0"
"2192.4899999999907","{""confidence"":0}","[0]","survey-likert","500","1247612","0.0-500.0","smnfj5yg","","","","","","","",""
"67246.34499999997","","","instructions","501","1314859","0.0-501.0","smnfj5yg","[{""page_index"":0,""viewing_time"":1775.404999999795},{""page_index"":1,""viewing_time"":63600.75},{""page_index"":2,""viewing_time"":1870.030000000028}]","","","","","","",""
"7850.814999999944","","","instructions","502","1322711","0.0-502.0","smnfj5yg","[{""page_index"":0,""viewing_time"":742.3149999999441},{""page_index"":1,""viewing_time"":6422.070000000065},{""page_index"":2,""viewing_time"":686.3149999999441}]","","","","","","",""
"","","","call-function","503","1322711","0.0-503.0","smnfj5yg","","","","","","","",""
"null","","","html-keyboard-response","504","1324217","0.0-504.0","smnfj5yg","","<span style=""color:Black; font-size:50px;"">Agent A","null","","","","",""
"null","","","video-keyboard-response","505","1327014","0.0-505.0","smnfj5yg","","","null","","Agent A","veridical","FOR_REV_MAP_BLOBBY_STIM/713274.bmp_pp73_L3_V1.0_veridical_freeview_isoTrue_fps144.mp4",""
"null","","","html-keyboard-response","506","1328518","0.0-506.0","smnfj5yg","","<span style=""color:Black; font-size:50px;"">Agent B","null","","","","",""
"null","","","video-keyboard-response","507","1331312","0.0-507.0","smnfj5yg","","","null","","Agent B","scrambled","FOR_REV_MAP_BLOBBY_STIM/713274.bmp_pp73_L3_V1.0_veridical_freeview_isoTrue_fps144_reversed_REAL.mp4",""
"","","","call-function","508","1331312","0.0-508.0","smnfj5yg","","","","","","","",""
"3071.5550000001676","{""judgement"":0}","[0]","survey-likert","509","1334385","0.0-509.0","smnfj5yg","","","","","","","","0"
"1510.5049999998882","{""confidence"":1}","[0]","survey-likert","510","1335896","0.0-510.0","smnfj5yg","","","","","","","",""
"","","","call-function","511","1335897","0.0-511.0","smnfj5yg","","","","","","","",""
"null","","","html-keyboard-response","512","1337403","0.0-512.0","smnfj5yg","","<span style=""color:Black; font-size:50px;"">Agent A","null","","","","",""
"null","","","video-keyboard-response","513","1340230","0.0-513.0","smnfj5yg","","","null","","Agent A","scrambled","FOR_REV_MAP_BLOBBY_STIM/107955.bmp_pp90_L2_V1.0_veridical_freeview_isoTrue_fps144_reversed_REAL.mp4",""
"null","","","html-keyboard-response","514","1341735","0.0-514.0","smnfj5yg","","<span style=""color:Black; font-size:50px;"">Agent B","null","","","","",""
"null","","","video-keyboard-response","515","1344572","0.0-515.0","smnfj5yg","","","null","","Agent B","veridical","FOR_REV_MAP_BLOBBY_STIM/107955.bmp_pp90_L2_V1.0_veridical_freeview_isoTrue_fps144.mp4",""
"","","","call-function","516","1344572","0.0-516.0","smnfj5yg","","","","","","","",""
"5786.979999999981","{""judgement"":0}","[0]","survey-likert","517","1350360","0.0-517.0","smnfj5yg","","","","","","","","1"
"2218.7350000001024","{""confidence"":2}","[0]","survey-likert","518","1352580","0.0-518.0","smnfj5yg","","","","","","","",""
"","","","call-function","519","1352580","0.0-519.0","smnfj5yg","","","","","","","",""
"null","","","html-keyboard-response","520","1354087","0.0-520.0","smnfj5yg","","<span style=""color:Black; font-size:50px;"">Agent A","null","","","","",""
"null","","","video-keyboard-response","521","1356897","0.0-521.0","smnfj5yg","","","null","","Agent A","veridical","FOR_REV_MAP_BLOBBY_STIM/1159392.bmp_pp96_L2_V1.0_veridical_freeview_isoTrue_fps144.mp4",""
"null","","","html-keyboard-response","522","1358401","0.0-522.0","smnfj5yg","","<span style=""color:Black; font-size:50px;"">Agent B","null","","","","",""
"null","","","video-keyboard-response","523","1361211","0.0-523.0","smnfj5yg","","","null","","Agent B","scrambled","FOR_REV_MAP_BLOBBY_STIM/1159392.bmp_pp96_L2_V1.0_veridical_freeview_isoTrue_fps144_reversed_REAL.mp4",""
"","","","call-function","524","1361213","0.0-524.0","smnfj5yg","","","","","","","",""
"8303.880000000121","{""judgement"":1}","[0]","survey-likert","525","1369518","0.0-525.0","smnfj5yg","","","","","","","","0"
"2533.630000000121","{""confidence"":1}","[0]","survey-likert","526","1372054","0.0-526.0","smnfj5yg","","","","","","","",""
"","","","call-function","527","1372055","0.0-527.0","smnfj5yg","","","","","","","",""
"null","","","html-keyboard-response","528","1373561","0.0-528.0","smnfj5yg","","<span style=""color:Black; font-size:50px;"">Agent A","null","","","","",""
"null","","","video-keyboard-response","529","1376327","0.0-529.0","smnfj5yg","","","null","","Agent A","veridical","FOR_REV_MAP_BLOBBY_STIM/1592044.bmp_pp94_L2_V1.0_veridical_freeview_isoTrue_fps144.mp4",""
"null","","","html-keyboard-response","530","1377831","0.0-530.0","smnfj5yg","","<span style=""color:Black; font-size:50px;"">Agent B","null","","","","",""
"null","","","video-keyboard-response","531","1380599","0.0-531.0","smnfj5yg","","","null","","Agent B","scrambled","FOR_REV_MAP_BLOBBY_STIM/1592044.bmp_pp94_L2_V1.0_veridical_freeview_isoTrue_fps144_reversed_REAL.mp4",""
"","","","call-function","532","1380599","0.0-532.0","smnfj5yg","","","","","","","",""
"1455.969999999972","{""judgement"":1}","[0]","survey-likert","533","1382056","0.0-533.0","smnfj5yg","","","","","","","","0"
"1603.344999999972","{""confidence"":1}","[0]","survey-likert","534","1383661","0.0-534.0","smnfj5yg","","","","","","","",""
"","","","call-function","535","1383661","0.0-535.0","smnfj5yg","","","","","","","",""
"null","","","html-keyboard-response","536","1385164","0.0-536.0","smnfj5yg","","<span style=""color:Black; font-size:50px;"">Agent A","null","","","","",""
"null","","","video-keyboard-response","537","1387915","0.0-537.0","smnfj5yg","","","null","","Agent A","scrambled","FOR_REV_MAP_BLOBBY_STIM/1592168.bmp_pp71_L1_V1.0_veridical_freeview_isoTrue_fps144_reversed_REAL.mp4",""
"null","","","html-keyboard-response","538","1389419","0.0-538.0","smnfj5yg","","<span style=""color:Black; font-size:50px;"">Agent B","null","","","","",""
"null","","","video-keyboard-response","539","1392169","0.0-539.0","smnfj5yg","","","null","","Agent B","veridical","FOR_REV_MAP_BLOBBY_STIM/1592168.bmp_pp71_L1_V1.0_veridical_freeview_isoTrue_fps144.mp4",""
"","","","call-function","540","1392169","0.0-540.0","smnfj5yg","","","","","","","",""
"1396.7750000001397","{""judgement"":0}","[0]","survey-likert","541","1393567","0.0-541.0","smnfj5yg","","","","","","","","1"
"1874.5500000000466","{""confidence"":1}","[0]","survey-likert","542","1395443","0.0-542.0","smnfj5yg","","","","","","","",""
"","","","call-function","543","1395443","0.0-543.0","smnfj5yg","","","","","","","",""
"null","","","html-keyboard-response","544","1396946","0.0-544.0","smnfj5yg","","<span style=""color:Black; font-size:50px;"">Agent A","null","","","","",""
"null","","","video-keyboard-response","545","1399729","0.0-545.0","smnfj5yg","","","null","","Agent A","veridical","FOR_REV_MAP_BLOBBY_STIM/1592298.bmp_pp56_L3_V1.0_veridical_freeview_isoTrue_fps144.mp4",""
"null","","","html-keyboard-response","546","1401231","0.0-546.0","smnfj5yg","","<span style=""color:Black; font-size:50px;"">Agent B","null","","","","",""
"null","","","video-keyboard-response","547","1404007","0.0-547.0","smnfj5yg","","","null","","Agent B","scrambled","FOR_REV_MAP_BLOBBY_STIM/1592298.bmp_pp56_L3_V1.0_veridical_freeview_isoTrue_fps144_reversed_REAL.mp4",""
"","","","call-function","548","1404008","0.0-548.0","smnfj5yg","","","","","","","",""
"6626.7050000000745","{""judgement"":0}","[0]","survey-likert","549","1410636","0.0-549.0","smnfj5yg","","","","","","","","0"
"2114.804999999935","{""confidence"":2}","[0]","survey-likert","550","1412752","0.0-550.0","smnfj5yg","","","","","","","",""
"","","","call-function","551","1412753","0.0-551.0","smnfj5yg","","","","","","","",""
"null","","","html-keyboard-response","552","1414257","0.0-552.0","smnfj5yg","","<span style=""color:Black; font-size:50px;"">Agent A","null","","","","",""
"null","","","video-keyboard-response","553","1417072","0.0-553.0","smnfj5yg","","","null","","Agent A","veridical","FOR_REV_MAP_BLOBBY_STIM/1592150.bmp_pp77_L3_V1.0_veridical_freeview_isoTrue_fps144.mp4",""
"null","","","html-keyboard-response","554","1418578","0.0-554.0","smnfj5yg","","<span style=""color:Black; font-size:50px;"">Agent B","null","","","","",""
"null","","","video-keyboard-response","555","1421387","0.0-555.0","smnfj5yg","","","null","","Agent B","scrambled","FOR_REV_MAP_BLOBBY_STIM/1592150.bmp_pp77_L3_V1.0_veridical_freeview_isoTrue_fps144_reversed_REAL.mp4",""
"","","","call-function","556","1421388","0.0-556.0","smnfj5yg","","","","","","","",""
"3643.969999999972","{""judgement"":1}","[0]","survey-likert","557","1425033","0.0-557.0","smnfj5yg","","","","","","","","0"
"2466.715000000084","{""confidence"":2}","[0]","survey-likert","558","1427501","0.0-558.0","smnfj5yg","","","","","","","",""
"","","","call-function","559","1427501","0.0-559.0","smnfj5yg","","","","","","","",""
"null","","","html-keyboard-response","560","1429005","0.0-560.0","smnfj5yg","","<span style=""color:Black; font-size:50px;"">Agent A","null","","","","",""
"null","","","video-keyboard-response","561","1431818","0.0-561.0","smnfj5yg","","","null","","Agent A","scrambled","FOR_REV_MAP_BLOBBY_STIM/713652.bmp_pp89_L1_V1.0_veridical_freeview_isoTrue_fps144_reversed_REAL.mp4",""
"null","","","html-keyboard-response","562","1433324","0.0-562.0","smnfj5yg","","<span style=""color:Black; font-size:50px;"">Agent B","null","","","","",""
"null","","","video-keyboard-response","563","1436139","0.0-563.0","smnfj5yg","","","null","","Agent B","veridical","FOR_REV_MAP_BLOBBY_STIM/713652.bmp_pp89_L1_V1.0_veridical_freeview_isoTrue_fps144.mp4",""
"","","","call-function","564","1436140","0.0-564.0","smnfj5yg","","","","","","","",""
"2638.9150000000373","{""judgement"":1}","[0]","survey-likert","565","1438781","0.0-565.0","smnfj5yg","","","","","","","","1"
"1025.344999999972","{""confidence"":3}","[0]","survey-likert","566","1439808","0.0-566.0","smnfj5yg","","","","","","","",""
"","","","call-function","567","1439808","0.0-567.0","smnfj5yg","","","","","","","",""
"null","","","html-keyboard-response","568","1441312","0.0-568.0","smnfj5yg","","<span style=""color:Black; font-size:50px;"">Agent A","null","","","","",""
"null","","","video-keyboard-response","569","1444183","0.0-569.0","smnfj5yg","","","null","","Agent A","scrambled","FOR_REV_MAP_BLOBBY_STIM/498261.bmp_pp84_L3_V1.0_veridical_freeview_isoTrue_fps144_reversed_REAL.mp4",""
"null","","","html-keyboard-response","570","1445687","0.0-570.0","smnfj5yg","","<span style=""color:Black; font-size:50px;"">Agent B","null","","","","",""
"null","","","video-keyboard-response","571","1448533","0.0-571.0","smnfj5yg","","","null","","Agent B","veridical","FOR_REV_MAP_BLOBBY_STIM/498261.bmp_pp84_L3_V1.0_veridical_freeview_isoTrue_fps144.mp4",""
"","","","call-function","572","1448534","0.0-572.0","smnfj5yg","","","","","","","",""
"3090.25","{""judgement"":0}","[0]","survey-likert","573","1451625","0.0-573.0","smnfj5yg","","","","","","","","1"
"1140.3650000002235","{""confidence"":1}","[0]","survey-likert","574","1452767","0.0-574.0","smnfj5yg","","","","","","","",""
"","","","call-function","575","1452767","0.0-575.0","smnfj5yg","","","","","","","",""
"null","","","html-keyboard-response","576","1454273","0.0-576.0","smnfj5yg","","<span style=""color:Black; font-size:50px;"">Agent A","null","","","","",""
"null","","","video-keyboard-response","577","1457031","0.0-577.0","smnfj5yg","","","null","","Agent A","veridical","FOR_REV_MAP_BLOBBY_STIM/1592047.bmp_pp51_L1_V1.0_veridical_freeview_isoTrue_fps144.mp4",""
"null","","","html-keyboard-response","578","1458535","0.0-578.0","smnfj5yg","","<span style=""color:Black; font-size:50px;"">Agent B","null","","","","",""
"null","","","video-keyboard-response","579","1461296","0.0-579.0","smnfj5yg","","","null","","Agent B","scrambled","FOR_REV_MAP_BLOBBY_STIM/1592047.bmp_pp51_L1_V1.0_veridical_freeview_isoTrue_fps144_reversed_REAL.mp4",""
"","","","call-function","580","1461297","0.0-580.0","smnfj5yg","","","","","","","",""
"1290.3349999999627","{""judgement"":1}","[0]","survey-likert","581","1462588","0.0-581.0","smnfj5yg","","","","","","","","0"
"967.8500000000931","{""confidence"":3}","[0]","survey-likert","582","1463557","0.0-582.0","smnfj5yg","","","","","","","",""
"2412.695000000065","","","instructions","583","1465970","0.0-583.0","smnfj5yg","[{""page_index"":0,""viewing_time"":2412.554999999935}]","","","","","","",""
"1906.1200000001118","","","instructions","584","1467877","0.0-584.0","smnfj5yg","[{""page_index"":0,""viewing_time"":1906.0150000001304}]","","","","","","",""
"21759.685000000056","{""post-1"":1}","[0]","survey-likert","585","1489638","0.0-585.0","smnfj5yg","","","","","","","",""
"11229.409999999916","{""post-1"":0}","[0]","survey-likert","586","1500869","0.0-586.0","smnfj5yg","","","","","","","",""
"21161.575000000186","{""post-2"":1}","[0]","survey-likert","587","1522033","0.0-587.0","smnfj5yg","","","","","","","",""
"2134.5100000000093","{""post-2"":0}","[0]","survey-likert","588","1524170","0.0-588.0","smnfj5yg","","","","","","","",""
"9971.405000000028","{""post-3"":2}","[0]","survey-likert","589","1534143","0.0-589.0","smnfj5yg","","","","","","","",""
"4225.5449999999255","{""post-3"":1}","[0]","survey-likert","590","1538370","0.0-590.0","smnfj5yg","","","","","","","",""
"7392.465000000084","{""post-4"":2}","[0]","survey-likert","591","1545764","0.0-591.0","smnfj5yg","","","","","","","",""
"3789","{""post-4"":0}","[0]","survey-likert","592","1549554","0.0-592.0","smnfj5yg","","","","","","","",""
"10580.664999999804","{""post-5"":1}","[0]","survey-likert","593","1560136","0.0-593.0","smnfj5yg","","","","","","","",""
"2202.8799999998882","{""post-5"":2}","[0]","survey-likert","594","1562340","0.0-594.0","smnfj5yg","","","","","","","",""
"147218.9750000001","{""Q0"":""Sometimes it was difficult to remember which videos were which after tracing both patterns in my head to see which felt more human. It would have been helpful to have the option to replay them so I wouldn't accidentally mix agent a/b up.""}","","survey-text","595","1709565","0.0-595.0","smnfj5yg","","","","","","","",""
"154197.04499999993","{""Q0"":""I noticed when B was just a reverse of A. I thought that most of the time, if it went from left to right then that was the correct answer. Sometimes that's not the case on a few other factors (like how long you look at something-- I think you would focus on the important thing for longer before looking around a bit). I would say those examples were the easiest.""}","","survey-text","596","1863767","0.0-596.0","smnfj5yg","","","","","","","",""
"46929.48999999999","{""Q0"":""I couldn't remember which agents were which on some of the ones I took longer to think about on/those that I chose to retrace myself.""}","","survey-text","597","1910701","0.0-597.0","smnfj5yg","","","","","","","",""
"1766.4199999999255","","","instructions","598","1912468","0.0-598.0","smnfj5yg","[{""page_index"":0,""viewing_time"":1766.2749999999069}]","","","","","","",""
"104250.32500000019","{""Experimenter_end"":[""Printed ID# smnfj5yg on consent form"",""Given subject SONA credit or payment"",""Given the subject debrief form""]}","[0]","survey-multi-select","599","2016721","0.0-599.0","smnfj5yg","","","","","","","",""
