"rt","responses","question_order","trial_type","trial_index","time_elapsed","internal_node_id","ID","view_history","stimulus","key_press","value","agent","condition","image","correct_answer"
"20416.37","{""Experimenter"":[""Confirmed subject's identity (ID card)"",""Confirmed normal or corrected-to-normal vision"",""Obtained consent (signature and date)"",""Checked the test room lighting"",""Checked computer screen lighting"",""Checked distance from screen to chin rest (50cm)"",""Cleaned and adjusted chin rest"",""Counterbalanced the order of the tasks"",""Opened the experiment in Firefox"",""Made the experiment full screen"",""Encouraged subject to silence phone, put away distractors, etc.""]}","[0]","survey-multi-select","0","20426","0.0-0.0","tlolpbpb","","","","","","","",""
"19177.39","","","instructions","1","39605","0.0-1.0","tlolpbpb","[{""page_index"":0,""viewing_time"":19177.235}]","","","","","","",""
"7552.7750000000015","","","instructions","2","47159","0.0-2.0","tlolpbpb","[{""page_index"":0,""viewing_time"":1325.0099999999948},{""page_index"":1,""viewing_time"":3941.720000000001},{""page_index"":2,""viewing_time"":2285.9300000000003}]","","","","","","",""
"2108.5899999999965","","","instructions","3","49268","0.0-3.0","tlolpbpb","[{""page_index"":0,""viewing_time"":2108.479999999996}]","","","","","","",""
"null","","","video-keyboard-response","4","52341","0.0-4.0","tlolpbpb","","","null","","","","",""
"9947.059999999998","","","instructions","5","62289","0.0-5.0","tlolpbpb","[{""page_index"":0,""viewing_time"":1197.9349999999977},{""page_index"":1,""viewing_time"":2542.165000000001},{""page_index"":2,""viewing_time"":645.9449999999997},{""page_index"":3,""viewing_time"":2956.0550000000003},{""page_index"":4,""viewing_time"":2604.834999999999}]","","","","","","",""
"4632.555","","","instructions","6","66922","0.0-6.0","tlolpbpb","[{""page_index"":0,""viewing_time"":4632.424999999996}]","","","","","","",""
"","","","call-function","7","66923","0.0-7.0","tlolpbpb","","","","","","","",""
"null","","","html-keyboard-response","8","68427","0.0-8.0","tlolpbpb","","<span style=""color:Black; font-size:50px;"">Agent A","null","","","","",""
"null","","","video-keyboard-response","9","71187","0.0-9.0","tlolpbpb","","","null","","Agent A","veridical","FOR_REV_BLOBBY_STIM/1591954.bmp_pp62_L2_V1.0_veridical_freeview_isoFalse_fps144.mp4",""
"null","","","html-keyboard-response","10","72693","0.0-10.0","tlolpbpb","","<span style=""color:Black; font-size:50px;"">Agent B","null","","","","",""
"null","","","video-keyboard-response","11","75417","0.0-11.0","tlolpbpb","","","null","","Agent B","scrambled","FOR_REV_BLOBBY_STIM/1591954.bmp_pp62_L2_V1.0_veridical_freeview_isoFalse_fps144_reversed_REAL.mp4",""
"","","","call-function","12","75418","0.0-12.0","tlolpbpb","","","","","","","",""
"1904.604999999996","{""judgement"":0}","[0]","survey-likert","13","77323","0.0-13.0","tlolpbpb","","","","","","","","0"
"1820.0950000000012","{""confidence"":2}","[0]","survey-likert","14","79145","0.0-14.0","tlolpbpb","","","","","","","",""
"","","","call-function","15","79145","0.0-15.0","tlolpbpb","","","","","","","",""
"null","","","html-keyboard-response","16","80646","0.0-16.0","tlolpbpb","","<span style=""color:Black; font-size:50px;"">Agent A","null","","","","",""
"null","","","video-keyboard-response","17","83513","0.0-17.0","tlolpbpb","","","null","","Agent A","veridical","FOR_REV_BLOBBY_STIM/1159447.bmp_pp70_L2_V1.0_veridical_freeview_isoFalse_fps144.mp4",""
"null","","","html-keyboard-response","18","85014","0.0-18.0","tlolpbpb","","<span style=""color:Black; font-size:50px;"">Agent B","null","","","","",""
"null","","","video-keyboard-response","19","87900","0.0-19.0","tlolpbpb","","","null","","Agent B","scrambled","FOR_REV_BLOBBY_STIM/1159447.bmp_pp70_L2_V1.0_veridical_freeview_isoFalse_fps144_reversed_REAL.mp4",""
"","","","call-function","20","87900","0.0-20.0","tlolpbpb","","","","","","","",""
"1607.8300000000017","{""judgement"":0}","[0]","survey-likert","21","89510","0.0-21.0","tlolpbpb","","","","","","","","0"
"1756.3099999999977","{""confidence"":3}","[0]","survey-likert","22","91268","0.0-22.0","tlolpbpb","","","","","","","",""
"","","","call-function","23","91268","0.0-23.0","tlolpbpb","","","","","","","",""
"null","","","html-keyboard-response","24","92770","0.0-24.0","tlolpbpb","","<span style=""color:Black; font-size:50px;"">Agent A","null","","","","",""
"null","","","video-keyboard-response","25","95513","0.0-25.0","tlolpbpb","","","null","","Agent A","veridical","FOR_REV_BLOBBY_STIM/1592817.bmp_pp55_L3_V1.0_veridical_freeview_isoFalse_fps144.mp4",""
"null","","","html-keyboard-response","26","97018","0.0-26.0","tlolpbpb","","<span style=""color:Black; font-size:50px;"">Agent B","null","","","","",""
"null","","","video-keyboard-response","27","99745","0.0-27.0","tlolpbpb","","","null","","Agent B","scrambled","FOR_REV_BLOBBY_STIM/1592817.bmp_pp55_L3_V1.0_veridical_freeview_isoFalse_fps144_reversed_REAL.mp4",""
"","","","call-function","28","99746","0.0-28.0","tlolpbpb","","","","","","","",""
"1912.409999999989","{""judgement"":0}","[0]","survey-likert","29","101659","0.0-29.0","tlolpbpb","","","","","","","","0"
"1847.6649999999936","{""confidence"":2}","[0]","survey-likert","30","103508","0.0-30.0","tlolpbpb","","","","","","","",""
"","","","call-function","31","103508","0.0-31.0","tlolpbpb","","","","","","","",""
"null","","","html-keyboard-response","32","105011","0.0-32.0","tlolpbpb","","<span style=""color:Black; font-size:50px;"">Agent A","null","","","","",""
"null","","","video-keyboard-response","33","107764","0.0-33.0","tlolpbpb","","","null","","Agent A","scrambled","FOR_REV_BLOBBY_STIM/285933.bmp_pp81_L1_V1.0_veridical_freeview_isoFalse_fps144_reversed_REAL.mp4",""
"null","","","html-keyboard-response","34","109268","0.0-34.0","tlolpbpb","","<span style=""color:Black; font-size:50px;"">Agent B","null","","","","",""
"null","","","video-keyboard-response","35","111998","0.0-35.0","tlolpbpb","","","null","","Agent B","veridical","FOR_REV_BLOBBY_STIM/285933.bmp_pp81_L1_V1.0_veridical_freeview_isoFalse_fps144.mp4",""
"","","","call-function","36","111999","0.0-36.0","tlolpbpb","","","","","","","",""
"1395.3450000000012","{""judgement"":0}","[0]","survey-likert","37","113395","0.0-37.0","tlolpbpb","","","","","","","","1"
"2542.439999999988","{""confidence"":0}","[0]","survey-likert","38","115939","0.0-38.0","tlolpbpb","","","","","","","",""
"","","","call-function","39","115940","0.0-39.0","tlolpbpb","","","","","","","",""
"null","","","html-keyboard-response","40","117443","0.0-40.0","tlolpbpb","","<span style=""color:Black; font-size:50px;"">Agent A","null","","","","",""
"null","","","video-keyboard-response","41","120241","0.0-41.0","tlolpbpb","","","null","","Agent A","veridical","FOR_REV_BLOBBY_STIM/713681.bmp_pp86_L2_V1.0_veridical_freeview_isoFalse_fps144.mp4",""
"null","","","html-keyboard-response","42","121748","0.0-42.0","tlolpbpb","","<span style=""color:Black; font-size:50px;"">Agent B","null","","","","",""
"null","","","video-keyboard-response","43","124530","0.0-43.0","tlolpbpb","","","null","","Agent B","scrambled","FOR_REV_BLOBBY_STIM/713681.bmp_pp86_L2_V1.0_veridical_freeview_isoFalse_fps144_reversed_REAL.mp4",""
"","","","call-function","44","124531","0.0-44.0","tlolpbpb","","","","","","","",""
"1017.2350000000006","{""judgement"":0}","[0]","survey-likert","45","125549","0.0-45.0","tlolpbpb","","","","","","","","0"
"1562.3099999999977","{""confidence"":3}","[0]","survey-likert","46","127112","0.0-46.0","tlolpbpb","","","","","","","",""
"","","","call-function","47","127113","0.0-47.0","tlolpbpb","","","","","","","",""
"null","","","html-keyboard-response","48","128615","0.0-48.0","tlolpbpb","","<span style=""color:Black; font-size:50px;"">Agent A","null","","","","",""
"null","","","video-keyboard-response","49","131464","0.0-49.0","tlolpbpb","","","null","","Agent A","veridical","FOR_REV_BLOBBY_STIM/497950.bmp_pp151_L1_V1.0_veridical_freeview_isoFalse_fps144.mp4",""
"null","","","html-keyboard-response","50","132967","0.0-50.0","tlolpbpb","","<span style=""color:Black; font-size:50px;"">Agent B","null","","","","",""
"null","","","video-keyboard-response","51","135831","0.0-51.0","tlolpbpb","","","null","","Agent B","scrambled","FOR_REV_BLOBBY_STIM/497950.bmp_pp151_L1_V1.0_veridical_freeview_isoFalse_fps144_reversed_REAL.mp4",""
"","","","call-function","52","135831","0.0-52.0","tlolpbpb","","","","","","","",""
"1368.8649999999907","{""judgement"":1}","[0]","survey-likert","53","137201","0.0-53.0","tlolpbpb","","","","","","","","0"
"1575.7600000000093","{""confidence"":0}","[0]","survey-likert","54","138778","0.0-54.0","tlolpbpb","","","","","","","",""
"","","","call-function","55","138778","0.0-55.0","tlolpbpb","","","","","","","",""
"null","","","html-keyboard-response","56","140280","0.0-56.0","tlolpbpb","","<span style=""color:Black; font-size:50px;"">Agent A","null","","","","",""
"null","","","video-keyboard-response","57","143180","0.0-57.0","tlolpbpb","","","null","","Agent A","veridical","FOR_REV_BLOBBY_STIM/713089.bmp_pp60_L3_V1.0_veridical_freeview_isoFalse_fps144.mp4",""
"null","","","html-keyboard-response","58","144685","0.0-58.0","tlolpbpb","","<span style=""color:Black; font-size:50px;"">Agent B","null","","","","",""
"null","","","video-keyboard-response","59","147567","0.0-59.0","tlolpbpb","","","null","","Agent B","scrambled","FOR_REV_BLOBBY_STIM/713089.bmp_pp60_L3_V1.0_veridical_freeview_isoFalse_fps144_reversed_REAL.mp4",""
"","","","call-function","60","147568","0.0-60.0","tlolpbpb","","","","","","","",""
"1939.8699999999953","{""judgement"":0}","[0]","survey-likert","61","149508","0.0-61.0","tlolpbpb","","","","","","","","0"
"1410.2950000000128","{""confidence"":3}","[0]","survey-likert","62","150920","0.0-62.0","tlolpbpb","","","","","","","",""
"","","","call-function","63","150920","0.0-63.0","tlolpbpb","","","","","","","",""
"null","","","html-keyboard-response","64","152425","0.0-64.0","tlolpbpb","","<span style=""color:Black; font-size:50px;"">Agent A","null","","","","",""
"null","","","video-keyboard-response","65","155259","0.0-65.0","tlolpbpb","","","null","","Agent A","scrambled","FOR_REV_BLOBBY_STIM/498175.bmp_pp154_L1_V1.0_veridical_freeview_isoFalse_fps144_reversed_REAL.mp4",""
"null","","","html-keyboard-response","66","156761","0.0-66.0","tlolpbpb","","<span style=""color:Black; font-size:50px;"">Agent B","null","","","","",""
"null","","","video-keyboard-response","67","159592","0.0-67.0","tlolpbpb","","","null","","Agent B","veridical","FOR_REV_BLOBBY_STIM/498175.bmp_pp154_L1_V1.0_veridical_freeview_isoFalse_fps144.mp4",""
"","","","call-function","68","159593","0.0-68.0","tlolpbpb","","","","","","","",""
"1788.6749999999884","{""judgement"":1}","[0]","survey-likert","69","161382","0.0-69.0","tlolpbpb","","","","","","","","1"
"1825.7400000000198","{""confidence"":3}","[0]","survey-likert","70","163209","0.0-70.0","tlolpbpb","","","","","","","",""
"","","","call-function","71","163210","0.0-71.0","tlolpbpb","","","","","","","",""
"null","","","html-keyboard-response","72","164714","0.0-72.0","tlolpbpb","","<span style=""color:Black; font-size:50px;"">Agent A","null","","","","",""
"null","","","video-keyboard-response","73","167279","0.0-73.0","tlolpbpb","","","null","","Agent A","scrambled","FOR_REV_BLOBBY_STIM/1159813.bmp_pp79_L2_V1.0_veridical_freeview_isoFalse_fps144_reversed_REAL.mp4",""
"null","","","html-keyboard-response","74","168784","0.0-74.0","tlolpbpb","","<span style=""color:Black; font-size:50px;"">Agent B","null","","","","",""
"null","","","video-keyboard-response","75","171354","0.0-75.0","tlolpbpb","","","null","","Agent B","veridical","FOR_REV_BLOBBY_STIM/1159813.bmp_pp79_L2_V1.0_veridical_freeview_isoFalse_fps144.mp4",""
"","","","call-function","76","171354","0.0-76.0","tlolpbpb","","","","","","","",""
"2026.9800000000105","{""judgement"":0}","[0]","survey-likert","77","173382","0.0-77.0","tlolpbpb","","","","","","","","1"
"1095.6700000000128","{""confidence"":0}","[0]","survey-likert","78","174479","0.0-78.0","tlolpbpb","","","","","","","",""
"","","","call-function","79","174479","0.0-79.0","tlolpbpb","","","","","","","",""
"null","","","html-keyboard-response","80","175982","0.0-80.0","tlolpbpb","","<span style=""color:Black; font-size:50px;"">Agent A","null","","","","",""
"null","","","video-keyboard-response","81","178652","0.0-81.0","tlolpbpb","","","null","","Agent A","veridical","FOR_REV_BLOBBY_STIM/713211.bmp_pp100_L3_V1.0_veridical_freeview_isoFalse_fps144.mp4",""
"null","","","html-keyboard-response","82","180153","0.0-82.0","tlolpbpb","","<span style=""color:Black; font-size:50px;"">Agent B","null","","","","",""
"null","","","video-keyboard-response","83","182898","0.0-83.0","tlolpbpb","","","null","","Agent B","scrambled","FOR_REV_BLOBBY_STIM/713211.bmp_pp100_L3_V1.0_veridical_freeview_isoFalse_fps144_reversed_REAL.mp4",""
"","","","call-function","84","182898","0.0-84.0","tlolpbpb","","","","","","","",""
"1852.070000000007","{""judgement"":0}","[0]","survey-likert","85","184751","0.0-85.0","tlolpbpb","","","","","","","","0"
"1256.2600000000093","{""confidence"":2}","[0]","survey-likert","86","186008","0.0-86.0","tlolpbpb","","","","","","","",""
"10378.24000000002","","","instructions","87","196388","0.0-87.0","tlolpbpb","[{""page_index"":0,""viewing_time"":9627.450000000012},{""page_index"":1,""viewing_time"":476.6900000000023},{""page_index"":2,""viewing_time"":273.8949999999895}]","","","","","","",""
"1398.75","","","instructions","88","197788","0.0-88.0","tlolpbpb","[{""page_index"":0,""viewing_time"":395.6499999999942},{""page_index"":1,""viewing_time"":540.8099999999977},{""page_index"":2,""viewing_time"":462.1900000000023}]","","","","","","",""
"","","","call-function","89","197788","0.0-89.0","tlolpbpb","","","","","","","",""
"null","","","html-keyboard-response","90","199290","0.0-90.0","tlolpbpb","","<span style=""color:Black; font-size:50px;"">Agent A","null","","","","",""
"null","","","video-keyboard-response","91","202069","0.0-91.0","tlolpbpb","","","null","","Agent A","scrambled","FOR_REV_BLOBBY_STIM/713620.bmp_pp65_L3_V1.0_veridical_freeview_isoFalse_fps144_reversed_REAL.mp4",""
"null","","","html-keyboard-response","92","203571","0.0-92.0","tlolpbpb","","<span style=""color:Black; font-size:50px;"">Agent B","null","","","","",""
"null","","","video-keyboard-response","93","206361","0.0-93.0","tlolpbpb","","","null","","Agent B","veridical","FOR_REV_BLOBBY_STIM/713620.bmp_pp65_L3_V1.0_veridical_freeview_isoFalse_fps144.mp4",""
"","","","call-function","94","206362","0.0-94.0","tlolpbpb","","","","","","","",""
"1292.4200000000128","{""judgement"":0}","[0]","survey-likert","95","207655","0.0-95.0","tlolpbpb","","","","","","","","1"
"1354.085000000021","{""confidence"":0}","[0]","survey-likert","96","209011","0.0-96.0","tlolpbpb","","","","","","","",""
"","","","call-function","97","209011","0.0-97.0","tlolpbpb","","","","","","","",""
"null","","","html-keyboard-response","98","210514","0.0-98.0","tlolpbpb","","<span style=""color:Black; font-size:50px;"">Agent A","null","","","","",""
"null","","","video-keyboard-response","99","213347","0.0-99.0","tlolpbpb","","","null","","Agent A","veridical","FOR_REV_BLOBBY_STIM/1592657.bmp_pp98_L1_V1.0_veridical_freeview_isoFalse_fps144.mp4",""
"null","","","html-keyboard-response","100","214853","0.0-100.0","tlolpbpb","","<span style=""color:Black; font-size:50px;"">Agent B","null","","","","",""
"null","","","video-keyboard-response","101","217672","0.0-101.0","tlolpbpb","","","null","","Agent B","scrambled","FOR_REV_BLOBBY_STIM/1592657.bmp_pp98_L1_V1.0_veridical_freeview_isoFalse_fps144_reversed_REAL.mp4",""
"","","","call-function","102","217672","0.0-102.0","tlolpbpb","","","","","","","",""
"1979.6700000000128","{""judgement"":0}","[0]","survey-likert","103","219653","0.0-103.0","tlolpbpb","","","","","","","","0"
"1749.820000000007","{""confidence"":3}","[0]","survey-likert","104","221404","0.0-104.0","tlolpbpb","","","","","","","",""
"","","","call-function","105","221405","0.0-105.0","tlolpbpb","","","","","","","",""
"null","","","html-keyboard-response","106","222906","0.0-106.0","tlolpbpb","","<span style=""color:Black; font-size:50px;"">Agent A","null","","","","",""
"null","","","video-keyboard-response","107","225758","0.0-107.0","tlolpbpb","","","null","","Agent A","veridical","FOR_REV_BLOBBY_STIM/1159882.bmp_pp61_L2_V1.0_veridical_freeview_isoFalse_fps144.mp4",""
"null","","","html-keyboard-response","108","227264","0.0-108.0","tlolpbpb","","<span style=""color:Black; font-size:50px;"">Agent B","null","","","","",""
"null","","","video-keyboard-response","109","230101","0.0-109.0","tlolpbpb","","","null","","Agent B","scrambled","FOR_REV_BLOBBY_STIM/1159882.bmp_pp61_L2_V1.0_veridical_freeview_isoFalse_fps144_reversed_REAL.mp4",""
"","","","call-function","110","230102","0.0-110.0","tlolpbpb","","","","","","","",""
"1703.8999999999942","{""judgement"":0}","[0]","survey-likert","111","231807","0.0-111.0","tlolpbpb","","","","","","","","0"
"2289.929999999993","{""confidence"":3}","[0]","survey-likert","112","234098","0.0-112.0","tlolpbpb","","","","","","","",""
"","","","call-function","113","234098","0.0-113.0","tlolpbpb","","","","","","","",""
"null","","","html-keyboard-response","114","235600","0.0-114.0","tlolpbpb","","<span style=""color:Black; font-size:50px;"">Agent A","null","","","","",""
"null","","","video-keyboard-response","115","238475","0.0-115.0","tlolpbpb","","","null","","Agent A","veridical","FOR_REV_BLOBBY_STIM/713017.bmp_pp152_L2_V1.0_veridical_freeview_isoFalse_fps144.mp4",""
"null","","","html-keyboard-response","116","239978","0.0-116.0","tlolpbpb","","<span style=""color:Black; font-size:50px;"">Agent B","null","","","","",""
"null","","","video-keyboard-response","117","242836","0.0-117.0","tlolpbpb","","","null","","Agent B","scrambled","FOR_REV_BLOBBY_STIM/713017.bmp_pp152_L2_V1.0_veridical_freeview_isoFalse_fps144_reversed_REAL.mp4",""
"","","","call-function","118","242837","0.0-118.0","tlolpbpb","","","","","","","",""
"1535.2300000000105","{""judgement"":0}","[0]","survey-likert","119","244373","0.0-119.0","tlolpbpb","","","","","","","","0"
"1954.6650000000081","{""confidence"":3}","[0]","survey-likert","120","246329","0.0-120.0","tlolpbpb","","","","","","","",""
"","","","call-function","121","246329","0.0-121.0","tlolpbpb","","","","","","","",""
"null","","","html-keyboard-response","122","247832","0.0-122.0","tlolpbpb","","<span style=""color:Black; font-size:50px;"">Agent A","null","","","","",""
"null","","","video-keyboard-response","123","250676","0.0-123.0","tlolpbpb","","","null","","Agent A","scrambled","FOR_REV_BLOBBY_STIM/1592807.bmp_pp68_L1_V1.0_veridical_freeview_isoFalse_fps144_reversed_REAL.mp4",""
"null","","","html-keyboard-response","124","252179","0.0-124.0","tlolpbpb","","<span style=""color:Black; font-size:50px;"">Agent B","null","","","","",""
"null","","","video-keyboard-response","125","255063","0.0-125.0","tlolpbpb","","","null","","Agent B","veridical","FOR_REV_BLOBBY_STIM/1592807.bmp_pp68_L1_V1.0_veridical_freeview_isoFalse_fps144.mp4",""
"","","","call-function","126","255063","0.0-126.0","tlolpbpb","","","","","","","",""
"1950.125","{""judgement"":1}","[0]","survey-likert","127","257014","0.0-127.0","tlolpbpb","","","","","","","","1"
"1266.6350000000093","{""confidence"":1}","[0]","survey-likert","128","258282","0.0-128.0","tlolpbpb","","","","","","","",""
"","","","call-function","129","258283","0.0-129.0","tlolpbpb","","","","","","","",""
"null","","","html-keyboard-response","130","259785","0.0-130.0","tlolpbpb","","<span style=""color:Black; font-size:50px;"">Agent A","null","","","","",""
"null","","","video-keyboard-response","131","262593","0.0-131.0","tlolpbpb","","","null","","Agent A","scrambled","FOR_REV_BLOBBY_STIM/1592890.bmp_pp82_L2_V1.0_veridical_freeview_isoFalse_fps144_reversed_REAL.mp4",""
"null","","","html-keyboard-response","132","264095","0.0-132.0","tlolpbpb","","<span style=""color:Black; font-size:50px;"">Agent B","null","","","","",""
"null","","","video-keyboard-response","133","266864","0.0-133.0","tlolpbpb","","","null","","Agent B","veridical","FOR_REV_BLOBBY_STIM/1592890.bmp_pp82_L2_V1.0_veridical_freeview_isoFalse_fps144.mp4",""
"","","","call-function","134","266864","0.0-134.0","tlolpbpb","","","","","","","",""
"1474.115000000049","{""judgement"":1}","[0]","survey-likert","135","268339","0.0-135.0","tlolpbpb","","","","","","","","1"
"1302.5299999999697","{""confidence"":0}","[0]","survey-likert","136","269643","0.0-136.0","tlolpbpb","","","","","","","",""
"","","","call-function","137","269643","0.0-137.0","tlolpbpb","","","","","","","",""
"null","","","html-keyboard-response","138","271145","0.0-138.0","tlolpbpb","","<span style=""color:Black; font-size:50px;"">Agent A","null","","","","",""
"null","","","video-keyboard-response","139","273676","0.0-139.0","tlolpbpb","","","null","","Agent A","veridical","FOR_REV_BLOBBY_STIM/1159515.bmp_pp84_L3_V1.0_veridical_freeview_isoFalse_fps144.mp4",""
"null","","","html-keyboard-response","140","275177","0.0-140.0","tlolpbpb","","<span style=""color:Black; font-size:50px;"">Agent B","null","","","","",""
"null","","","video-keyboard-response","141","277721","0.0-141.0","tlolpbpb","","","null","","Agent B","scrambled","FOR_REV_BLOBBY_STIM/1159515.bmp_pp84_L3_V1.0_veridical_freeview_isoFalse_fps144_reversed_REAL.mp4",""
"","","","call-function","142","277723","0.0-142.0","tlolpbpb","","","","","","","",""
"2119.8450000000303","{""judgement"":0}","[0]","survey-likert","143","279844","0.0-143.0","tlolpbpb","","","","","","","","0"
"1192.5299999999697","{""confidence"":0}","[0]","survey-likert","144","281038","0.0-144.0","tlolpbpb","","","","","","","",""
"","","","call-function","145","281039","0.0-145.0","tlolpbpb","","","","","","","",""
"null","","","html-keyboard-response","146","282542","0.0-146.0","tlolpbpb","","<span style=""color:Black; font-size:50px;"">Agent A","null","","","","",""
"null","","","video-keyboard-response","147","285357","0.0-147.0","tlolpbpb","","","null","","Agent A","veridical","FOR_REV_BLOBBY_STIM/1159675.bmp_pp77_L3_V1.0_veridical_freeview_isoFalse_fps144.mp4",""
"null","","","html-keyboard-response","148","286864","0.0-148.0","tlolpbpb","","<span style=""color:Black; font-size:50px;"">Agent B","null","","","","",""
"null","","","video-keyboard-response","149","289675","0.0-149.0","tlolpbpb","","","null","","Agent B","scrambled","FOR_REV_BLOBBY_STIM/1159675.bmp_pp77_L3_V1.0_veridical_freeview_isoFalse_fps144_reversed_REAL.mp4",""
"","","","call-function","150","289676","0.0-150.0","tlolpbpb","","","","","","","",""
"1512.5100000000093","{""judgement"":1}","[0]","survey-likert","151","291189","0.0-151.0","tlolpbpb","","","","","","","","0"
"1258.734999999986","{""confidence"":0}","[0]","survey-likert","152","292450","0.0-152.0","tlolpbpb","","","","","","","",""
"","","","call-function","153","292450","0.0-153.0","tlolpbpb","","","","","","","",""
"null","","","html-keyboard-response","154","293955","0.0-154.0","tlolpbpb","","<span style=""color:Black; font-size:50px;"">Agent A","null","","","","",""
"null","","","video-keyboard-response","155","296755","0.0-155.0","tlolpbpb","","","null","","Agent A","scrambled","FOR_REV_BLOBBY_STIM/285751.bmp_pp55_L3_V1.0_veridical_freeview_isoFalse_fps144_reversed_REAL.mp4",""
"null","","","html-keyboard-response","156","298261","0.0-156.0","tlolpbpb","","<span style=""color:Black; font-size:50px;"">Agent B","null","","","","",""
"null","","","video-keyboard-response","157","302191","0.0-157.0","tlolpbpb","","","null","","Agent B","veridical","FOR_REV_BLOBBY_STIM/285751.bmp_pp55_L3_V1.0_veridical_freeview_isoFalse_fps144.mp4",""
"","","","call-function","158","302192","0.0-158.0","tlolpbpb","","","","","","","",""
"1913.4650000000256","{""judgement"":0}","[0]","survey-likert","159","304106","0.0-159.0","tlolpbpb","","","","","","","","1"
"1198.835000000021","{""confidence"":1}","[0]","survey-likert","160","305306","0.0-160.0","tlolpbpb","","","","","","","",""
"","","","call-function","161","305307","0.0-161.0","tlolpbpb","","","","","","","",""
"null","","","html-keyboard-response","162","306809","0.0-162.0","tlolpbpb","","<span style=""color:Black; font-size:50px;"">Agent A","null","","","","",""
"null","","","video-keyboard-response","163","309692","0.0-163.0","tlolpbpb","","","null","","Agent A","scrambled","FOR_REV_BLOBBY_STIM/498170.bmp_pp153_L3_V1.0_veridical_freeview_isoFalse_fps144_reversed_REAL.mp4",""
"null","","","html-keyboard-response","164","311197","0.0-164.0","tlolpbpb","","<span style=""color:Black; font-size:50px;"">Agent B","null","","","","",""
"null","","","video-keyboard-response","165","313936","0.0-165.0","tlolpbpb","","","null","","Agent B","veridical","FOR_REV_BLOBBY_STIM/498170.bmp_pp153_L3_V1.0_veridical_freeview_isoFalse_fps144.mp4",""
"","","","call-function","166","313937","0.0-166.0","tlolpbpb","","","","","","","",""
"2764.75","{""judgement"":0}","[0]","survey-likert","167","316703","0.0-167.0","tlolpbpb","","","","","","","","1"
"2098.9099999999744","{""confidence"":0}","[0]","survey-likert","168","318803","0.0-168.0","tlolpbpb","","","","","","","",""
"4531.640000000014","","","instructions","169","323335","0.0-169.0","tlolpbpb","[{""page_index"":0,""viewing_time"":828.9100000000326},{""page_index"":1,""viewing_time"":759.9649999999674},{""page_index"":2,""viewing_time"":2942.570000000007}]","","","","","","",""
"1720.4099999999744","","","instructions","170","325056","0.0-170.0","tlolpbpb","[{""page_index"":0,""viewing_time"":720.859999999986},{""page_index"":1,""viewing_time"":563.554999999993},{""page_index"":2,""viewing_time"":435.88000000000466}]","","","","","","",""
"","","","call-function","171","325057","0.0-171.0","tlolpbpb","","","","","","","",""
"null","","","html-keyboard-response","172","326559","0.0-172.0","tlolpbpb","","<span style=""color:Black; font-size:50px;"">Agent A","null","","","","",""
"null","","","video-keyboard-response","173","329336","0.0-173.0","tlolpbpb","","","null","","Agent A","veridical","FOR_REV_BLOBBY_STIM/1593041.bmp_pp58_L1_V1.0_veridical_freeview_isoFalse_fps144.mp4",""
"null","","","html-keyboard-response","174","330842","0.0-174.0","tlolpbpb","","<span style=""color:Black; font-size:50px;"">Agent B","null","","","","",""
"null","","","video-keyboard-response","175","333617","0.0-175.0","tlolpbpb","","","null","","Agent B","scrambled","FOR_REV_BLOBBY_STIM/1593041.bmp_pp58_L1_V1.0_veridical_freeview_isoFalse_fps144_reversed_REAL.mp4",""
"","","","call-function","176","333618","0.0-176.0","tlolpbpb","","","","","","","",""
"1618.3099999999977","{""judgement"":0}","[0]","survey-likert","177","335237","0.0-177.0","tlolpbpb","","","","","","","","0"
"1659.0599999999977","{""confidence"":2}","[0]","survey-likert","178","336897","0.0-178.0","tlolpbpb","","","","","","","",""
"","","","call-function","179","336898","0.0-179.0","tlolpbpb","","","","","","","",""
"null","","","html-keyboard-response","180","338400","0.0-180.0","tlolpbpb","","<span style=""color:Black; font-size:50px;"">Agent A","null","","","","",""
"null","","","video-keyboard-response","181","341244","0.0-181.0","tlolpbpb","","","null","","Agent A","scrambled","FOR_REV_BLOBBY_STIM/713403.bmp_pp80_L3_V1.0_veridical_freeview_isoFalse_fps144_reversed_REAL.mp4",""
"null","","","html-keyboard-response","182","342746","0.0-182.0","tlolpbpb","","<span style=""color:Black; font-size:50px;"">Agent B","null","","","","",""
"null","","","video-keyboard-response","183","345589","0.0-183.0","tlolpbpb","","","null","","Agent B","veridical","FOR_REV_BLOBBY_STIM/713403.bmp_pp80_L3_V1.0_veridical_freeview_isoFalse_fps144.mp4",""
"","","","call-function","184","345590","0.0-184.0","tlolpbpb","","","","","","","",""
"1978.2649999999558","{""judgement"":1}","[0]","survey-likert","185","347569","0.0-185.0","tlolpbpb","","","","","","","","1"
"1028.6900000000023","{""confidence"":2}","[0]","survey-likert","186","348599","0.0-186.0","tlolpbpb","","","","","","","",""
"","","","call-function","187","348599","0.0-187.0","tlolpbpb","","","","","","","",""
"null","","","html-keyboard-response","188","350105","0.0-188.0","tlolpbpb","","<span style=""color:Black; font-size:50px;"">Agent A","null","","","","",""
"null","","","video-keyboard-response","189","352781","0.0-189.0","tlolpbpb","","","null","","Agent A","scrambled","FOR_REV_BLOBBY_STIM/1160168.bmp_pp53_L2_V1.0_veridical_freeview_isoFalse_fps144_reversed_REAL.mp4",""
"null","","","html-keyboard-response","190","354285","0.0-190.0","tlolpbpb","","<span style=""color:Black; font-size:50px;"">Agent B","null","","","","",""
"null","","","video-keyboard-response","191","356958","0.0-191.0","tlolpbpb","","","null","","Agent B","veridical","FOR_REV_BLOBBY_STIM/1160168.bmp_pp53_L2_V1.0_veridical_freeview_isoFalse_fps144.mp4",""
"","","","call-function","192","356959","0.0-192.0","tlolpbpb","","","","","","","",""
"1820.2600000000093","{""judgement"":1}","[0]","survey-likert","193","358780","0.0-193.0","tlolpbpb","","","","","","","","1"
"1097.1450000000186","{""confidence"":3}","[0]","survey-likert","194","359878","0.0-194.0","tlolpbpb","","","","","","","",""
"","","","call-function","195","359879","0.0-195.0","tlolpbpb","","","","","","","",""
"null","","","html-keyboard-response","196","361381","0.0-196.0","tlolpbpb","","<span style=""color:Black; font-size:50px;"">Agent A","null","","","","",""
"null","","","video-keyboard-response","197","364110","0.0-197.0","tlolpbpb","","","null","","Agent A","veridical","FOR_REV_BLOBBY_STIM/713749.bmp_pp88_L2_V1.0_veridical_freeview_isoFalse_fps144.mp4",""
"null","","","html-keyboard-response","198","365611","0.0-198.0","tlolpbpb","","<span style=""color:Black; font-size:50px;"">Agent B","null","","","","",""
"null","","","video-keyboard-response","199","368338","0.0-199.0","tlolpbpb","","","null","","Agent B","scrambled","FOR_REV_BLOBBY_STIM/713749.bmp_pp88_L2_V1.0_veridical_freeview_isoFalse_fps144_reversed_REAL.mp4",""
"","","","call-function","200","368339","0.0-200.0","tlolpbpb","","","","","","","",""
"1698.5900000000256","{""judgement"":0}","[0]","survey-likert","201","370039","0.0-201.0","tlolpbpb","","","","","","","","0"
"1358.725000000035","{""confidence"":3}","[0]","survey-likert","202","371399","0.0-202.0","tlolpbpb","","","","","","","",""
"","","","call-function","203","371400","0.0-203.0","tlolpbpb","","","","","","","",""
"null","","","html-keyboard-response","204","372903","0.0-204.0","tlolpbpb","","<span style=""color:Black; font-size:50px;"">Agent A","null","","","","",""
"null","","","video-keyboard-response","205","375719","0.0-205.0","tlolpbpb","","","null","","Agent A","scrambled","FOR_REV_BLOBBY_STIM/713371.bmp_pp68_L1_V1.0_veridical_freeview_isoFalse_fps144_reversed_REAL.mp4",""
"null","","","html-keyboard-response","206","377221","0.0-206.0","tlolpbpb","","<span style=""color:Black; font-size:50px;"">Agent B","null","","","","",""
"null","","","video-keyboard-response","207","380031","0.0-207.0","tlolpbpb","","","null","","Agent B","veridical","FOR_REV_BLOBBY_STIM/713371.bmp_pp68_L1_V1.0_veridical_freeview_isoFalse_fps144.mp4",""
"","","","call-function","208","380031","0.0-208.0","tlolpbpb","","","","","","","",""
"1222.1300000000047","{""judgement"":1}","[0]","survey-likert","209","381254","0.0-209.0","tlolpbpb","","","","","","","","1"
"1852.414999999979","{""confidence"":3}","[0]","survey-likert","210","383109","0.0-210.0","tlolpbpb","","","","","","","",""
"","","","call-function","211","383109","0.0-211.0","tlolpbpb","","","","","","","",""
"null","","","html-keyboard-response","212","384616","0.0-212.0","tlolpbpb","","<span style=""color:Black; font-size:50px;"">Agent A","null","","","","",""
"null","","","video-keyboard-response","213","387337","0.0-213.0","tlolpbpb","","","null","","Agent A","veridical","FOR_REV_BLOBBY_STIM/498111.bmp_pp88_L2_V1.0_veridical_freeview_isoFalse_fps144.mp4",""
"null","","","html-keyboard-response","214","388839","0.0-214.0","tlolpbpb","","<span style=""color:Black; font-size:50px;"">Agent B","null","","","","",""
"null","","","video-keyboard-response","215","391562","0.0-215.0","tlolpbpb","","","null","","Agent B","scrambled","FOR_REV_BLOBBY_STIM/498111.bmp_pp88_L2_V1.0_veridical_freeview_isoFalse_fps144_reversed_REAL.mp4",""
"","","","call-function","216","391562","0.0-216.0","tlolpbpb","","","","","","","",""
"1222.5499999999884","{""judgement"":1}","[0]","survey-likert","217","392786","0.0-217.0","tlolpbpb","","","","","","","","0"
"2363.3549999999814","{""confidence"":3}","[0]","survey-likert","218","395151","0.0-218.0","tlolpbpb","","","","","","","",""
"","","","call-function","219","395151","0.0-219.0","tlolpbpb","","","","","","","",""
"null","","","html-keyboard-response","220","396653","0.0-220.0","tlolpbpb","","<span style=""color:Black; font-size:50px;"">Agent A","null","","","","",""
"null","","","video-keyboard-response","221","399435","0.0-221.0","tlolpbpb","","","null","","Agent A","veridical","FOR_REV_BLOBBY_STIM/498155.bmp_pp61_L2_V1.0_veridical_freeview_isoFalse_fps144.mp4",""
"null","","","html-keyboard-response","222","400939","0.0-222.0","tlolpbpb","","<span style=""color:Black; font-size:50px;"">Agent B","null","","","","",""
"null","","","video-keyboard-response","223","403727","0.0-223.0","tlolpbpb","","","null","","Agent B","scrambled","FOR_REV_BLOBBY_STIM/498155.bmp_pp61_L2_V1.0_veridical_freeview_isoFalse_fps144_reversed_REAL.mp4",""
"","","","call-function","224","403728","0.0-224.0","tlolpbpb","","","","","","","",""
"1465.4049999999697","{""judgement"":1}","[0]","survey-likert","225","405194","0.0-225.0","tlolpbpb","","","","","","","","0"
"1890.8399999999674","{""confidence"":1}","[0]","survey-likert","226","407086","0.0-226.0","tlolpbpb","","","","","","","",""
"","","","call-function","227","407086","0.0-227.0","tlolpbpb","","","","","","","",""
"null","","","html-keyboard-response","228","408588","0.0-228.0","tlolpbpb","","<span style=""color:Black; font-size:50px;"">Agent A","null","","","","",""
"null","","","video-keyboard-response","229","411190","0.0-229.0","tlolpbpb","","","null","","Agent A","scrambled","FOR_REV_BLOBBY_STIM/286001.bmp_pp54_L2_V1.0_veridical_freeview_isoFalse_fps144_reversed_REAL.mp4",""
"null","","","html-keyboard-response","230","412692","0.0-230.0","tlolpbpb","","<span style=""color:Black; font-size:50px;"">Agent B","null","","","","",""
"null","","","video-keyboard-response","231","415296","0.0-231.0","tlolpbpb","","","null","","Agent B","veridical","FOR_REV_BLOBBY_STIM/286001.bmp_pp54_L2_V1.0_veridical_freeview_isoFalse_fps144.mp4",""
"","","","call-function","232","415296","0.0-232.0","tlolpbpb","","","","","","","",""
"2003.8850000000093","{""judgement"":1}","[0]","survey-likert","233","417301","0.0-233.0","tlolpbpb","","","","","","","","1"
"1170.3099999999977","{""confidence"":3}","[0]","survey-likert","234","418473","0.0-234.0","tlolpbpb","","","","","","","",""
"","","","call-function","235","418473","0.0-235.0","tlolpbpb","","","","","","","",""
"null","","","html-keyboard-response","236","419976","0.0-236.0","tlolpbpb","","<span style=""color:Black; font-size:50px;"">Agent A","null","","","","",""
"null","","","video-keyboard-response","237","422788","0.0-237.0","tlolpbpb","","","null","","Agent A","scrambled","FOR_REV_BLOBBY_STIM/1159784.bmp_pp73_L3_V1.0_veridical_freeview_isoFalse_fps144_reversed_REAL.mp4",""
"null","","","html-keyboard-response","238","424294","0.0-238.0","tlolpbpb","","<span style=""color:Black; font-size:50px;"">Agent B","null","","","","",""
"null","","","video-keyboard-response","239","427130","0.0-239.0","tlolpbpb","","","null","","Agent B","veridical","FOR_REV_BLOBBY_STIM/1159784.bmp_pp73_L3_V1.0_veridical_freeview_isoFalse_fps144.mp4",""
"","","","call-function","240","427130","0.0-240.0","tlolpbpb","","","","","","","",""
"1217.8349999999627","{""judgement"":1}","[0]","survey-likert","241","428349","0.0-241.0","tlolpbpb","","","","","","","","1"
"1464.835000000021","{""confidence"":1}","[0]","survey-likert","242","429815","0.0-242.0","tlolpbpb","","","","","","","",""
"","","","call-function","243","429816","0.0-243.0","tlolpbpb","","","","","","","",""
"null","","","html-keyboard-response","244","431317","0.0-244.0","tlolpbpb","","<span style=""color:Black; font-size:50px;"">Agent A","null","","","","",""
"null","","","video-keyboard-response","245","434120","0.0-245.0","tlolpbpb","","","null","","Agent A","scrambled","FOR_REV_BLOBBY_STIM/1592499.bmp_pp96_L2_V1.0_veridical_freeview_isoFalse_fps144_reversed_REAL.mp4",""
"null","","","html-keyboard-response","246","435625","0.0-246.0","tlolpbpb","","<span style=""color:Black; font-size:50px;"">Agent B","null","","","","",""
"null","","","video-keyboard-response","247","438421","0.0-247.0","tlolpbpb","","","null","","Agent B","veridical","FOR_REV_BLOBBY_STIM/1592499.bmp_pp96_L2_V1.0_veridical_freeview_isoFalse_fps144.mp4",""
"","","","call-function","248","438422","0.0-248.0","tlolpbpb","","","","","","","",""
"1198.070000000007","{""judgement"":0}","[0]","survey-likert","249","439621","0.0-249.0","tlolpbpb","","","","","","","","1"
"1402.2299999999814","{""confidence"":2}","[0]","survey-likert","250","441024","0.0-250.0","tlolpbpb","","","","","","","",""
"237449.05500000005","","","instructions","251","678474","0.0-251.0","tlolpbpb","[{""page_index"":0,""viewing_time"":231140.01},{""page_index"":1,""viewing_time"":1276.9000000000233},{""page_index"":2,""viewing_time"":5031.944999999949}]","","","","","","",""
"1919.6849999999395","","","instructions","252","680394","0.0-252.0","tlolpbpb","[{""page_index"":0,""viewing_time"":482.44999999995343},{""page_index"":1,""viewing_time"":543.9350000000559},{""page_index"":2,""viewing_time"":893.1849999999395}]","","","","","","",""
"","","","call-function","253","680395","0.0-253.0","tlolpbpb","","","","","","","",""
"null","","","html-keyboard-response","254","681897","0.0-254.0","tlolpbpb","","<span style=""color:Black; font-size:50px;"">Agent A","null","","","","",""
"null","","","video-keyboard-response","255","684751","0.0-255.0","tlolpbpb","","","null","","Agent A","scrambled","FOR_REV_BLOBBY_STIM/1160127.bmp_pp90_L2_V1.0_veridical_freeview_isoFalse_fps144_reversed_REAL.mp4",""
"null","","","html-keyboard-response","256","686254","0.0-256.0","tlolpbpb","","<span style=""color:Black; font-size:50px;"">Agent B","null","","","","",""
"null","","","video-keyboard-response","257","689085","0.0-257.0","tlolpbpb","","","null","","Agent B","veridical","FOR_REV_BLOBBY_STIM/1160127.bmp_pp90_L2_V1.0_veridical_freeview_isoFalse_fps144.mp4",""
"","","","call-function","258","689086","0.0-258.0","tlolpbpb","","","","","","","",""
"1696.6450000000186","{""judgement"":0}","[0]","survey-likert","259","690785","0.0-259.0","tlolpbpb","","","","","","","","1"
"1262.844999999972","{""confidence"":1}","[0]","survey-likert","260","692049","0.0-260.0","tlolpbpb","","","","","","","",""
"","","","call-function","261","692050","0.0-261.0","tlolpbpb","","","","","","","",""
"null","","","html-keyboard-response","262","693551","0.0-262.0","tlolpbpb","","<span style=""color:Black; font-size:50px;"">Agent A","null","","","","",""
"null","","","video-keyboard-response","263","696382","0.0-263.0","tlolpbpb","","","null","","Agent A","veridical","FOR_REV_BLOBBY_STIM/1592286.bmp_pp52_L1_V1.0_veridical_freeview_isoFalse_fps144.mp4",""
"null","","","html-keyboard-response","264","697886","0.0-264.0","tlolpbpb","","<span style=""color:Black; font-size:50px;"">Agent B","null","","","","",""
"null","","","video-keyboard-response","265","700704","0.0-265.0","tlolpbpb","","","null","","Agent B","scrambled","FOR_REV_BLOBBY_STIM/1592286.bmp_pp52_L1_V1.0_veridical_freeview_isoFalse_fps144_reversed_REAL.mp4",""
"","","","call-function","266","700705","0.0-266.0","tlolpbpb","","","","","","","",""
"1512.5700000000652","{""judgement"":0}","[0]","survey-likert","267","702218","0.0-267.0","tlolpbpb","","","","","","","","0"
"1050.1199999999953","{""confidence"":3}","[0]","survey-likert","268","703270","0.0-268.0","tlolpbpb","","","","","","","",""
"","","","call-function","269","703271","0.0-269.0","tlolpbpb","","","","","","","",""
"null","","","html-keyboard-response","270","704776","0.0-270.0","tlolpbpb","","<span style=""color:Black; font-size:50px;"">Agent A","null","","","","",""
"null","","","video-keyboard-response","271","707565","0.0-271.0","tlolpbpb","","","null","","Agent A","veridical","FOR_REV_BLOBBY_STIM/1159440.bmp_pp98_L1_V1.0_veridical_freeview_isoFalse_fps144.mp4",""
"null","","","html-keyboard-response","272","709069","0.0-272.0","tlolpbpb","","<span style=""color:Black; font-size:50px;"">Agent B","null","","","","",""
"null","","","video-keyboard-response","273","711890","0.0-273.0","tlolpbpb","","","null","","Agent B","scrambled","FOR_REV_BLOBBY_STIM/1159440.bmp_pp98_L1_V1.0_veridical_freeview_isoFalse_fps144_reversed_REAL.mp4",""
"","","","call-function","274","711891","0.0-274.0","tlolpbpb","","","","","","","",""
"1305.0350000000326","{""judgement"":1}","[0]","survey-likert","275","713197","0.0-275.0","tlolpbpb","","","","","","","","0"
"1384.484999999986","{""confidence"":1}","[0]","survey-likert","276","714582","0.0-276.0","tlolpbpb","","","","","","","",""
"","","","call-function","277","714583","0.0-277.0","tlolpbpb","","","","","","","",""
"null","","","html-keyboard-response","278","716085","0.0-278.0","tlolpbpb","","<span style=""color:Black; font-size:50px;"">Agent A","null","","","","",""
"null","","","video-keyboard-response","279","718830","0.0-279.0","tlolpbpb","","","null","","Agent A","veridical","FOR_REV_BLOBBY_STIM/1159446.bmp_pp60_L3_V1.0_veridical_freeview_isoFalse_fps144.mp4",""
"null","","","html-keyboard-response","280","720334","0.0-280.0","tlolpbpb","","<span style=""color:Black; font-size:50px;"">Agent B","null","","","","",""
"null","","","video-keyboard-response","281","723072","0.0-281.0","tlolpbpb","","","null","","Agent B","scrambled","FOR_REV_BLOBBY_STIM/1159446.bmp_pp60_L3_V1.0_veridical_freeview_isoFalse_fps144_reversed_REAL.mp4",""
"","","","call-function","282","723072","0.0-282.0","tlolpbpb","","","","","","","",""
"2933.519999999902","{""judgement"":1}","[0]","survey-likert","283","726008","0.0-283.0","tlolpbpb","","","","","","","","0"
"1228.6749999999302","{""confidence"":0}","[0]","survey-likert","284","727238","0.0-284.0","tlolpbpb","","","","","","","",""
"","","","call-function","285","727239","0.0-285.0","tlolpbpb","","","","","","","",""
"null","","","html-keyboard-response","286","728744","0.0-286.0","tlolpbpb","","<span style=""color:Black; font-size:50px;"">Agent A","null","","","","",""
"null","","","video-keyboard-response","287","731641","0.0-287.0","tlolpbpb","","","null","","Agent A","scrambled","FOR_REV_BLOBBY_STIM/1159572.bmp_pp71_L1_V1.0_veridical_freeview_isoFalse_fps144_reversed_REAL.mp4",""
"null","","","html-keyboard-response","288","733146","0.0-288.0","tlolpbpb","","<span style=""color:Black; font-size:50px;"">Agent B","null","","","","",""
"null","","","video-keyboard-response","289","736016","0.0-289.0","tlolpbpb","","","null","","Agent B","veridical","FOR_REV_BLOBBY_STIM/1159572.bmp_pp71_L1_V1.0_veridical_freeview_isoFalse_fps144.mp4",""
"","","","call-function","290","736017","0.0-290.0","tlolpbpb","","","","","","","",""
"1427.3099999999395","{""judgement"":1}","[0]","survey-likert","291","737445","0.0-291.0","tlolpbpb","","","","","","","","1"
"1305.6199999999953","{""confidence"":1}","[0]","survey-likert","292","738752","0.0-292.0","tlolpbpb","","","","","","","",""
"","","","call-function","293","738752","0.0-293.0","tlolpbpb","","","","","","","",""
"null","","","html-keyboard-response","294","740255","0.0-294.0","tlolpbpb","","<span style=""color:Black; font-size:50px;"">Agent A","null","","","","",""
"null","","","video-keyboard-response","295","743037","0.0-295.0","tlolpbpb","","","null","","Agent A","scrambled","FOR_REV_BLOBBY_STIM/1592804.bmp_pp91_L3_V1.0_veridical_freeview_isoFalse_fps144_reversed_REAL.mp4",""
"null","","","html-keyboard-response","296","744540","0.0-296.0","tlolpbpb","","<span style=""color:Black; font-size:50px;"">Agent B","null","","","","",""
"null","","","video-keyboard-response","297","747321","0.0-297.0","tlolpbpb","","","null","","Agent B","veridical","FOR_REV_BLOBBY_STIM/1592804.bmp_pp91_L3_V1.0_veridical_freeview_isoFalse_fps144.mp4",""
"","","","call-function","298","747321","0.0-298.0","tlolpbpb","","","","","","","",""
"1399.7550000000047","{""judgement"":1}","[0]","survey-likert","299","748722","0.0-299.0","tlolpbpb","","","","","","","","1"
"1436.3950000000186","{""confidence"":2}","[0]","survey-likert","300","750160","0.0-300.0","tlolpbpb","","","","","","","",""
"","","","call-function","301","750160","0.0-301.0","tlolpbpb","","","","","","","",""
"null","","","html-keyboard-response","302","751663","0.0-302.0","tlolpbpb","","<span style=""color:Black; font-size:50px;"">Agent A","null","","","","",""
"null","","","video-keyboard-response","303","754369","0.0-303.0","tlolpbpb","","","null","","Agent A","veridical","FOR_REV_BLOBBY_STIM/285994.bmp_pp92_L3_V1.0_veridical_freeview_isoFalse_fps144.mp4",""
"null","","","html-keyboard-response","304","755875","0.0-304.0","tlolpbpb","","<span style=""color:Black; font-size:50px;"">Agent B","null","","","","",""
"null","","","video-keyboard-response","305","758605","0.0-305.0","tlolpbpb","","","null","","Agent B","scrambled","FOR_REV_BLOBBY_STIM/285994.bmp_pp92_L3_V1.0_veridical_freeview_isoFalse_fps144_reversed_REAL.mp4",""
"","","","call-function","306","758606","0.0-306.0","tlolpbpb","","","","","","","",""
"1585.2550000000047","{""judgement"":0}","[0]","survey-likert","307","760192","0.0-307.0","tlolpbpb","","","","","","","","0"
"1075.7000000000698","{""confidence"":1}","[0]","survey-likert","308","761269","0.0-308.0","tlolpbpb","","","","","","","",""
"","","","call-function","309","761269","0.0-309.0","tlolpbpb","","","","","","","",""
"null","","","html-keyboard-response","310","762771","0.0-310.0","tlolpbpb","","<span style=""color:Black; font-size:50px;"">Agent A","null","","","","",""
"null","","","video-keyboard-response","311","765500","0.0-311.0","tlolpbpb","","","null","","Agent A","scrambled","FOR_REV_BLOBBY_STIM/1592619.bmp_pp56_L3_V1.0_veridical_freeview_isoFalse_fps144_reversed_REAL.mp4",""
"null","","","html-keyboard-response","312","767004","0.0-312.0","tlolpbpb","","<span style=""color:Black; font-size:50px;"">Agent B","null","","","","",""
"null","","","video-keyboard-response","313","769748","0.0-313.0","tlolpbpb","","","null","","Agent B","veridical","FOR_REV_BLOBBY_STIM/1592619.bmp_pp56_L3_V1.0_veridical_freeview_isoFalse_fps144.mp4",""
"","","","call-function","314","769749","0.0-314.0","tlolpbpb","","","","","","","",""
"1488.984999999986","{""judgement"":0}","[0]","survey-likert","315","771239","0.0-315.0","tlolpbpb","","","","","","","","1"
"1174.1350000000093","{""confidence"":2}","[0]","survey-likert","316","772415","0.0-316.0","tlolpbpb","","","","","","","",""
"","","","call-function","317","772415","0.0-317.0","tlolpbpb","","","","","","","",""
"null","","","html-keyboard-response","318","773916","0.0-318.0","tlolpbpb","","<span style=""color:Black; font-size:50px;"">Agent A","null","","","","",""
"null","","","video-keyboard-response","319","776451","0.0-319.0","tlolpbpb","","","null","","Agent A","scrambled","FOR_REV_BLOBBY_STIM/713796.bmp_pp84_L3_V1.0_veridical_freeview_isoFalse_fps144_reversed_REAL.mp4",""
"null","","","html-keyboard-response","320","777952","0.0-320.0","tlolpbpb","","<span style=""color:Black; font-size:50px;"">Agent B","null","","","","",""
"null","","","video-keyboard-response","321","780489","0.0-321.0","tlolpbpb","","","null","","Agent B","veridical","FOR_REV_BLOBBY_STIM/713796.bmp_pp84_L3_V1.0_veridical_freeview_isoFalse_fps144.mp4",""
"","","","call-function","322","780489","0.0-322.0","tlolpbpb","","","","","","","",""
"1416.359999999986","{""judgement"":1}","[0]","survey-likert","323","781907","0.0-323.0","tlolpbpb","","","","","","","","1"
"1623.9250000000466","{""confidence"":3}","[0]","survey-likert","324","783532","0.0-324.0","tlolpbpb","","","","","","","",""
"","","","call-function","325","783533","0.0-325.0","tlolpbpb","","","","","","","",""
"null","","","html-keyboard-response","326","785034","0.0-326.0","tlolpbpb","","<span style=""color:Black; font-size:50px;"">Agent A","null","","","","",""
"null","","","video-keyboard-response","327","787730","0.0-327.0","tlolpbpb","","","null","","Agent A","veridical","FOR_REV_BLOBBY_STIM/1592372.bmp_pp76_L1_V1.0_veridical_freeview_isoFalse_fps144.mp4",""
"null","","","html-keyboard-response","328","789234","0.0-328.0","tlolpbpb","","<span style=""color:Black; font-size:50px;"">Agent B","null","","","","",""
"null","","","video-keyboard-response","329","791949","0.0-329.0","tlolpbpb","","","null","","Agent B","scrambled","FOR_REV_BLOBBY_STIM/1592372.bmp_pp76_L1_V1.0_veridical_freeview_isoFalse_fps144_reversed_REAL.mp4",""
"","","","call-function","330","791950","0.0-330.0","tlolpbpb","","","","","","","",""
"2704.6350000000093","{""judgement"":1}","[0]","survey-likert","331","794655","0.0-331.0","tlolpbpb","","","","","","","","0"
"1484.7050000000745","{""confidence"":1}","[0]","survey-likert","332","796141","0.0-332.0","tlolpbpb","","","","","","","",""
"106920.04000000004","","","instructions","333","903062","0.0-333.0","tlolpbpb","[{""page_index"":0,""viewing_time"":2016.6900000000605},{""page_index"":1,""viewing_time"":94903.94499999995},{""page_index"":2,""viewing_time"":9999.11499999999}]","","","","","","",""
"2240.8850000000093","","","instructions","334","905303","0.0-334.0","tlolpbpb","[{""page_index"":0,""viewing_time"":786.6300000000047},{""page_index"":1,""viewing_time"":985.984999999986},{""page_index"":2,""viewing_time"":468.1699999999255}]","","","","","","",""
"","","","call-function","335","905304","0.0-335.0","tlolpbpb","","","","","","","",""
"null","","","html-keyboard-response","336","906806","0.0-336.0","tlolpbpb","","<span style=""color:Black; font-size:50px;"">Agent A","null","","","","",""
"null","","","video-keyboard-response","337","909718","0.0-337.0","tlolpbpb","","","null","","Agent A","veridical","FOR_REV_BLOBBY_STIM/285905.bmp_pp57_L1_V1.0_veridical_freeview_isoFalse_fps144.mp4",""
"null","","","html-keyboard-response","338","911222","0.0-338.0","tlolpbpb","","<span style=""color:Black; font-size:50px;"">Agent B","null","","","","",""
"null","","","video-keyboard-response","339","914090","0.0-339.0","tlolpbpb","","","null","","Agent B","scrambled","FOR_REV_BLOBBY_STIM/285905.bmp_pp57_L1_V1.0_veridical_freeview_isoFalse_fps144_reversed_REAL.mp4",""
"","","","call-function","340","914090","0.0-340.0","tlolpbpb","","","","","","","",""
"2041.3949999999022","{""judgement"":0}","[0]","survey-likert","341","916133","0.0-341.0","tlolpbpb","","","","","","","","0"
"1620.8049999999348","{""confidence"":2}","[0]","survey-likert","342","917754","0.0-342.0","tlolpbpb","","","","","","","",""
"","","","call-function","343","917755","0.0-343.0","tlolpbpb","","","","","","","",""
"null","","","html-keyboard-response","344","919258","0.0-344.0","tlolpbpb","","<span style=""color:Black; font-size:50px;"">Agent A","null","","","","",""
"null","","","video-keyboard-response","345","921829","0.0-345.0","tlolpbpb","","","null","","Agent A","veridical","FOR_REV_BLOBBY_STIM/713760.bmp_pp81_L1_V1.0_veridical_freeview_isoFalse_fps144.mp4",""
"null","","","html-keyboard-response","346","923335","0.0-346.0","tlolpbpb","","<span style=""color:Black; font-size:50px;"">Agent B","null","","","","",""
"null","","","video-keyboard-response","347","925876","0.0-347.0","tlolpbpb","","","null","","Agent B","scrambled","FOR_REV_BLOBBY_STIM/713760.bmp_pp81_L1_V1.0_veridical_freeview_isoFalse_fps144_reversed_REAL.mp4",""
"","","","call-function","348","925877","0.0-348.0","tlolpbpb","","","","","","","",""
"1059.4100000000326","{""judgement"":0}","[0]","survey-likert","349","926937","0.0-349.0","tlolpbpb","","","","","","","","0"
"1233.6900000000605","{""confidence"":1}","[0]","survey-likert","350","928172","0.0-350.0","tlolpbpb","","","","","","","",""
"","","","call-function","351","928173","0.0-351.0","tlolpbpb","","","","","","","",""
"null","","","html-keyboard-response","352","929679","0.0-352.0","tlolpbpb","","<span style=""color:Black; font-size:50px;"">Agent A","null","","","","",""
"null","","","video-keyboard-response","353","932497","0.0-353.0","tlolpbpb","","","null","","Agent A","veridical","FOR_REV_BLOBBY_STIM/1159855.bmp_pp99_L2_V1.0_veridical_freeview_isoFalse_fps144.mp4",""
"null","","","html-keyboard-response","354","933999","0.0-354.0","tlolpbpb","","<span style=""color:Black; font-size:50px;"">Agent B","null","","","","",""
"null","","","video-keyboard-response","355","936803","0.0-355.0","tlolpbpb","","","null","","Agent B","scrambled","FOR_REV_BLOBBY_STIM/1159855.bmp_pp99_L2_V1.0_veridical_freeview_isoFalse_fps144_reversed_REAL.mp4",""
"","","","call-function","356","936804","0.0-356.0","tlolpbpb","","","","","","","",""
"1364.1799999999348","{""judgement"":1}","[0]","survey-likert","357","938170","0.0-357.0","tlolpbpb","","","","","","","","0"
"1727.9199999999255","{""confidence"":2}","[0]","survey-likert","358","939900","0.0-358.0","tlolpbpb","","","","","","","",""
"","","","call-function","359","939901","0.0-359.0","tlolpbpb","","","","","","","",""
"null","","","html-keyboard-response","360","941405","0.0-360.0","tlolpbpb","","<span style=""color:Black; font-size:50px;"">Agent A","null","","","","",""
"null","","","video-keyboard-response","361","943026","0.0-361.0","tlolpbpb","","","null","","Agent A","veridical","FOR_REV_BLOBBY_STIM/713684.bmp_pp85_L3_V1.0_veridical_freeview_isoFalse_fps144.mp4",""
"null","","","html-keyboard-response","362","944532","0.0-362.0","tlolpbpb","","<span style=""color:Black; font-size:50px;"">Agent B","null","","","","",""
"null","","","video-keyboard-response","363","946115","0.0-363.0","tlolpbpb","","","null","","Agent B","scrambled","FOR_REV_BLOBBY_STIM/713684.bmp_pp85_L3_V1.0_veridical_freeview_isoFalse_fps144_reversed_REAL.mp4",""
"","","","call-function","364","946116","0.0-364.0","tlolpbpb","","","","","","","",""
"1298.4000000000233","{""judgement"":0}","[0]","survey-likert","365","947416","0.0-365.0","tlolpbpb","","","","","","","","0"
"875.3850000000093","{""confidence"":1}","[0]","survey-likert","366","948292","0.0-366.0","tlolpbpb","","","","","","","",""
"","","","call-function","367","948293","0.0-367.0","tlolpbpb","","","","","","","",""
"null","","","html-keyboard-response","368","949794","0.0-368.0","tlolpbpb","","<span style=""color:Black; font-size:50px;"">Agent A","null","","","","",""
"null","","","video-keyboard-response","369","952411","0.0-369.0","tlolpbpb","","","null","","Agent A","veridical","FOR_REV_BLOBBY_STIM/713779.bmp_pp152_L2_V1.0_veridical_freeview_isoFalse_fps144.mp4",""
"null","","","html-keyboard-response","370","953915","0.0-370.0","tlolpbpb","","<span style=""color:Black; font-size:50px;"">Agent B","null","","","","",""
"null","","","video-keyboard-response","371","956534","0.0-371.0","tlolpbpb","","","null","","Agent B","scrambled","FOR_REV_BLOBBY_STIM/713779.bmp_pp152_L2_V1.0_veridical_freeview_isoFalse_fps144_reversed_REAL.mp4",""
"","","","call-function","372","956534","0.0-372.0","tlolpbpb","","","","","","","",""
"1413.7399999999907","{""judgement"":0}","[0]","survey-likert","373","957949","0.0-373.0","tlolpbpb","","","","","","","","0"
"3833.7399999999907","{""confidence"":0}","[0]","survey-likert","374","961784","0.0-374.0","tlolpbpb","","","","","","","",""
"","","","call-function","375","961785","0.0-375.0","tlolpbpb","","","","","","","",""
"null","","","html-keyboard-response","376","963286","0.0-376.0","tlolpbpb","","<span style=""color:Black; font-size:50px;"">Agent A","null","","","","",""
"null","","","video-keyboard-response","377","965853","0.0-377.0","tlolpbpb","","","null","","Agent A","scrambled","FOR_REV_BLOBBY_STIM/1591876.bmp_pp63_L1_V1.0_veridical_freeview_isoFalse_fps144_reversed_REAL.mp4",""
"null","","","html-keyboard-response","378","967355","0.0-378.0","tlolpbpb","","<span style=""color:Black; font-size:50px;"">Agent B","null","","","","",""
"null","","","video-keyboard-response","379","969916","0.0-379.0","tlolpbpb","","","null","","Agent B","veridical","FOR_REV_BLOBBY_STIM/1591876.bmp_pp63_L1_V1.0_veridical_freeview_isoFalse_fps144.mp4",""
"","","","call-function","380","969916","0.0-380.0","tlolpbpb","","","","","","","",""
"1264.3200000000652","{""judgement"":1}","[0]","survey-likert","381","971181","0.0-381.0","tlolpbpb","","","","","","","","1"
"5199.239999999991","{""confidence"":2}","[0]","survey-likert","382","976382","0.0-382.0","tlolpbpb","","","","","","","",""
"","","","call-function","383","976382","0.0-383.0","tlolpbpb","","","","","","","",""
"null","","","html-keyboard-response","384","977885","0.0-384.0","tlolpbpb","","<span style=""color:Black; font-size:50px;"">Agent A","null","","","","",""
"null","","","video-keyboard-response","385","980427","0.0-385.0","tlolpbpb","","","null","","Agent A","scrambled","FOR_REV_BLOBBY_STIM/713513.bmp_pp62_L2_V1.0_veridical_freeview_isoFalse_fps144_reversed_REAL.mp4",""
"null","","","html-keyboard-response","386","981931","0.0-386.0","tlolpbpb","","<span style=""color:Black; font-size:50px;"">Agent B","null","","","","",""
"null","","","video-keyboard-response","387","984550","0.0-387.0","tlolpbpb","","","null","","Agent B","veridical","FOR_REV_BLOBBY_STIM/713513.bmp_pp62_L2_V1.0_veridical_freeview_isoFalse_fps144.mp4",""
"","","","call-function","388","984550","0.0-388.0","tlolpbpb","","","","","","","",""
"1160.405000000028","{""judgement"":1}","[0]","survey-likert","389","985711","0.0-389.0","tlolpbpb","","","","","","","","1"
"986.75","{""confidence"":0}","[0]","survey-likert","390","986699","0.0-390.0","tlolpbpb","","","","","","","",""
"","","","call-function","391","986700","0.0-391.0","tlolpbpb","","","","","","","",""
"null","","","html-keyboard-response","392","988204","0.0-392.0","tlolpbpb","","<span style=""color:Black; font-size:50px;"">Agent A","null","","","","",""
"null","","","video-keyboard-response","393","991063","0.0-393.0","tlolpbpb","","","null","","Agent A","scrambled","FOR_REV_BLOBBY_STIM/498253.bmp_pp67_L2_V1.0_veridical_freeview_isoFalse_fps144_reversed_REAL.mp4",""
"null","","","html-keyboard-response","394","992565","0.0-394.0","tlolpbpb","","<span style=""color:Black; font-size:50px;"">Agent B","null","","","","",""
"null","","","video-keyboard-response","395","995418","0.0-395.0","tlolpbpb","","","null","","Agent B","veridical","FOR_REV_BLOBBY_STIM/498253.bmp_pp67_L2_V1.0_veridical_freeview_isoFalse_fps144.mp4",""
"","","","call-function","396","995418","0.0-396.0","tlolpbpb","","","","","","","",""
"2188.180000000051","{""judgement"":0}","[0]","survey-likert","397","997607","0.0-397.0","tlolpbpb","","","","","","","","1"
"1196.5650000000605","{""confidence"":0}","[0]","survey-likert","398","998805","0.0-398.0","tlolpbpb","","","","","","","",""
"","","","call-function","399","998806","0.0-399.0","tlolpbpb","","","","","","","",""
"null","","","html-keyboard-response","400","1000308","0.0-400.0","tlolpbpb","","<span style=""color:Black; font-size:50px;"">Agent A","null","","","","",""
"null","","","video-keyboard-response","401","1003160","0.0-401.0","tlolpbpb","","","null","","Agent A","scrambled","FOR_REV_BLOBBY_STIM/1159768.bmp_pp89_L1_V1.0_veridical_freeview_isoFalse_fps144_reversed_REAL.mp4",""
"null","","","html-keyboard-response","402","1004666","0.0-402.0","tlolpbpb","","<span style=""color:Black; font-size:50px;"">Agent B","null","","","","",""
"null","","","video-keyboard-response","403","1007449","0.0-403.0","tlolpbpb","","","null","","Agent B","veridical","FOR_REV_BLOBBY_STIM/1159768.bmp_pp89_L1_V1.0_veridical_freeview_isoFalse_fps144.mp4",""
"","","","call-function","404","1007449","0.0-404.0","tlolpbpb","","","","","","","",""
"2137.2249999999767","{""judgement"":0}","[0]","survey-likert","405","1009587","0.0-405.0","tlolpbpb","","","","","","","","1"
"945.7099999999627","{""confidence"":1}","[0]","survey-likert","406","1010535","0.0-406.0","tlolpbpb","","","","","","","",""
"","","","call-function","407","1010535","0.0-407.0","tlolpbpb","","","","","","","",""
"null","","","html-keyboard-response","408","1012036","0.0-408.0","tlolpbpb","","<span style=""color:Black; font-size:50px;"">Agent A","null","","","","",""
"null","","","video-keyboard-response","409","1014807","0.0-409.0","tlolpbpb","","","null","","Agent A","veridical","FOR_REV_BLOBBY_STIM/713135.bmp_pp54_L2_V1.0_veridical_freeview_isoFalse_fps144.mp4",""
"null","","","html-keyboard-response","410","1016311","0.0-410.0","tlolpbpb","","<span style=""color:Black; font-size:50px;"">Agent B","null","","","","",""
"null","","","video-keyboard-response","411","1019082","0.0-411.0","tlolpbpb","","","null","","Agent B","scrambled","FOR_REV_BLOBBY_STIM/713135.bmp_pp54_L2_V1.0_veridical_freeview_isoFalse_fps144_reversed_REAL.mp4",""
"","","","call-function","412","1019082","0.0-412.0","tlolpbpb","","","","","","","",""
"2064.140000000014","{""judgement"":1}","[0]","survey-likert","413","1021148","0.0-413.0","tlolpbpb","","","","","","","","0"
"3435.939999999944","{""confidence"":0}","[0]","survey-likert","414","1024586","0.0-414.0","tlolpbpb","","","","","","","",""
"1839.5200000000186","","","instructions","415","1026427","0.0-415.0","tlolpbpb","[{""page_index"":0,""viewing_time"":830.2550000000047},{""page_index"":1,""viewing_time"":484.5550000000512},{""page_index"":2,""viewing_time"":524.5599999999395}]","","","","","","",""
"1332.1849999999395","","","instructions","416","1027759","0.0-416.0","tlolpbpb","[{""page_index"":0,""viewing_time"":449.0349999999162},{""page_index"":1,""viewing_time"":415.16500000003725},{""page_index"":2,""viewing_time"":467.8649999999907}]","","","","","","",""
"","","","call-function","417","1027760","0.0-417.0","tlolpbpb","","","","","","","",""
"null","","","html-keyboard-response","418","1029261","0.0-418.0","tlolpbpb","","<span style=""color:Black; font-size:50px;"">Agent A","null","","","","",""
"null","","","video-keyboard-response","419","1032139","0.0-419.0","tlolpbpb","","","null","","Agent A","veridical","FOR_REV_BLOBBY_STIM/1593035.bmp_pp94_L2_V1.0_veridical_freeview_isoFalse_fps144.mp4",""
"null","","","html-keyboard-response","420","1033646","0.0-420.0","tlolpbpb","","<span style=""color:Black; font-size:50px;"">Agent B","null","","","","",""
"null","","","video-keyboard-response","421","1036527","0.0-421.0","tlolpbpb","","","null","","Agent B","scrambled","FOR_REV_BLOBBY_STIM/1593035.bmp_pp94_L2_V1.0_veridical_freeview_isoFalse_fps144_reversed_REAL.mp4",""
"","","","call-function","422","1036528","0.0-422.0","tlolpbpb","","","","","","","",""
"2916.6750000000466","{""judgement"":1}","[0]","survey-likert","423","1039445","0.0-423.0","tlolpbpb","","","","","","","","0"
"1728.0400000000373","{""confidence"":1}","[0]","survey-likert","424","1041175","0.0-424.0","tlolpbpb","","","","","","","",""
"","","","call-function","425","1041176","0.0-425.0","tlolpbpb","","","","","","","",""
"null","","","html-keyboard-response","426","1042681","0.0-426.0","tlolpbpb","","<span style=""color:Black; font-size:50px;"">Agent A","null","","","","",""
"null","","","video-keyboard-response","427","1045312","0.0-427.0","tlolpbpb","","","null","","Agent A","scrambled","FOR_REV_BLOBBY_STIM/498149.bmp_pp99_L2_V1.0_veridical_freeview_isoFalse_fps144_reversed_REAL.mp4",""
"null","","","html-keyboard-response","428","1046817","0.0-428.0","tlolpbpb","","<span style=""color:Black; font-size:50px;"">Agent B","null","","","","",""
"null","","","video-keyboard-response","429","1049464","0.0-429.0","tlolpbpb","","","null","","Agent B","veridical","FOR_REV_BLOBBY_STIM/498149.bmp_pp99_L2_V1.0_veridical_freeview_isoFalse_fps144.mp4",""
"","","","call-function","430","1049465","0.0-430.0","tlolpbpb","","","","","","","",""
"1305.9750000000931","{""judgement"":1}","[0]","survey-likert","431","1050771","0.0-431.0","tlolpbpb","","","","","","","","1"
"1230.7450000001118","{""confidence"":0}","[0]","survey-likert","432","1052003","0.0-432.0","tlolpbpb","","","","","","","",""
"","","","call-function","433","1052004","0.0-433.0","tlolpbpb","","","","","","","",""
"null","","","html-keyboard-response","434","1053505","0.0-434.0","tlolpbpb","","<span style=""color:Black; font-size:50px;"">Agent A","null","","","","",""
"null","","","video-keyboard-response","435","1056358","0.0-435.0","tlolpbpb","","","null","","Agent A","scrambled","FOR_REV_BLOBBY_STIM/713593.bmp_pp64_L1_V1.0_veridical_freeview_isoFalse_fps144_reversed_REAL.mp4",""
"null","","","html-keyboard-response","436","1057862","0.0-436.0","tlolpbpb","","<span style=""color:Black; font-size:50px;"">Agent B","null","","","","",""
"null","","","video-keyboard-response","437","1060705","0.0-437.0","tlolpbpb","","","null","","Agent B","veridical","FOR_REV_BLOBBY_STIM/713593.bmp_pp64_L1_V1.0_veridical_freeview_isoFalse_fps144.mp4",""
"","","","call-function","438","1060705","0.0-438.0","tlolpbpb","","","","","","","",""
"2226.054999999935","{""judgement"":1}","[0]","survey-likert","439","1062932","0.0-439.0","tlolpbpb","","","","","","","","1"
"1068.8599999998696","{""confidence"":2}","[0]","survey-likert","440","1064002","0.0-440.0","tlolpbpb","","","","","","","",""
"","","","call-function","441","1064003","0.0-441.0","tlolpbpb","","","","","","","",""
"null","","","html-keyboard-response","442","1065506","0.0-442.0","tlolpbpb","","<span style=""color:Black; font-size:50px;"">Agent A","null","","","","",""
"null","","","video-keyboard-response","443","1068339","0.0-443.0","tlolpbpb","","","null","","Agent A","scrambled","FOR_REV_BLOBBY_STIM/712977.bmp_pp51_L1_V1.0_veridical_freeview_isoFalse_fps144_reversed_REAL.mp4",""
"null","","","html-keyboard-response","444","1069840","0.0-444.0","tlolpbpb","","<span style=""color:Black; font-size:50px;"">Agent B","null","","","","",""
"null","","","video-keyboard-response","445","1072674","0.0-445.0","tlolpbpb","","","null","","Agent B","veridical","FOR_REV_BLOBBY_STIM/712977.bmp_pp51_L1_V1.0_veridical_freeview_isoFalse_fps144.mp4",""
"","","","call-function","446","1072674","0.0-446.0","tlolpbpb","","","","","","","",""
"1492.9600000001956","{""judgement"":1}","[0]","survey-likert","447","1074168","0.0-447.0","tlolpbpb","","","","","","","","1"
"1865.0150000001304","{""confidence"":3}","[0]","survey-likert","448","1076034","0.0-448.0","tlolpbpb","","","","","","","",""
"","","","call-function","449","1076035","0.0-449.0","tlolpbpb","","","","","","","",""
"null","","","html-keyboard-response","450","1077540","0.0-450.0","tlolpbpb","","<span style=""color:Black; font-size:50px;"">Agent A","null","","","","",""
"null","","","video-keyboard-response","451","1080352","0.0-451.0","tlolpbpb","","","null","","Agent A","scrambled","FOR_REV_BLOBBY_STIM/1159777.bmp_pp77_L3_V1.0_veridical_freeview_isoFalse_fps144_reversed_REAL.mp4",""
"null","","","html-keyboard-response","452","1081857","0.0-452.0","tlolpbpb","","<span style=""color:Black; font-size:50px;"">Agent B","null","","","","",""
"null","","","video-keyboard-response","453","1084667","0.0-453.0","tlolpbpb","","","null","","Agent B","veridical","FOR_REV_BLOBBY_STIM/1159777.bmp_pp77_L3_V1.0_veridical_freeview_isoFalse_fps144.mp4",""
"","","","call-function","454","1084669","0.0-454.0","tlolpbpb","","","","","","","",""
"1212.719999999972","{""judgement"":1}","[0]","survey-likert","455","1085882","0.0-455.0","tlolpbpb","","","","","","","","1"
"1540.2649999998976","{""confidence"":3}","[0]","survey-likert","456","1087424","0.0-456.0","tlolpbpb","","","","","","","",""
"","","","call-function","457","1087425","0.0-457.0","tlolpbpb","","","","","","","",""
"null","","","html-keyboard-response","458","1088927","0.0-458.0","tlolpbpb","","<span style=""color:Black; font-size:50px;"">Agent A","null","","","","",""
"null","","","video-keyboard-response","459","1091754","0.0-459.0","tlolpbpb","","","null","","Agent A","veridical","FOR_REV_BLOBBY_STIM/1591961.bmp_pp67_L2_V1.0_veridical_freeview_isoFalse_fps144.mp4",""
"null","","","html-keyboard-response","460","1093260","0.0-460.0","tlolpbpb","","<span style=""color:Black; font-size:50px;"">Agent B","null","","","","",""
"null","","","video-keyboard-response","461","1096076","0.0-461.0","tlolpbpb","","","null","","Agent B","scrambled","FOR_REV_BLOBBY_STIM/1591961.bmp_pp67_L2_V1.0_veridical_freeview_isoFalse_fps144_reversed_REAL.mp4",""
"","","","call-function","462","1096077","0.0-462.0","tlolpbpb","","","","","","","",""
"2549.1399999998976","{""judgement"":1}","[0]","survey-likert","463","1098627","0.0-463.0","tlolpbpb","","","","","","","","0"
"1805.619999999879","{""confidence"":0}","[0]","survey-likert","464","1100434","0.0-464.0","tlolpbpb","","","","","","","",""
"","","","call-function","465","1100435","0.0-465.0","tlolpbpb","","","","","","","",""
"null","","","html-keyboard-response","466","1101938","0.0-466.0","tlolpbpb","","<span style=""color:Black; font-size:50px;"">Agent A","null","","","","",""
"null","","","video-keyboard-response","467","1104704","0.0-467.0","tlolpbpb","","","null","","Agent A","scrambled","FOR_REV_BLOBBY_STIM/1159621.bmp_pp92_L3_V1.0_veridical_freeview_isoFalse_fps144_reversed_REAL.mp4",""
"null","","","html-keyboard-response","468","1106206","0.0-468.0","tlolpbpb","","<span style=""color:Black; font-size:50px;"">Agent B","null","","","","",""
"null","","","video-keyboard-response","469","1108978","0.0-469.0","tlolpbpb","","","null","","Agent B","veridical","FOR_REV_BLOBBY_STIM/1159621.bmp_pp92_L3_V1.0_veridical_freeview_isoFalse_fps144.mp4",""
"","","","call-function","470","1108978","0.0-470.0","tlolpbpb","","","","","","","",""
"2384.2099999999627","{""judgement"":0}","[0]","survey-likert","471","1111363","0.0-471.0","tlolpbpb","","","","","","","","1"
"1235.0799999998417","{""confidence"":0}","[0]","survey-likert","472","1112600","0.0-472.0","tlolpbpb","","","","","","","",""
"","","","call-function","473","1112600","0.0-473.0","tlolpbpb","","","","","","","",""
"null","","","html-keyboard-response","474","1114101","0.0-474.0","tlolpbpb","","<span style=""color:Black; font-size:50px;"">Agent A","null","","","","",""
"null","","","video-keyboard-response","475","1116739","0.0-475.0","tlolpbpb","","","null","","Agent A","scrambled","FOR_REV_BLOBBY_STIM/61537.bmp_pp73_L3_V1.0_veridical_freeview_isoFalse_fps144_reversed_REAL.mp4",""
"null","","","html-keyboard-response","476","1118243","0.0-476.0","tlolpbpb","","<span style=""color:Black; font-size:50px;"">Agent B","null","","","","",""
"null","","","video-keyboard-response","477","1120909","0.0-477.0","tlolpbpb","","","null","","Agent B","veridical","FOR_REV_BLOBBY_STIM/61537.bmp_pp73_L3_V1.0_veridical_freeview_isoFalse_fps144.mp4",""
"","","","call-function","478","1120909","0.0-478.0","tlolpbpb","","","","","","","",""
"2304.355000000214","{""judgement"":0}","[0]","survey-likert","479","1123214","0.0-479.0","tlolpbpb","","","","","","","","1"
"1493.469999999972","{""confidence"":2}","[0]","survey-likert","480","1124709","0.0-480.0","tlolpbpb","","","","","","","",""
"","","","call-function","481","1124709","0.0-481.0","tlolpbpb","","","","","","","",""
"null","","","html-keyboard-response","482","1126211","0.0-482.0","tlolpbpb","","<span style=""color:Black; font-size:50px;"">Agent A","null","","","","",""
"null","","","video-keyboard-response","483","1129046","0.0-483.0","tlolpbpb","","","null","","Agent A","scrambled","FOR_REV_BLOBBY_STIM/1592362.bmp_pp95_L2_V1.0_veridical_freeview_isoFalse_fps144_reversed_REAL.mp4",""
"null","","","html-keyboard-response","484","1130550","0.0-484.0","tlolpbpb","","<span style=""color:Black; font-size:50px;"">Agent B","null","","","","",""
"null","","","video-keyboard-response","485","1133369","0.0-485.0","tlolpbpb","","","null","","Agent B","veridical","FOR_REV_BLOBBY_STIM/1592362.bmp_pp95_L2_V1.0_veridical_freeview_isoFalse_fps144.mp4",""
"","","","call-function","486","1133370","0.0-486.0","tlolpbpb","","","","","","","",""
"1662.3649999999907","{""judgement"":1}","[0]","survey-likert","487","1135033","0.0-487.0","tlolpbpb","","","","","","","","1"
"2213.024999999907","{""confidence"":3}","[0]","survey-likert","488","1137247","0.0-488.0","tlolpbpb","","","","","","","",""
"","","","call-function","489","1137248","0.0-489.0","tlolpbpb","","","","","","","",""
"null","","","html-keyboard-response","490","1138749","0.0-490.0","tlolpbpb","","<span style=""color:Black; font-size:50px;"">Agent A","null","","","","",""
"null","","","video-keyboard-response","491","1141450","0.0-491.0","tlolpbpb","","","null","","Agent A","scrambled","FOR_REV_BLOBBY_STIM/1592727.bmp_pp59_L3_V1.0_veridical_freeview_isoFalse_fps144_reversed_REAL.mp4",""
"null","","","html-keyboard-response","492","1142953","0.0-492.0","tlolpbpb","","<span style=""color:Black; font-size:50px;"">Agent B","null","","","","",""
"null","","","video-keyboard-response","493","1145647","0.0-493.0","tlolpbpb","","","null","","Agent B","veridical","FOR_REV_BLOBBY_STIM/1592727.bmp_pp59_L3_V1.0_veridical_freeview_isoFalse_fps144.mp4",""
"","","","call-function","494","1145647","0.0-494.0","tlolpbpb","","","","","","","",""
"1262.380000000121","{""judgement"":1}","[0]","survey-likert","495","1146911","0.0-495.0","tlolpbpb","","","","","","","","1"
"1758.6800000001676","{""confidence"":1}","[0]","survey-likert","496","1148670","0.0-496.0","tlolpbpb","","","","","","","",""
"1572.7600000000093","","","instructions","497","1150244","0.0-497.0","tlolpbpb","[{""page_index"":0,""viewing_time"":681.1049999999814},{""page_index"":1,""viewing_time"":483.39999999990687},{""page_index"":2,""viewing_time"":408.1050000002142}]","","","","","","",""
"1926.9300000001676","","","instructions","498","1152171","0.0-498.0","tlolpbpb","[{""page_index"":0,""viewing_time"":518.3449999999721},{""page_index"":1,""viewing_time"":646.9950000001118},{""page_index"":2,""viewing_time"":761.4899999999907}]","","","","","","",""
"","","","call-function","499","1152172","0.0-499.0","tlolpbpb","","","","","","","",""
"null","","","html-keyboard-response","500","1153674","0.0-500.0","tlolpbpb","","<span style=""color:Black; font-size:50px;"">Agent A","null","","","","",""
"null","","","video-keyboard-response","501","1156445","0.0-501.0","tlolpbpb","","","null","","Agent A","scrambled","FOR_REV_BLOBBY_STIM/1591994.bmp_pp69_L3_V1.0_veridical_freeview_isoFalse_fps144_reversed_REAL.mp4",""
"null","","","html-keyboard-response","502","1157950","0.0-502.0","tlolpbpb","","<span style=""color:Black; font-size:50px;"">Agent B","null","","","","",""
"null","","","video-keyboard-response","503","1160723","0.0-503.0","tlolpbpb","","","null","","Agent B","veridical","FOR_REV_BLOBBY_STIM/1591994.bmp_pp69_L3_V1.0_veridical_freeview_isoFalse_fps144.mp4",""
"","","","call-function","504","1160724","0.0-504.0","tlolpbpb","","","","","","","",""
"2553.689999999944","{""judgement"":0}","[0]","survey-likert","505","1163279","0.0-505.0","tlolpbpb","","","","","","","","1"
"1172.2700000000186","{""confidence"":0}","[0]","survey-likert","506","1164454","0.0-506.0","tlolpbpb","","","","","","","",""
"","","","call-function","507","1164455","0.0-507.0","tlolpbpb","","","","","","","",""
"null","","","html-keyboard-response","508","1165958","0.0-508.0","tlolpbpb","","<span style=""color:Black; font-size:50px;"">Agent A","null","","","","",""
"null","","","video-keyboard-response","509","1168643","0.0-509.0","tlolpbpb","","","null","","Agent A","veridical","FOR_REV_BLOBBY_STIM/1592133.bmp_pp75_L1_V1.0_veridical_freeview_isoFalse_fps144.mp4",""
"null","","","html-keyboard-response","510","1170144","0.0-510.0","tlolpbpb","","<span style=""color:Black; font-size:50px;"">Agent B","null","","","","",""
"null","","","video-keyboard-response","511","1172824","0.0-511.0","tlolpbpb","","","null","","Agent B","scrambled","FOR_REV_BLOBBY_STIM/1592133.bmp_pp75_L1_V1.0_veridical_freeview_isoFalse_fps144_reversed_REAL.mp4",""
"","","","call-function","512","1172824","0.0-512.0","tlolpbpb","","","","","","","",""
"1120.3600000001024","{""judgement"":1}","[0]","survey-likert","513","1173946","0.0-513.0","tlolpbpb","","","","","","","","0"
"1470.714999999851","{""confidence"":0}","[0]","survey-likert","514","1175418","0.0-514.0","tlolpbpb","","","","","","","",""
"","","","call-function","515","1175419","0.0-515.0","tlolpbpb","","","","","","","",""
"null","","","html-keyboard-response","516","1176924","0.0-516.0","tlolpbpb","","<span style=""color:Black; font-size:50px;"">Agent A","null","","","","",""
"null","","","video-keyboard-response","517","1179727","0.0-517.0","tlolpbpb","","","null","","Agent A","veridical","FOR_REV_BLOBBY_STIM/1159829.bmp_pp91_L3_V1.0_veridical_freeview_isoFalse_fps144.mp4",""
"null","","","html-keyboard-response","518","1181229","0.0-518.0","tlolpbpb","","<span style=""color:Black; font-size:50px;"">Agent B","null","","","","",""
"null","","","video-keyboard-response","519","1184012","0.0-519.0","tlolpbpb","","","null","","Agent B","scrambled","FOR_REV_BLOBBY_STIM/1159829.bmp_pp91_L3_V1.0_veridical_freeview_isoFalse_fps144_reversed_REAL.mp4",""
"","","","call-function","520","1184012","0.0-520.0","tlolpbpb","","","","","","","",""
"1369.9199999999255","{""judgement"":0}","[0]","survey-likert","521","1185383","0.0-521.0","tlolpbpb","","","","","","","","0"
"1599.030000000028","{""confidence"":3}","[0]","survey-likert","522","1186983","0.0-522.0","tlolpbpb","","","","","","","",""
"","","","call-function","523","1186984","0.0-523.0","tlolpbpb","","","","","","","",""
"null","","","html-keyboard-response","524","1188488","0.0-524.0","tlolpbpb","","<span style=""color:Black; font-size:50px;"">Agent A","null","","","","",""
"null","","","video-keyboard-response","525","1191257","0.0-525.0","tlolpbpb","","","null","","Agent A","scrambled","FOR_REV_BLOBBY_STIM/1592934.bmp_pp63_L1_V1.0_veridical_freeview_isoFalse_fps144_reversed_REAL.mp4",""
"null","","","html-keyboard-response","526","1192762","0.0-526.0","tlolpbpb","","<span style=""color:Black; font-size:50px;"">Agent B","null","","","","",""
"null","","","video-keyboard-response","527","1195498","0.0-527.0","tlolpbpb","","","null","","Agent B","veridical","FOR_REV_BLOBBY_STIM/1592934.bmp_pp63_L1_V1.0_veridical_freeview_isoFalse_fps144.mp4",""
"","","","call-function","528","1195499","0.0-528.0","tlolpbpb","","","","","","","",""
"2087.929999999935","{""judgement"":1}","[0]","survey-likert","529","1197588","0.0-529.0","tlolpbpb","","","","","","","","1"
"1370.3900000001304","{""confidence"":3}","[0]","survey-likert","530","1198959","0.0-530.0","tlolpbpb","","","","","","","",""
"","","","call-function","531","1198960","0.0-531.0","tlolpbpb","","","","","","","",""
"null","","","html-keyboard-response","532","1200463","0.0-532.0","tlolpbpb","","<span style=""color:Black; font-size:50px;"">Agent A","null","","","","",""
"null","","","video-keyboard-response","533","1203306","0.0-533.0","tlolpbpb","","","null","","Agent A","veridical","FOR_REV_BLOBBY_STIM/713666.bmp_pp97_L3_V1.0_veridical_freeview_isoFalse_fps144.mp4",""
"null","","","html-keyboard-response","534","1204809","0.0-534.0","tlolpbpb","","<span style=""color:Black; font-size:50px;"">Agent B","null","","","","",""
"null","","","video-keyboard-response","535","1207637","0.0-535.0","tlolpbpb","","","null","","Agent B","scrambled","FOR_REV_BLOBBY_STIM/713666.bmp_pp97_L3_V1.0_veridical_freeview_isoFalse_fps144_reversed_REAL.mp4",""
"","","","call-function","536","1207638","0.0-536.0","tlolpbpb","","","","","","","",""
"1216.2249999998603","{""judgement"":0}","[0]","survey-likert","537","1208855","0.0-537.0","tlolpbpb","","","","","","","","0"
"1155.2100000001956","{""confidence"":1}","[0]","survey-likert","538","1210012","0.0-538.0","tlolpbpb","","","","","","","",""
"","","","call-function","539","1210012","0.0-539.0","tlolpbpb","","","","","","","",""
"null","","","html-keyboard-response","540","1211514","0.0-540.0","tlolpbpb","","<span style=""color:Black; font-size:50px;"">Agent A","null","","","","",""
"null","","","video-keyboard-response","541","1214120","0.0-541.0","tlolpbpb","","","null","","Agent A","scrambled","FOR_REV_BLOBBY_STIM/1592397.bmp_pp85_L3_V1.0_veridical_freeview_isoFalse_fps144_reversed_REAL.mp4",""
"null","","","html-keyboard-response","542","1215623","0.0-542.0","tlolpbpb","","<span style=""color:Black; font-size:50px;"">Agent B","null","","","","",""
"null","","","video-keyboard-response","543","1218222","0.0-543.0","tlolpbpb","","","null","","Agent B","veridical","FOR_REV_BLOBBY_STIM/1592397.bmp_pp85_L3_V1.0_veridical_freeview_isoFalse_fps144.mp4",""
"","","","call-function","544","1218223","0.0-544.0","tlolpbpb","","","","","","","",""
"1431.8400000000838","{""judgement"":0}","[0]","survey-likert","545","1219656","0.0-545.0","tlolpbpb","","","","","","","","1"
"851.4299999999348","{""confidence"":0}","[0]","survey-likert","546","1220509","0.0-546.0","tlolpbpb","","","","","","","",""
"","","","call-function","547","1220510","0.0-547.0","tlolpbpb","","","","","","","",""
"null","","","html-keyboard-response","548","1222011","0.0-548.0","tlolpbpb","","<span style=""color:Black; font-size:50px;"">Agent A","null","","","","",""
"null","","","video-keyboard-response","549","1224837","0.0-549.0","tlolpbpb","","","null","","Agent A","veridical","FOR_REV_BLOBBY_STIM/1592351.bmp_pp51_L1_V1.0_veridical_freeview_isoFalse_fps144.mp4",""
"null","","","html-keyboard-response","550","1226341","0.0-550.0","tlolpbpb","","<span style=""color:Black; font-size:50px;"">Agent B","null","","","","",""
"null","","","video-keyboard-response","551","1229176","0.0-551.0","tlolpbpb","","","null","","Agent B","scrambled","FOR_REV_BLOBBY_STIM/1592351.bmp_pp51_L1_V1.0_veridical_freeview_isoFalse_fps144_reversed_REAL.mp4",""
"","","","call-function","552","1229176","0.0-552.0","tlolpbpb","","","","","","","",""
"1458.4199999999255","{""judgement"":0}","[0]","survey-likert","553","1230636","0.0-553.0","tlolpbpb","","","","","","","","0"
"1556.494999999879","{""confidence"":3}","[0]","survey-likert","554","1232193","0.0-554.0","tlolpbpb","","","","","","","",""
"","","","call-function","555","1232194","0.0-555.0","tlolpbpb","","","","","","","",""
"null","","","html-keyboard-response","556","1233697","0.0-556.0","tlolpbpb","","<span style=""color:Black; font-size:50px;"">Agent A","null","","","","",""
"null","","","video-keyboard-response","557","1236302","0.0-557.0","tlolpbpb","","","null","","Agent A","veridical","FOR_REV_BLOBBY_STIM/1593146.bmp_pp93_L1_V1.0_veridical_freeview_isoFalse_fps144.mp4",""
"null","","","html-keyboard-response","558","1237809","0.0-558.0","tlolpbpb","","<span style=""color:Black; font-size:50px;"">Agent B","null","","","","",""
"null","","","video-keyboard-response","559","1240412","0.0-559.0","tlolpbpb","","","null","","Agent B","scrambled","FOR_REV_BLOBBY_STIM/1593146.bmp_pp93_L1_V1.0_veridical_freeview_isoFalse_fps144_reversed_REAL.mp4",""
"","","","call-function","560","1240413","0.0-560.0","tlolpbpb","","","","","","","",""
"1276.3050000001676","{""judgement"":1}","[0]","survey-likert","561","1241691","0.0-561.0","tlolpbpb","","","","","","","","0"
"1843.5100000000093","{""confidence"":0}","[0]","survey-likert","562","1243536","0.0-562.0","tlolpbpb","","","","","","","",""
"","","","call-function","563","1243537","0.0-563.0","tlolpbpb","","","","","","","",""
"null","","","html-keyboard-response","564","1245040","0.0-564.0","tlolpbpb","","<span style=""color:Black; font-size:50px;"">Agent A","null","","","","",""
"null","","","video-keyboard-response","565","1247794","0.0-565.0","tlolpbpb","","","null","","Agent A","scrambled","FOR_REV_BLOBBY_STIM/1592581.bmp_pp100_L3_V1.0_veridical_freeview_isoFalse_fps144_reversed_REAL.mp4",""
"null","","","html-keyboard-response","566","1249298","0.0-566.0","tlolpbpb","","<span style=""color:Black; font-size:50px;"">Agent B","null","","","","",""
"null","","","video-keyboard-response","567","1252051","0.0-567.0","tlolpbpb","","","null","","Agent B","veridical","FOR_REV_BLOBBY_STIM/1592581.bmp_pp100_L3_V1.0_veridical_freeview_isoFalse_fps144.mp4",""
"","","","call-function","568","1252052","0.0-568.0","tlolpbpb","","","","","","","",""
"1539.7650000001304","{""judgement"":1}","[0]","survey-likert","569","1253593","0.0-569.0","tlolpbpb","","","","","","","","1"
"1627.875","{""confidence"":3}","[0]","survey-likert","570","1255222","0.0-570.0","tlolpbpb","","","","","","","",""
"","","","call-function","571","1255223","0.0-571.0","tlolpbpb","","","","","","","",""
"null","","","html-keyboard-response","572","1256728","0.0-572.0","tlolpbpb","","<span style=""color:Black; font-size:50px;"">Agent A","null","","","","",""
"null","","","video-keyboard-response","573","1260310","0.0-573.0","tlolpbpb","","","null","","Agent A","veridical","FOR_REV_BLOBBY_STIM/713707.bmp_pp154_L1_V1.0_veridical_freeview_isoFalse_fps144.mp4",""
"null","","","html-keyboard-response","574","1261816","0.0-574.0","tlolpbpb","","<span style=""color:Black; font-size:50px;"">Agent B","null","","","","",""
"null","","","video-keyboard-response","575","1264441","0.0-575.0","tlolpbpb","","","null","","Agent B","scrambled","FOR_REV_BLOBBY_STIM/713707.bmp_pp154_L1_V1.0_veridical_freeview_isoFalse_fps144_reversed_REAL.mp4",""
"","","","call-function","576","1264442","0.0-576.0","tlolpbpb","","","","","","","",""
"1283.184999999823","{""judgement"":0}","[0]","survey-likert","577","1265726","0.0-577.0","tlolpbpb","","","","","","","","0"
"854.0149999998976","{""confidence"":0}","[0]","survey-likert","578","1266581","0.0-578.0","tlolpbpb","","","","","","","",""
"959.25","","","instructions","579","1267541","0.0-579.0","tlolpbpb","[{""page_index"":0,""viewing_time"":959.1149999999907}]","","","","","","",""
"1142.5550000001676","","","instructions","580","1268684","0.0-580.0","tlolpbpb","[{""page_index"":0,""viewing_time"":1142.4550000000745}]","","","","","","",""
"5741.585000000196","{""post-1"":3}","[0]","survey-likert","581","1274427","0.0-581.0","tlolpbpb","","","","","","","",""
"2176.6399999998976","{""post-1"":1}","[0]","survey-likert","582","1276605","0.0-582.0","tlolpbpb","","","","","","","",""
"7014.4199999999255","{""post-2"":2}","[0]","survey-likert","583","1283620","0.0-583.0","tlolpbpb","","","","","","","",""
"4423.340000000084","{""post-2"":0}","[0]","survey-likert","584","1288045","0.0-584.0","tlolpbpb","","","","","","","",""
"2244.7399999999907","{""post-3"":3}","[0]","survey-likert","585","1290291","0.0-585.0","tlolpbpb","","","","","","","",""
"1472.2700000000186","{""post-3"":1}","[0]","survey-likert","586","1291764","0.0-586.0","tlolpbpb","","","","","","","",""
"3806.715000000084","{""post-4"":2}","[0]","survey-likert","587","1295572","0.0-587.0","tlolpbpb","","","","","","","",""
"1515.7349999998696","{""post-4"":0}","[0]","survey-likert","588","1297089","0.0-588.0","tlolpbpb","","","","","","","",""
"4233.514999999898","{""post-5"":1}","[0]","survey-likert","589","1301324","0.0-589.0","tlolpbpb","","","","","","","",""
"2261.0049999998882","{""post-5"":2}","[0]","survey-likert","590","1303587","0.0-590.0","tlolpbpb","","","","","","","",""
"1338.4099999999162","{""Q0"":""""}","","survey-text","591","1304932","0.0-591.0","tlolpbpb","","","","","","","",""
"80761.6499999999","{""Q0"":""It was relatively easy to decide which agent was more human. I focused on what parts and things in the picture the attention hotspots first looked at. They were often something exciting (like a face, screen, or bright object) in the agent I chose for real while the agent I decided was fake looked first at something obscure (some point on the wall, a random object).""}","","survey-text","592","1385697","0.0-592.0","tlolpbpb","","","","","","","",""
"32079.580000000075","{""Q0"":""There were some that I was really unsure about since the eye movement was pretty similar. It also got a little tiring at the end because there were so many repeated trials of the same task.""}","","survey-text","593","1417780","0.0-593.0","tlolpbpb","","","","","","","",""
"1070.4750000000931","","","instructions","594","1418853","0.0-594.0","tlolpbpb","[{""page_index"":0,""viewing_time"":1070.315000000177}]","","","","","","",""
"36933.42500000005","{""Experimenter_end"":[""Printed ID# tlolpbpb on consent form"",""Given subject SONA credit or payment"",""Given the subject debrief form""]}","[0]","survey-multi-select","595","1455789","0.0-595.0","tlolpbpb","","","","","","","",""
