"rt","responses","question_order","trial_type","trial_index","time_elapsed","internal_node_id","ID","view_history","stimulus","key_press","value","agent","condition","image","correct_answer"
"197801.20500000002","{""Experimenter"":[""Confirmed subject's identity (ID card)"",""Confirmed normal or corrected-to-normal vision"",""Obtained consent (signature and date)"",""Checked the test room lighting"",""Checked computer screen lighting"",""Checked distance from screen to chin rest (50cm)"",""Cleaned and adjusted chin rest"",""Counterbalanced the order of the tasks"",""Opened the experiment in Firefox"",""Made the experiment full screen"",""Encouraged subject to silence phone, put away distractors, etc.""]}","[0]","survey-multi-select","0","197810","0.0-0.0","u4f7wp70","","","","","","","",""
"130429.20500000002","","","instructions","1","328241","0.0-1.0","u4f7wp70","[{""page_index"":0,""viewing_time"":130428.46500000003}]","","","","","","",""
"64355.11499999999","","","instructions","2","392598","0.0-2.0","u4f7wp70","[{""page_index"":0,""viewing_time"":26519.580000000016},{""page_index"":1,""viewing_time"":6100.089999999967},{""page_index"":2,""viewing_time"":3265.0200000000186},{""page_index"":1,""viewing_time"":14720.844999999972},{""page_index"":2,""viewing_time"":13749.445000000007}]","","","","","","",""
"4714.645000000019","","","instructions","3","397313","0.0-3.0","u4f7wp70","[{""page_index"":0,""viewing_time"":4714.544999999984}]","","","","","","",""
"null","","","video-keyboard-response","4","400464","0.0-4.0","u4f7wp70","","","null","","","","",""
"33859.390000000014","","","instructions","5","434324","0.0-5.0","u4f7wp70","[{""page_index"":0,""viewing_time"":6184.030000000028},{""page_index"":1,""viewing_time"":5867.079999999958},{""page_index"":2,""viewing_time"":2208.0750000000116},{""page_index"":3,""viewing_time"":8443.984999999986},{""page_index"":4,""viewing_time"":11156.080000000016}]","","","","","","",""
"7518.75","","","instructions","6","441843","0.0-6.0","u4f7wp70","[{""page_index"":0,""viewing_time"":7518.630000000005}]","","","","","","",""
"","","","call-function","7","441844","0.0-7.0","u4f7wp70","","","","","","","",""
"null","","","html-keyboard-response","8","443351","0.0-8.0","u4f7wp70","","<span style=""color:Black; font-size:50px;"">Agent A","null","","","","",""
"null","","","video-keyboard-response","9","446234","0.0-9.0","u4f7wp70","","","null","","Agent A","veridical","FOR_REV_BLOBBY_STIM/1593035.bmp_pp94_L2_V1.0_veridical_freeview_isoFalse_fps144.mp4",""
"null","","","html-keyboard-response","10","447736","0.0-10.0","u4f7wp70","","<span style=""color:Black; font-size:50px;"">Agent B","null","","","","",""
"null","","","video-keyboard-response","11","450624","0.0-11.0","u4f7wp70","","","null","","Agent B","scrambled","FOR_REV_BLOBBY_STIM/1593035.bmp_pp94_L2_V1.0_veridical_freeview_isoFalse_fps144_reversed_REAL.mp4",""
"","","","call-function","12","450624","0.0-12.0","u4f7wp70","","","","","","","",""
"8381.020000000019","{""judgement"":0}","[0]","survey-likert","13","459006","0.0-13.0","u4f7wp70","","","","","","","","0"
"6885.5","{""confidence"":1}","[0]","survey-likert","14","465893","0.0-14.0","u4f7wp70","","","","","","","",""
"","","","call-function","15","465893","0.0-15.0","u4f7wp70","","","","","","","",""
"null","","","html-keyboard-response","16","467395","0.0-16.0","u4f7wp70","","<span style=""color:Black; font-size:50px;"">Agent A","null","","","","",""
"null","","","video-keyboard-response","17","470021","0.0-17.0","u4f7wp70","","","null","","Agent A","veridical","FOR_REV_BLOBBY_STIM/1593146.bmp_pp93_L1_V1.0_veridical_freeview_isoFalse_fps144.mp4",""
"null","","","html-keyboard-response","18","471524","0.0-18.0","u4f7wp70","","<span style=""color:Black; font-size:50px;"">Agent B","null","","","","",""
"null","","","video-keyboard-response","19","474130","0.0-19.0","u4f7wp70","","","null","","Agent B","scrambled","FOR_REV_BLOBBY_STIM/1593146.bmp_pp93_L1_V1.0_veridical_freeview_isoFalse_fps144_reversed_REAL.mp4",""
"","","","call-function","20","474130","0.0-20.0","u4f7wp70","","","","","","","",""
"5226.924999999988","{""judgement"":1}","[0]","survey-likert","21","479359","0.0-21.0","u4f7wp70","","","","","","","","0"
"3152.545000000042","{""confidence"":1}","[0]","survey-likert","22","482513","0.0-22.0","u4f7wp70","","","","","","","",""
"","","","call-function","23","482513","0.0-23.0","u4f7wp70","","","","","","","",""
"null","","","html-keyboard-response","24","484016","0.0-24.0","u4f7wp70","","<span style=""color:Black; font-size:50px;"">Agent A","null","","","","",""
"null","","","video-keyboard-response","25","486934","0.0-25.0","u4f7wp70","","","null","","Agent A","veridical","FOR_REV_BLOBBY_STIM/498253.bmp_pp67_L2_V1.0_veridical_freeview_isoFalse_fps144.mp4",""
"null","","","html-keyboard-response","26","488440","0.0-26.0","u4f7wp70","","<span style=""color:Black; font-size:50px;"">Agent B","null","","","","",""
"null","","","video-keyboard-response","27","491301","0.0-27.0","u4f7wp70","","","null","","Agent B","scrambled","FOR_REV_BLOBBY_STIM/498253.bmp_pp67_L2_V1.0_veridical_freeview_isoFalse_fps144_reversed_REAL.mp4",""
"","","","call-function","28","491302","0.0-28.0","u4f7wp70","","","","","","","",""
"4985.434999999998","{""judgement"":0}","[0]","survey-likert","29","496288","0.0-29.0","u4f7wp70","","","","","","","","0"
"6363.34500000003","{""confidence"":1}","[0]","survey-likert","30","502652","0.0-30.0","u4f7wp70","","","","","","","",""
"","","","call-function","31","502653","0.0-31.0","u4f7wp70","","","","","","","",""
"null","","","html-keyboard-response","32","504155","0.0-32.0","u4f7wp70","","<span style=""color:Black; font-size:50px;"">Agent A","null","","","","",""
"null","","","video-keyboard-response","33","506699","0.0-33.0","u4f7wp70","","","null","","Agent A","scrambled","FOR_REV_BLOBBY_STIM/713513.bmp_pp62_L2_V1.0_veridical_freeview_isoFalse_fps144_reversed_REAL.mp4",""
"null","","","html-keyboard-response","34","508202","0.0-34.0","u4f7wp70","","<span style=""color:Black; font-size:50px;"">Agent B","null","","","","",""
"null","","","video-keyboard-response","35","510731","0.0-35.0","u4f7wp70","","","null","","Agent B","veridical","FOR_REV_BLOBBY_STIM/713513.bmp_pp62_L2_V1.0_veridical_freeview_isoFalse_fps144.mp4",""
"","","","call-function","36","510732","0.0-36.0","u4f7wp70","","","","","","","",""
"12153.684999999998","{""judgement"":0}","[0]","survey-likert","37","522888","0.0-37.0","u4f7wp70","","","","","","","","1"
"2882.3150000000023","{""confidence"":0}","[0]","survey-likert","38","525772","0.0-38.0","u4f7wp70","","","","","","","",""
"","","","call-function","39","525773","0.0-39.0","u4f7wp70","","","","","","","",""
"null","","","html-keyboard-response","40","527276","0.0-40.0","u4f7wp70","","<span style=""color:Black; font-size:50px;"">Agent A","null","","","","",""
"null","","","video-keyboard-response","41","530103","0.0-41.0","u4f7wp70","","","null","","Agent A","scrambled","FOR_REV_BLOBBY_STIM/713371.bmp_pp68_L1_V1.0_veridical_freeview_isoFalse_fps144_reversed_REAL.mp4",""
"null","","","html-keyboard-response","42","531607","0.0-42.0","u4f7wp70","","<span style=""color:Black; font-size:50px;"">Agent B","null","","","","",""
"null","","","video-keyboard-response","43","534437","0.0-43.0","u4f7wp70","","","null","","Agent B","veridical","FOR_REV_BLOBBY_STIM/713371.bmp_pp68_L1_V1.0_veridical_freeview_isoFalse_fps144.mp4",""
"","","","call-function","44","534437","0.0-44.0","u4f7wp70","","","","","","","",""
"6085.194999999949","{""judgement"":1}","[0]","survey-likert","45","540523","0.0-45.0","u4f7wp70","","","","","","","","1"
"3368","{""confidence"":0}","[0]","survey-likert","46","543892","0.0-46.0","u4f7wp70","","","","","","","",""
"","","","call-function","47","543893","0.0-47.0","u4f7wp70","","","","","","","",""
"null","","","html-keyboard-response","48","545396","0.0-48.0","u4f7wp70","","<span style=""color:Black; font-size:50px;"">Agent A","null","","","","",""
"null","","","video-keyboard-response","49","548291","0.0-49.0","u4f7wp70","","","null","","Agent A","scrambled","FOR_REV_BLOBBY_STIM/285905.bmp_pp57_L1_V1.0_veridical_freeview_isoFalse_fps144_reversed_REAL.mp4",""
"null","","","html-keyboard-response","50","549793","0.0-50.0","u4f7wp70","","<span style=""color:Black; font-size:50px;"">Agent B","null","","","","",""
"null","","","video-keyboard-response","51","552683","0.0-51.0","u4f7wp70","","","null","","Agent B","veridical","FOR_REV_BLOBBY_STIM/285905.bmp_pp57_L1_V1.0_veridical_freeview_isoFalse_fps144.mp4",""
"","","","call-function","52","552684","0.0-52.0","u4f7wp70","","","","","","","",""
"4045.7700000000186","{""judgement"":1}","[0]","survey-likert","53","556730","0.0-53.0","u4f7wp70","","","","","","","","1"
"3713.7949999999255","{""confidence"":1}","[0]","survey-likert","54","560445","0.0-54.0","u4f7wp70","","","","","","","",""
"","","","call-function","55","560446","0.0-55.0","u4f7wp70","","","","","","","",""
"null","","","html-keyboard-response","56","561951","0.0-56.0","u4f7wp70","","<span style=""color:Black; font-size:50px;"">Agent A","null","","","","",""
"null","","","video-keyboard-response","57","564728","0.0-57.0","u4f7wp70","","","null","","Agent A","veridical","FOR_REV_BLOBBY_STIM/1591954.bmp_pp62_L2_V1.0_veridical_freeview_isoFalse_fps144.mp4",""
"null","","","html-keyboard-response","58","566231","0.0-58.0","u4f7wp70","","<span style=""color:Black; font-size:50px;"">Agent B","null","","","","",""
"null","","","video-keyboard-response","59","568993","0.0-59.0","u4f7wp70","","","null","","Agent B","scrambled","FOR_REV_BLOBBY_STIM/1591954.bmp_pp62_L2_V1.0_veridical_freeview_isoFalse_fps144_reversed_REAL.mp4",""
"","","","call-function","60","568993","0.0-60.0","u4f7wp70","","","","","","","",""
"3653.1049999999814","{""judgement"":0}","[0]","survey-likert","61","572647","0.0-61.0","u4f7wp70","","","","","","","","0"
"2553.3499999999767","{""confidence"":0}","[0]","survey-likert","62","575201","0.0-62.0","u4f7wp70","","","","","","","",""
"","","","call-function","63","575202","0.0-63.0","u4f7wp70","","","","","","","",""
"null","","","html-keyboard-response","64","576706","0.0-64.0","u4f7wp70","","<span style=""color:Black; font-size:50px;"">Agent A","null","","","","",""
"null","","","video-keyboard-response","65","579515","0.0-65.0","u4f7wp70","","","null","","Agent A","scrambled","FOR_REV_BLOBBY_STIM/1592499.bmp_pp96_L2_V1.0_veridical_freeview_isoFalse_fps144_reversed_REAL.mp4",""
"null","","","html-keyboard-response","66","581018","0.0-66.0","u4f7wp70","","<span style=""color:Black; font-size:50px;"">Agent B","null","","","","",""
"null","","","video-keyboard-response","67","583821","0.0-67.0","u4f7wp70","","","null","","Agent B","veridical","FOR_REV_BLOBBY_STIM/1592499.bmp_pp96_L2_V1.0_veridical_freeview_isoFalse_fps144.mp4",""
"","","","call-function","68","583821","0.0-68.0","u4f7wp70","","","","","","","",""
"149970.99","{""judgement"":0}","[0]","survey-likert","69","733793","0.0-69.0","u4f7wp70","","","","","","","","1"
"4480.994999999995","{""confidence"":1}","[0]","survey-likert","70","738276","0.0-70.0","u4f7wp70","","","","","","","",""
"","","","call-function","71","738277","0.0-71.0","u4f7wp70","","","","","","","",""
"null","","","html-keyboard-response","72","739778","0.0-72.0","u4f7wp70","","<span style=""color:Black; font-size:50px;"">Agent A","null","","","","",""
"null","","","video-keyboard-response","73","742629","0.0-73.0","u4f7wp70","","","null","","Agent A","veridical","FOR_REV_BLOBBY_STIM/1591961.bmp_pp67_L2_V1.0_veridical_freeview_isoFalse_fps144.mp4",""
"null","","","html-keyboard-response","74","744136","0.0-74.0","u4f7wp70","","<span style=""color:Black; font-size:50px;"">Agent B","null","","","","",""
"null","","","video-keyboard-response","75","746955","0.0-75.0","u4f7wp70","","","null","","Agent B","scrambled","FOR_REV_BLOBBY_STIM/1591961.bmp_pp67_L2_V1.0_veridical_freeview_isoFalse_fps144_reversed_REAL.mp4",""
"","","","call-function","76","746956","0.0-76.0","u4f7wp70","","","","","","","",""
"2867.8499999999767","{""judgement"":0}","[0]","survey-likert","77","749825","0.0-77.0","u4f7wp70","","","","","","","","0"
"3613.9949999999953","{""confidence"":2}","[0]","survey-likert","78","753440","0.0-78.0","u4f7wp70","","","","","","","",""
"","","","call-function","79","753440","0.0-79.0","u4f7wp70","","","","","","","",""
"null","","","html-keyboard-response","80","754943","0.0-80.0","u4f7wp70","","<span style=""color:Black; font-size:50px;"">Agent A","null","","","","",""
"null","","","video-keyboard-response","81","757733","0.0-81.0","u4f7wp70","","","null","","Agent A","veridical","FOR_REV_BLOBBY_STIM/1159855.bmp_pp99_L2_V1.0_veridical_freeview_isoFalse_fps144.mp4",""
"null","","","html-keyboard-response","82","759235","0.0-82.0","u4f7wp70","","<span style=""color:Black; font-size:50px;"">Agent B","null","","","","",""
"null","","","video-keyboard-response","83","762026","0.0-83.0","u4f7wp70","","","null","","Agent B","scrambled","FOR_REV_BLOBBY_STIM/1159855.bmp_pp99_L2_V1.0_veridical_freeview_isoFalse_fps144_reversed_REAL.mp4",""
"","","","call-function","84","762027","0.0-84.0","u4f7wp70","","","","","","","",""
"2854.5400000000373","{""judgement"":1}","[0]","survey-likert","85","764882","0.0-85.0","u4f7wp70","","","","","","","","0"
"12111.165000000037","{""confidence"":2}","[0]","survey-likert","86","776994","0.0-86.0","u4f7wp70","","","","","","","",""
"7979.104999999981","","","instructions","87","784974","0.0-87.0","u4f7wp70","[{""page_index"":0,""viewing_time"":3923.9400000000605},{""page_index"":1,""viewing_time"":2100.0200000000186},{""page_index"":2,""viewing_time"":1954.9449999999488}]","","","","","","",""
"9301.659999999916","","","instructions","88","794276","0.0-88.0","u4f7wp70","[{""page_index"":0,""viewing_time"":2288.5749999999534},{""page_index"":1,""viewing_time"":5833.885000000009},{""page_index"":2,""viewing_time"":1178.9899999999907}]","","","","","","",""
"","","","call-function","89","794277","0.0-89.0","u4f7wp70","","","","","","","",""
"null","","","html-keyboard-response","90","795781","0.0-90.0","u4f7wp70","","<span style=""color:Black; font-size:50px;"">Agent A","null","","","","",""
"null","","","video-keyboard-response","91","798641","0.0-91.0","u4f7wp70","","","null","","Agent A","scrambled","FOR_REV_BLOBBY_STIM/713666.bmp_pp97_L3_V1.0_veridical_freeview_isoFalse_fps144_reversed_REAL.mp4",""
"null","","","html-keyboard-response","92","800146","0.0-92.0","u4f7wp70","","<span style=""color:Black; font-size:50px;"">Agent B","null","","","","",""
"null","","","video-keyboard-response","93","802992","0.0-93.0","u4f7wp70","","","null","","Agent B","veridical","FOR_REV_BLOBBY_STIM/713666.bmp_pp97_L3_V1.0_veridical_freeview_isoFalse_fps144.mp4",""
"","","","call-function","94","802992","0.0-94.0","u4f7wp70","","","","","","","",""
"2916.4250000000466","{""judgement"":0}","[0]","survey-likert","95","805910","0.0-95.0","u4f7wp70","","","","","","","","1"
"4178.079999999958","{""confidence"":2}","[0]","survey-likert","96","810089","0.0-96.0","u4f7wp70","","","","","","","",""
"","","","call-function","97","810089","0.0-97.0","u4f7wp70","","","","","","","",""
"null","","","html-keyboard-response","98","811592","0.0-98.0","u4f7wp70","","<span style=""color:Black; font-size:50px;"">Agent A","null","","","","",""
"null","","","video-keyboard-response","99","814397","0.0-99.0","u4f7wp70","","","null","","Agent A","scrambled","FOR_REV_BLOBBY_STIM/1159784.bmp_pp73_L3_V1.0_veridical_freeview_isoFalse_fps144_reversed_REAL.mp4",""
"null","","","html-keyboard-response","100","815899","0.0-100.0","u4f7wp70","","<span style=""color:Black; font-size:50px;"">Agent B","null","","","","",""
"null","","","video-keyboard-response","101","818703","0.0-101.0","u4f7wp70","","","null","","Agent B","veridical","FOR_REV_BLOBBY_STIM/1159784.bmp_pp73_L3_V1.0_veridical_freeview_isoFalse_fps144.mp4",""
"","","","call-function","102","818703","0.0-102.0","u4f7wp70","","","","","","","",""
"3076.9850000001024","{""judgement"":1}","[0]","survey-likert","103","821781","0.0-103.0","u4f7wp70","","","","","","","","1"
"5313.300000000047","{""confidence"":2}","[0]","survey-likert","104","827095","0.0-104.0","u4f7wp70","","","","","","","",""
"","","","call-function","105","827096","0.0-105.0","u4f7wp70","","","","","","","",""
"null","","","html-keyboard-response","106","828599","0.0-106.0","u4f7wp70","","<span style=""color:Black; font-size:50px;"">Agent A","null","","","","",""
"null","","","video-keyboard-response","107","831134","0.0-107.0","u4f7wp70","","","null","","Agent A","veridical","FOR_REV_BLOBBY_STIM/713796.bmp_pp84_L3_V1.0_veridical_freeview_isoFalse_fps144.mp4",""
"null","","","html-keyboard-response","108","832637","0.0-108.0","u4f7wp70","","<span style=""color:Black; font-size:50px;"">Agent B","null","","","","",""
"null","","","video-keyboard-response","109","835160","0.0-109.0","u4f7wp70","","","null","","Agent B","scrambled","FOR_REV_BLOBBY_STIM/713796.bmp_pp84_L3_V1.0_veridical_freeview_isoFalse_fps144_reversed_REAL.mp4",""
"","","","call-function","110","835161","0.0-110.0","u4f7wp70","","","","","","","",""
"2117.890000000014","{""judgement"":1}","[0]","survey-likert","111","837280","0.0-111.0","u4f7wp70","","","","","","","","0"
"1508.1050000000978","{""confidence"":2}","[0]","survey-likert","112","838789","0.0-112.0","u4f7wp70","","","","","","","",""
"","","","call-function","113","838789","0.0-113.0","u4f7wp70","","","","","","","",""
"null","","","html-keyboard-response","114","840292","0.0-114.0","u4f7wp70","","<span style=""color:Black; font-size:50px;"">Agent A","null","","","","",""
"null","","","video-keyboard-response","115","843113","0.0-115.0","u4f7wp70","","","null","","Agent A","scrambled","FOR_REV_BLOBBY_STIM/713681.bmp_pp86_L2_V1.0_veridical_freeview_isoFalse_fps144_reversed_REAL.mp4",""
"null","","","html-keyboard-response","116","844619","0.0-116.0","u4f7wp70","","<span style=""color:Black; font-size:50px;"">Agent B","null","","","","",""
"null","","","video-keyboard-response","117","847435","0.0-117.0","u4f7wp70","","","null","","Agent B","veridical","FOR_REV_BLOBBY_STIM/713681.bmp_pp86_L2_V1.0_veridical_freeview_isoFalse_fps144.mp4",""
"","","","call-function","118","847437","0.0-118.0","u4f7wp70","","","","","","","",""
"1998.6650000000373","{""judgement"":1}","[0]","survey-likert","119","849436","0.0-119.0","u4f7wp70","","","","","","","","1"
"3305.034999999916","{""confidence"":3}","[0]","survey-likert","120","852743","0.0-120.0","u4f7wp70","","","","","","","",""
"","","","call-function","121","852744","0.0-121.0","u4f7wp70","","","","","","","",""
"null","","","html-keyboard-response","122","854247","0.0-122.0","u4f7wp70","","<span style=""color:Black; font-size:50px;"">Agent A","null","","","","",""
"null","","","video-keyboard-response","123","857103","0.0-123.0","u4f7wp70","","","null","","Agent A","veridical","FOR_REV_BLOBBY_STIM/1160127.bmp_pp90_L2_V1.0_veridical_freeview_isoFalse_fps144.mp4",""
"null","","","html-keyboard-response","124","858608","0.0-124.0","u4f7wp70","","<span style=""color:Black; font-size:50px;"">Agent B","null","","","","",""
"null","","","video-keyboard-response","125","861450","0.0-125.0","u4f7wp70","","","null","","Agent B","scrambled","FOR_REV_BLOBBY_STIM/1160127.bmp_pp90_L2_V1.0_veridical_freeview_isoFalse_fps144_reversed_REAL.mp4",""
"","","","call-function","126","861451","0.0-126.0","u4f7wp70","","","","","","","",""
"2202.3099999999395","{""judgement"":0}","[0]","survey-likert","127","863654","0.0-127.0","u4f7wp70","","","","","","","","0"
"2891.640000000014","{""confidence"":1}","[0]","survey-likert","128","866547","0.0-128.0","u4f7wp70","","","","","","","",""
"","","","call-function","129","866547","0.0-129.0","u4f7wp70","","","","","","","",""
"null","","","html-keyboard-response","130","868051","0.0-130.0","u4f7wp70","","<span style=""color:Black; font-size:50px;"">Agent A","null","","","","",""
"null","","","video-keyboard-response","131","870943","0.0-131.0","u4f7wp70","","","null","","Agent A","veridical","FOR_REV_BLOBBY_STIM/713593.bmp_pp64_L1_V1.0_veridical_freeview_isoFalse_fps144.mp4",""
"null","","","html-keyboard-response","132","872445","0.0-132.0","u4f7wp70","","<span style=""color:Black; font-size:50px;"">Agent B","null","","","","",""
"null","","","video-keyboard-response","133","875271","0.0-133.0","u4f7wp70","","","null","","Agent B","scrambled","FOR_REV_BLOBBY_STIM/713593.bmp_pp64_L1_V1.0_veridical_freeview_isoFalse_fps144_reversed_REAL.mp4",""
"","","","call-function","134","875271","0.0-134.0","u4f7wp70","","","","","","","",""
"2679.140000000014","{""judgement"":0}","[0]","survey-likert","135","877951","0.0-135.0","u4f7wp70","","","","","","","","0"
"2506.805000000051","{""confidence"":1}","[0]","survey-likert","136","880459","0.0-136.0","u4f7wp70","","","","","","","",""
"","","","call-function","137","880459","0.0-137.0","u4f7wp70","","","","","","","",""
"null","","","html-keyboard-response","138","881963","0.0-138.0","u4f7wp70","","<span style=""color:Black; font-size:50px;"">Agent A","null","","","","",""
"null","","","video-keyboard-response","139","884640","0.0-139.0","u4f7wp70","","","null","","Agent A","veridical","FOR_REV_BLOBBY_STIM/498149.bmp_pp99_L2_V1.0_veridical_freeview_isoFalse_fps144.mp4",""
"null","","","html-keyboard-response","140","886143","0.0-140.0","u4f7wp70","","<span style=""color:Black; font-size:50px;"">Agent B","null","","","","",""
"null","","","video-keyboard-response","141","888797","0.0-141.0","u4f7wp70","","","null","","Agent B","scrambled","FOR_REV_BLOBBY_STIM/498149.bmp_pp99_L2_V1.0_veridical_freeview_isoFalse_fps144_reversed_REAL.mp4",""
"","","","call-function","142","888798","0.0-142.0","u4f7wp70","","","","","","","",""
"2533.5400000000373","{""judgement"":0}","[0]","survey-likert","143","891332","0.0-143.0","u4f7wp70","","","","","","","","0"
"2269.8099999999395","{""confidence"":1}","[0]","survey-likert","144","893603","0.0-144.0","u4f7wp70","","","","","","","",""
"","","","call-function","145","893603","0.0-145.0","u4f7wp70","","","","","","","",""
"null","","","html-keyboard-response","146","895105","0.0-146.0","u4f7wp70","","<span style=""color:Black; font-size:50px;"">Agent A","null","","","","",""
"null","","","video-keyboard-response","147","897830","0.0-147.0","u4f7wp70","","","null","","Agent A","veridical","FOR_REV_BLOBBY_STIM/1160168.bmp_pp53_L2_V1.0_veridical_freeview_isoFalse_fps144.mp4",""
"null","","","html-keyboard-response","148","899332","0.0-148.0","u4f7wp70","","<span style=""color:Black; font-size:50px;"">Agent B","null","","","","",""
"null","","","video-keyboard-response","149","902045","0.0-149.0","u4f7wp70","","","null","","Agent B","scrambled","FOR_REV_BLOBBY_STIM/1160168.bmp_pp53_L2_V1.0_veridical_freeview_isoFalse_fps144_reversed_REAL.mp4",""
"","","","call-function","150","902046","0.0-150.0","u4f7wp70","","","","","","","",""
"3135.420000000042","{""judgement"":0}","[0]","survey-likert","151","905182","0.0-151.0","u4f7wp70","","","","","","","","0"
"7841.820000000065","{""confidence"":1}","[0]","survey-likert","152","913025","0.0-152.0","u4f7wp70","","","","","","","",""
"","","","call-function","153","913025","0.0-153.0","u4f7wp70","","","","","","","",""
"null","","","html-keyboard-response","154","914529","0.0-154.0","u4f7wp70","","<span style=""color:Black; font-size:50px;"">Agent A","null","","","","",""
"null","","","video-keyboard-response","155","917292","0.0-155.0","u4f7wp70","","","null","","Agent A","scrambled","FOR_REV_BLOBBY_STIM/1592934.bmp_pp63_L1_V1.0_veridical_freeview_isoFalse_fps144_reversed_REAL.mp4",""
"null","","","html-keyboard-response","156","918795","0.0-156.0","u4f7wp70","","<span style=""color:Black; font-size:50px;"">Agent B","null","","","","",""
"null","","","video-keyboard-response","157","921508","0.0-157.0","u4f7wp70","","","null","","Agent B","veridical","FOR_REV_BLOBBY_STIM/1592934.bmp_pp63_L1_V1.0_veridical_freeview_isoFalse_fps144.mp4",""
"","","","call-function","158","921509","0.0-158.0","u4f7wp70","","","","","","","",""
"3146.515000000014","{""judgement"":0}","[0]","survey-likert","159","924656","0.0-159.0","u4f7wp70","","","","","","","","1"
"3151.4799999999814","{""confidence"":2}","[0]","survey-likert","160","927809","0.0-160.0","u4f7wp70","","","","","","","",""
"","","","call-function","161","927809","0.0-161.0","u4f7wp70","","","","","","","",""
"null","","","html-keyboard-response","162","929315","0.0-162.0","u4f7wp70","","<span style=""color:Black; font-size:50px;"">Agent A","null","","","","",""
"null","","","video-keyboard-response","163","931870","0.0-163.0","u4f7wp70","","","null","","Agent A","scrambled","FOR_REV_BLOBBY_STIM/713760.bmp_pp81_L1_V1.0_veridical_freeview_isoFalse_fps144_reversed_REAL.mp4",""
"null","","","html-keyboard-response","164","933376","0.0-164.0","u4f7wp70","","<span style=""color:Black; font-size:50px;"">Agent B","null","","","","",""
"null","","","video-keyboard-response","165","935935","0.0-165.0","u4f7wp70","","","null","","Agent B","veridical","FOR_REV_BLOBBY_STIM/713760.bmp_pp81_L1_V1.0_veridical_freeview_isoFalse_fps144.mp4",""
"","","","call-function","166","935936","0.0-166.0","u4f7wp70","","","","","","","",""
"2072.375","{""judgement"":0}","[0]","survey-likert","167","938009","0.0-167.0","u4f7wp70","","","","","","","","1"
"3442.7050000000745","{""confidence"":3}","[0]","survey-likert","168","941453","0.0-168.0","u4f7wp70","","","","","","","",""
"6986.604999999981","","","instructions","169","948440","0.0-169.0","u4f7wp70","[{""page_index"":0,""viewing_time"":1900.25},{""page_index"":1,""viewing_time"":2023.920000000042},{""page_index"":2,""viewing_time"":3062.29999999993}]","","","","","","",""
"9496.910000000033","","","instructions","170","957938","0.0-170.0","u4f7wp70","[{""page_index"":0,""viewing_time"":1839.579999999958},{""page_index"":1,""viewing_time"":6065.055000000051},{""page_index"":2,""viewing_time"":1592.1149999999907}]","","","","","","",""
"","","","call-function","171","957939","0.0-171.0","u4f7wp70","","","","","","","",""
"null","","","html-keyboard-response","172","959442","0.0-172.0","u4f7wp70","","<span style=""color:Black; font-size:50px;"">Agent A","null","","","","",""
"null","","","video-keyboard-response","173","961984","0.0-173.0","u4f7wp70","","","null","","Agent A","scrambled","FOR_REV_BLOBBY_STIM/1159813.bmp_pp79_L2_V1.0_veridical_freeview_isoFalse_fps144_reversed_REAL.mp4",""
"null","","","html-keyboard-response","174","963486","0.0-174.0","u4f7wp70","","<span style=""color:Black; font-size:50px;"">Agent B","null","","","","",""
"null","","","video-keyboard-response","175","966017","0.0-175.0","u4f7wp70","","","null","","Agent B","veridical","FOR_REV_BLOBBY_STIM/1159813.bmp_pp79_L2_V1.0_veridical_freeview_isoFalse_fps144.mp4",""
"","","","call-function","176","966018","0.0-176.0","u4f7wp70","","","","","","","",""
"2566.5","{""judgement"":1}","[0]","survey-likert","177","968585","0.0-177.0","u4f7wp70","","","","","","","","1"
"2369.0999999999767","{""confidence"":1}","[0]","survey-likert","178","970956","0.0-178.0","u4f7wp70","","","","","","","",""
"","","","call-function","179","970956","0.0-179.0","u4f7wp70","","","","","","","",""
"null","","","html-keyboard-response","180","972458","0.0-180.0","u4f7wp70","","<span style=""color:Black; font-size:50px;"">Agent A","null","","","","",""
"null","","","video-keyboard-response","181","975278","0.0-181.0","u4f7wp70","","","null","","Agent A","scrambled","FOR_REV_BLOBBY_STIM/1592362.bmp_pp95_L2_V1.0_veridical_freeview_isoFalse_fps144_reversed_REAL.mp4",""
"null","","","html-keyboard-response","182","976783","0.0-182.0","u4f7wp70","","<span style=""color:Black; font-size:50px;"">Agent B","null","","","","",""
"null","","","video-keyboard-response","183","979603","0.0-183.0","u4f7wp70","","","null","","Agent B","veridical","FOR_REV_BLOBBY_STIM/1592362.bmp_pp95_L2_V1.0_veridical_freeview_isoFalse_fps144.mp4",""
"","","","call-function","184","979603","0.0-184.0","u4f7wp70","","","","","","","",""
"2034.4000000000233","{""judgement"":1}","[0]","survey-likert","185","981638","0.0-185.0","u4f7wp70","","","","","","","","1"
"2907.945000000065","{""confidence"":1}","[0]","survey-likert","186","984547","0.0-186.0","u4f7wp70","","","","","","","",""
"","","","call-function","187","984548","0.0-187.0","u4f7wp70","","","","","","","",""
"null","","","html-keyboard-response","188","986049","0.0-188.0","u4f7wp70","","<span style=""color:Black; font-size:50px;"">Agent A","null","","","","",""
"null","","","video-keyboard-response","189","988622","0.0-189.0","u4f7wp70","","","null","","Agent A","veridical","FOR_REV_BLOBBY_STIM/1159515.bmp_pp84_L3_V1.0_veridical_freeview_isoFalse_fps144.mp4",""
"null","","","html-keyboard-response","190","990125","0.0-190.0","u4f7wp70","","<span style=""color:Black; font-size:50px;"">Agent B","null","","","","",""
"null","","","video-keyboard-response","191","992737","0.0-191.0","u4f7wp70","","","null","","Agent B","scrambled","FOR_REV_BLOBBY_STIM/1159515.bmp_pp84_L3_V1.0_veridical_freeview_isoFalse_fps144_reversed_REAL.mp4",""
"","","","call-function","192","992737","0.0-192.0","u4f7wp70","","","","","","","",""
"1927.8149999999441","{""judgement"":1}","[0]","survey-likert","193","994666","0.0-193.0","u4f7wp70","","","","","","","","0"
"2202.29999999993","{""confidence"":1}","[0]","survey-likert","194","996869","0.0-194.0","u4f7wp70","","","","","","","",""
"","","","call-function","195","996870","0.0-195.0","u4f7wp70","","","","","","","",""
"null","","","html-keyboard-response","196","998374","0.0-196.0","u4f7wp70","","<span style=""color:Black; font-size:50px;"">Agent A","null","","","","",""
"null","","","video-keyboard-response","197","1001179","0.0-197.0","u4f7wp70","","","null","","Agent A","scrambled","FOR_REV_BLOBBY_STIM/713620.bmp_pp65_L3_V1.0_veridical_freeview_isoFalse_fps144_reversed_REAL.mp4",""
"null","","","html-keyboard-response","198","1002681","0.0-198.0","u4f7wp70","","<span style=""color:Black; font-size:50px;"">Agent B","null","","","","",""
"null","","","video-keyboard-response","199","1005485","0.0-199.0","u4f7wp70","","","null","","Agent B","veridical","FOR_REV_BLOBBY_STIM/713620.bmp_pp65_L3_V1.0_veridical_freeview_isoFalse_fps144.mp4",""
"","","","call-function","200","1005485","0.0-200.0","u4f7wp70","","","","","","","",""
"1945.9899999999907","{""judgement"":1}","[0]","survey-likert","201","1007432","0.0-201.0","u4f7wp70","","","","","","","","1"
"2497.1450000000186","{""confidence"":2}","[0]","survey-likert","202","1009930","0.0-202.0","u4f7wp70","","","","","","","",""
"","","","call-function","203","1009930","0.0-203.0","u4f7wp70","","","","","","","",""
"null","","","html-keyboard-response","204","1011431","0.0-204.0","u4f7wp70","","<span style=""color:Black; font-size:50px;"">Agent A","null","","","","",""
"null","","","video-keyboard-response","205","1014185","0.0-205.0","u4f7wp70","","","null","","Agent A","scrambled","FOR_REV_BLOBBY_STIM/1159446.bmp_pp60_L3_V1.0_veridical_freeview_isoFalse_fps144_reversed_REAL.mp4",""
"null","","","html-keyboard-response","206","1015686","0.0-206.0","u4f7wp70","","<span style=""color:Black; font-size:50px;"">Agent B","null","","","","",""
"null","","","video-keyboard-response","207","1018439","0.0-207.0","u4f7wp70","","","null","","Agent B","veridical","FOR_REV_BLOBBY_STIM/1159446.bmp_pp60_L3_V1.0_veridical_freeview_isoFalse_fps144.mp4",""
"","","","call-function","208","1018439","0.0-208.0","u4f7wp70","","","","","","","",""
"2541.3249999999534","{""judgement"":1}","[0]","survey-likert","209","1020982","0.0-209.0","u4f7wp70","","","","","","","","1"
"2345.2449999999953","{""confidence"":0}","[0]","survey-likert","210","1023328","0.0-210.0","u4f7wp70","","","","","","","",""
"","","","call-function","211","1023328","0.0-211.0","u4f7wp70","","","","","","","",""
"null","","","html-keyboard-response","212","1024831","0.0-212.0","u4f7wp70","","<span style=""color:Black; font-size:50px;"">Agent A","null","","","","",""
"null","","","video-keyboard-response","213","1027662","0.0-213.0","u4f7wp70","","","null","","Agent A","scrambled","FOR_REV_BLOBBY_STIM/712977.bmp_pp51_L1_V1.0_veridical_freeview_isoFalse_fps144_reversed_REAL.mp4",""
"null","","","html-keyboard-response","214","1029163","0.0-214.0","u4f7wp70","","<span style=""color:Black; font-size:50px;"">Agent B","null","","","","",""
"null","","","video-keyboard-response","215","1031999","0.0-215.0","u4f7wp70","","","null","","Agent B","veridical","FOR_REV_BLOBBY_STIM/712977.bmp_pp51_L1_V1.0_veridical_freeview_isoFalse_fps144.mp4",""
"","","","call-function","216","1031999","0.0-216.0","u4f7wp70","","","","","","","",""
"5527.354999999981","{""judgement"":0}","[0]","survey-likert","217","1037527","0.0-217.0","u4f7wp70","","","","","","","","1"
"9702.310000000056","{""confidence"":1}","[0]","survey-likert","218","1047231","0.0-218.0","u4f7wp70","","","","","","","",""
"","","","call-function","219","1047232","0.0-219.0","u4f7wp70","","","","","","","",""
"null","","","html-keyboard-response","220","1048738","0.0-220.0","u4f7wp70","","<span style=""color:Black; font-size:50px;"">Agent A","null","","","","",""
"null","","","video-keyboard-response","221","1051421","0.0-221.0","u4f7wp70","","","null","","Agent A","veridical","FOR_REV_BLOBBY_STIM/713211.bmp_pp100_L3_V1.0_veridical_freeview_isoFalse_fps144.mp4",""
"null","","","html-keyboard-response","222","1052927","0.0-222.0","u4f7wp70","","<span style=""color:Black; font-size:50px;"">Agent B","null","","","","",""
"null","","","video-keyboard-response","223","1055590","0.0-223.0","u4f7wp70","","","null","","Agent B","scrambled","FOR_REV_BLOBBY_STIM/713211.bmp_pp100_L3_V1.0_veridical_freeview_isoFalse_fps144_reversed_REAL.mp4",""
"","","","call-function","224","1055591","0.0-224.0","u4f7wp70","","","","","","","",""
"4503.699999999953","{""judgement"":1}","[0]","survey-likert","225","1060095","0.0-225.0","u4f7wp70","","","","","","","","0"
"2864.630000000121","{""confidence"":1}","[0]","survey-likert","226","1062961","0.0-226.0","u4f7wp70","","","","","","","",""
"","","","call-function","227","1062962","0.0-227.0","u4f7wp70","","","","","","","",""
"null","","","html-keyboard-response","228","1064464","0.0-228.0","u4f7wp70","","<span style=""color:Black; font-size:50px;"">Agent A","null","","","","",""
"null","","","video-keyboard-response","229","1067259","0.0-229.0","u4f7wp70","","","null","","Agent A","scrambled","FOR_REV_BLOBBY_STIM/498155.bmp_pp61_L2_V1.0_veridical_freeview_isoFalse_fps144_reversed_REAL.mp4",""
"null","","","html-keyboard-response","230","1068762","0.0-230.0","u4f7wp70","","<span style=""color:Black; font-size:50px;"">Agent B","null","","","","",""
"null","","","video-keyboard-response","231","1071535","0.0-231.0","u4f7wp70","","","null","","Agent B","veridical","FOR_REV_BLOBBY_STIM/498155.bmp_pp61_L2_V1.0_veridical_freeview_isoFalse_fps144.mp4",""
"","","","call-function","232","1071536","0.0-232.0","u4f7wp70","","","","","","","",""
"3114.774999999907","{""judgement"":0}","[0]","survey-likert","233","1074651","0.0-233.0","u4f7wp70","","","","","","","","1"
"4386.0800000000745","{""confidence"":2}","[0]","survey-likert","234","1079038","0.0-234.0","u4f7wp70","","","","","","","",""
"","","","call-function","235","1079039","0.0-235.0","u4f7wp70","","","","","","","",""
"null","","","html-keyboard-response","236","1080540","0.0-236.0","u4f7wp70","","<span style=""color:Black; font-size:50px;"">Agent A","null","","","","",""
"null","","","video-keyboard-response","237","1083105","0.0-237.0","u4f7wp70","","","null","","Agent A","veridical","FOR_REV_BLOBBY_STIM/1591876.bmp_pp63_L1_V1.0_veridical_freeview_isoFalse_fps144.mp4",""
"null","","","html-keyboard-response","238","1084612","0.0-238.0","u4f7wp70","","<span style=""color:Black; font-size:50px;"">Agent B","null","","","","",""
"null","","","video-keyboard-response","239","1087172","0.0-239.0","u4f7wp70","","","null","","Agent B","scrambled","FOR_REV_BLOBBY_STIM/1591876.bmp_pp63_L1_V1.0_veridical_freeview_isoFalse_fps144_reversed_REAL.mp4",""
"","","","call-function","240","1087173","0.0-240.0","u4f7wp70","","","","","","","",""
"2506.1099999998696","{""judgement"":1}","[0]","survey-likert","241","1089680","0.0-241.0","u4f7wp70","","","","","","","","0"
"2478.5200000000186","{""confidence"":1}","[0]","survey-likert","242","1092159","0.0-242.0","u4f7wp70","","","","","","","",""
"","","","call-function","243","1092160","0.0-243.0","u4f7wp70","","","","","","","",""
"null","","","html-keyboard-response","244","1093661","0.0-244.0","u4f7wp70","","<span style=""color:Black; font-size:50px;"">Agent A","null","","","","",""
"null","","","video-keyboard-response","245","1096390","0.0-245.0","u4f7wp70","","","null","","Agent A","veridical","FOR_REV_BLOBBY_STIM/285994.bmp_pp92_L3_V1.0_veridical_freeview_isoFalse_fps144.mp4",""
"null","","","html-keyboard-response","246","1097895","0.0-246.0","u4f7wp70","","<span style=""color:Black; font-size:50px;"">Agent B","null","","","","",""
"null","","","video-keyboard-response","247","1100622","0.0-247.0","u4f7wp70","","","null","","Agent B","scrambled","FOR_REV_BLOBBY_STIM/285994.bmp_pp92_L3_V1.0_veridical_freeview_isoFalse_fps144_reversed_REAL.mp4",""
"","","","call-function","248","1100623","0.0-248.0","u4f7wp70","","","","","","","",""
"4177.709999999963","{""judgement"":1}","[0]","survey-likert","249","1104801","0.0-249.0","u4f7wp70","","","","","","","","0"
"1995.7699999997858","{""confidence"":1}","[0]","survey-likert","250","1106798","0.0-250.0","u4f7wp70","","","","","","","",""
"6431.40000000014","","","instructions","251","1113230","0.0-251.0","u4f7wp70","[{""page_index"":0,""viewing_time"":2611.2600000000093},{""page_index"":1,""viewing_time"":1190.875},{""page_index"":2,""viewing_time"":2629.1049999999814}]","","","","","","",""
"5715.445000000065","","","instructions","252","1118946","0.0-252.0","u4f7wp70","[{""page_index"":0,""viewing_time"":1721.4500000001863},{""page_index"":1,""viewing_time"":2959.0399999998044},{""page_index"":2,""viewing_time"":1034.845000000205}]","","","","","","",""
"","","","call-function","253","1118946","0.0-253.0","u4f7wp70","","","","","","","",""
"null","","","html-keyboard-response","254","1120449","0.0-254.0","u4f7wp70","","<span style=""color:Black; font-size:50px;"">Agent A","null","","","","",""
"null","","","video-keyboard-response","255","1123115","0.0-255.0","u4f7wp70","","","null","","Agent A","scrambled","FOR_REV_BLOBBY_STIM/713707.bmp_pp154_L1_V1.0_veridical_freeview_isoFalse_fps144_reversed_REAL.mp4",""
"null","","","html-keyboard-response","256","1124617","0.0-256.0","u4f7wp70","","<span style=""color:Black; font-size:50px;"">Agent B","null","","","","",""
"null","","","video-keyboard-response","257","1127264","0.0-257.0","u4f7wp70","","","null","","Agent B","veridical","FOR_REV_BLOBBY_STIM/713707.bmp_pp154_L1_V1.0_veridical_freeview_isoFalse_fps144.mp4",""
"","","","call-function","258","1127264","0.0-258.0","u4f7wp70","","","","","","","",""
"7987.370000000112","{""judgement"":1}","[0]","survey-likert","259","1135253","0.0-259.0","u4f7wp70","","","","","","","","1"
"1881.6500000001397","{""confidence"":1}","[0]","survey-likert","260","1137136","0.0-260.0","u4f7wp70","","","","","","","",""
"","","","call-function","261","1137136","0.0-261.0","u4f7wp70","","","","","","","",""
"null","","","html-keyboard-response","262","1138638","0.0-262.0","u4f7wp70","","<span style=""color:Black; font-size:50px;"">Agent A","null","","","","",""
"null","","","video-keyboard-response","263","1141259","0.0-263.0","u4f7wp70","","","null","","Agent A","veridical","FOR_REV_BLOBBY_STIM/713779.bmp_pp152_L2_V1.0_veridical_freeview_isoFalse_fps144.mp4",""
"null","","","html-keyboard-response","264","1142761","0.0-264.0","u4f7wp70","","<span style=""color:Black; font-size:50px;"">Agent B","null","","","","",""
"null","","","video-keyboard-response","265","1145379","0.0-265.0","u4f7wp70","","","null","","Agent B","scrambled","FOR_REV_BLOBBY_STIM/713779.bmp_pp152_L2_V1.0_veridical_freeview_isoFalse_fps144_reversed_REAL.mp4",""
"","","","call-function","266","1145380","0.0-266.0","u4f7wp70","","","","","","","",""
"2548.315000000177","{""judgement"":0}","[0]","survey-likert","267","1147929","0.0-267.0","u4f7wp70","","","","","","","","0"
"2449.6049999999814","{""confidence"":1}","[0]","survey-likert","268","1150379","0.0-268.0","u4f7wp70","","","","","","","",""
"","","","call-function","269","1150380","0.0-269.0","u4f7wp70","","","","","","","",""
"null","","","html-keyboard-response","270","1151887","0.0-270.0","u4f7wp70","","<span style=""color:Black; font-size:50px;"">Agent A","null","","","","",""
"null","","","video-keyboard-response","271","1154722","0.0-271.0","u4f7wp70","","","null","","Agent A","veridical","FOR_REV_BLOBBY_STIM/713135.bmp_pp54_L2_V1.0_veridical_freeview_isoFalse_fps144.mp4",""
"null","","","html-keyboard-response","272","1156224","0.0-272.0","u4f7wp70","","<span style=""color:Black; font-size:50px;"">Agent B","null","","","","",""
"null","","","video-keyboard-response","273","1159045","0.0-273.0","u4f7wp70","","","null","","Agent B","scrambled","FOR_REV_BLOBBY_STIM/713135.bmp_pp54_L2_V1.0_veridical_freeview_isoFalse_fps144_reversed_REAL.mp4",""
"","","","call-function","274","1159045","0.0-274.0","u4f7wp70","","","","","","","",""
"7182.84999999986","{""judgement"":1}","[0]","survey-likert","275","1166229","0.0-275.0","u4f7wp70","","","","","","","","0"
"1556.9899999999907","{""confidence"":1}","[0]","survey-likert","276","1167787","0.0-276.0","u4f7wp70","","","","","","","",""
"","","","call-function","277","1167788","0.0-277.0","u4f7wp70","","","","","","","",""
"null","","","html-keyboard-response","278","1169290","0.0-278.0","u4f7wp70","","<span style=""color:Black; font-size:50px;"">Agent A","null","","","","",""
"null","","","video-keyboard-response","279","1172021","0.0-279.0","u4f7wp70","","","null","","Agent A","scrambled","FOR_REV_BLOBBY_STIM/1592372.bmp_pp76_L1_V1.0_veridical_freeview_isoFalse_fps144_reversed_REAL.mp4",""
"null","","","html-keyboard-response","280","1173526","0.0-280.0","u4f7wp70","","<span style=""color:Black; font-size:50px;"">Agent B","null","","","","",""
"null","","","video-keyboard-response","281","1176226","0.0-281.0","u4f7wp70","","","null","","Agent B","veridical","FOR_REV_BLOBBY_STIM/1592372.bmp_pp76_L1_V1.0_veridical_freeview_isoFalse_fps144.mp4",""
"","","","call-function","282","1176227","0.0-282.0","u4f7wp70","","","","","","","",""
"6173.465000000084","{""judgement"":0}","[0]","survey-likert","283","1182402","0.0-283.0","u4f7wp70","","","","","","","","1"
"2731.7600000000093","{""confidence"":2}","[0]","survey-likert","284","1185135","0.0-284.0","u4f7wp70","","","","","","","",""
"","","","call-function","285","1185135","0.0-285.0","u4f7wp70","","","","","","","",""
"null","","","html-keyboard-response","286","1186636","0.0-286.0","u4f7wp70","","<span style=""color:Black; font-size:50px;"">Agent A","null","","","","",""
"null","","","video-keyboard-response","287","1189280","0.0-287.0","u4f7wp70","","","null","","Agent A","scrambled","FOR_REV_BLOBBY_STIM/61537.bmp_pp73_L3_V1.0_veridical_freeview_isoFalse_fps144_reversed_REAL.mp4",""
"null","","","html-keyboard-response","288","1190785","0.0-288.0","u4f7wp70","","<span style=""color:Black; font-size:50px;"">Agent B","null","","","","",""
"null","","","video-keyboard-response","289","1193415","0.0-289.0","u4f7wp70","","","null","","Agent B","veridical","FOR_REV_BLOBBY_STIM/61537.bmp_pp73_L3_V1.0_veridical_freeview_isoFalse_fps144.mp4",""
"","","","call-function","290","1193415","0.0-290.0","u4f7wp70","","","","","","","",""
"4282.785000000149","{""judgement"":1}","[0]","survey-likert","291","1197699","0.0-291.0","u4f7wp70","","","","","","","","1"
"10842.600000000093","{""confidence"":1}","[0]","survey-likert","292","1208543","0.0-292.0","u4f7wp70","","","","","","","",""
"","","","call-function","293","1208544","0.0-293.0","u4f7wp70","","","","","","","",""
"null","","","html-keyboard-response","294","1210049","0.0-294.0","u4f7wp70","","<span style=""color:Black; font-size:50px;"">Agent A","null","","","","",""
"null","","","video-keyboard-response","295","1212890","0.0-295.0","u4f7wp70","","","null","","Agent A","veridical","FOR_REV_BLOBBY_STIM/285751.bmp_pp55_L3_V1.0_veridical_freeview_isoFalse_fps144.mp4",""
"null","","","html-keyboard-response","296","1214394","0.0-296.0","u4f7wp70","","<span style=""color:Black; font-size:50px;"">Agent B","null","","","","",""
"null","","","video-keyboard-response","297","1217262","0.0-297.0","u4f7wp70","","","null","","Agent B","scrambled","FOR_REV_BLOBBY_STIM/285751.bmp_pp55_L3_V1.0_veridical_freeview_isoFalse_fps144_reversed_REAL.mp4",""
"","","","call-function","298","1217262","0.0-298.0","u4f7wp70","","","","","","","",""
"1749.8899999998976","{""judgement"":1}","[0]","survey-likert","299","1219013","0.0-299.0","u4f7wp70","","","","","","","","0"
"2510.8700000001118","{""confidence"":2}","[0]","survey-likert","300","1221525","0.0-300.0","u4f7wp70","","","","","","","",""
"","","","call-function","301","1221525","0.0-301.0","u4f7wp70","","","","","","","",""
"null","","","html-keyboard-response","302","1223026","0.0-302.0","u4f7wp70","","<span style=""color:Black; font-size:50px;"">Agent A","null","","","","",""
"null","","","video-keyboard-response","303","1225829","0.0-303.0","u4f7wp70","","","null","","Agent A","scrambled","FOR_REV_BLOBBY_STIM/1592804.bmp_pp91_L3_V1.0_veridical_freeview_isoFalse_fps144_reversed_REAL.mp4",""
"null","","","html-keyboard-response","304","1227331","0.0-304.0","u4f7wp70","","<span style=""color:Black; font-size:50px;"">Agent B","null","","","","",""
"null","","","video-keyboard-response","305","1230133","0.0-305.0","u4f7wp70","","","null","","Agent B","veridical","FOR_REV_BLOBBY_STIM/1592804.bmp_pp91_L3_V1.0_veridical_freeview_isoFalse_fps144.mp4",""
"","","","call-function","306","1230133","0.0-306.0","u4f7wp70","","","","","","","",""
"3886.130000000121","{""judgement"":0}","[0]","survey-likert","307","1234020","0.0-307.0","u4f7wp70","","","","","","","","1"
"1862.9550000000745","{""confidence"":1}","[0]","survey-likert","308","1235884","0.0-308.0","u4f7wp70","","","","","","","",""
"","","","call-function","309","1235885","0.0-309.0","u4f7wp70","","","","","","","",""
"null","","","html-keyboard-response","310","1237387","0.0-310.0","u4f7wp70","","<span style=""color:Black; font-size:50px;"">Agent A","null","","","","",""
"null","","","video-keyboard-response","311","1240146","0.0-311.0","u4f7wp70","","","null","","Agent A","scrambled","FOR_REV_BLOBBY_STIM/1592581.bmp_pp100_L3_V1.0_veridical_freeview_isoFalse_fps144_reversed_REAL.mp4",""
"null","","","html-keyboard-response","312","1241651","0.0-312.0","u4f7wp70","","<span style=""color:Black; font-size:50px;"">Agent B","null","","","","",""
"null","","","video-keyboard-response","313","1244427","0.0-313.0","u4f7wp70","","","null","","Agent B","veridical","FOR_REV_BLOBBY_STIM/1592581.bmp_pp100_L3_V1.0_veridical_freeview_isoFalse_fps144.mp4",""
"","","","call-function","314","1244428","0.0-314.0","u4f7wp70","","","","","","","",""
"3633.9150000000373","{""judgement"":1}","[0]","survey-likert","315","1248063","0.0-315.0","u4f7wp70","","","","","","","","1"
"2259.844999999972","{""confidence"":1}","[0]","survey-likert","316","1250323","0.0-316.0","u4f7wp70","","","","","","","",""
"","","","call-function","317","1250324","0.0-317.0","u4f7wp70","","","","","","","",""
"null","","","html-keyboard-response","318","1251829","0.0-318.0","u4f7wp70","","<span style=""color:Black; font-size:50px;"">Agent A","null","","","","",""
"null","","","video-keyboard-response","319","1254630","0.0-319.0","u4f7wp70","","","null","","Agent A","scrambled","FOR_REV_BLOBBY_STIM/1159829.bmp_pp91_L3_V1.0_veridical_freeview_isoFalse_fps144_reversed_REAL.mp4",""
"null","","","html-keyboard-response","320","1256132","0.0-320.0","u4f7wp70","","<span style=""color:Black; font-size:50px;"">Agent B","null","","","","",""
"null","","","video-keyboard-response","321","1258935","0.0-321.0","u4f7wp70","","","null","","Agent B","veridical","FOR_REV_BLOBBY_STIM/1159829.bmp_pp91_L3_V1.0_veridical_freeview_isoFalse_fps144.mp4",""
"","","","call-function","322","1258935","0.0-322.0","u4f7wp70","","","","","","","",""
"10933.540000000037","{""judgement"":0}","[0]","survey-likert","323","1269869","0.0-323.0","u4f7wp70","","","","","","","","1"
"24449.33999999985","{""confidence"":2}","[0]","survey-likert","324","1294320","0.0-324.0","u4f7wp70","","","","","","","",""
"","","","call-function","325","1294322","0.0-325.0","u4f7wp70","","","","","","","",""
"null","","","html-keyboard-response","326","1295824","0.0-326.0","u4f7wp70","","<span style=""color:Black; font-size:50px;"">Agent A","null","","","","",""
"null","","","video-keyboard-response","327","1298632","0.0-327.0","u4f7wp70","","","null","","Agent A","scrambled","FOR_REV_BLOBBY_STIM/1591994.bmp_pp69_L3_V1.0_veridical_freeview_isoFalse_fps144_reversed_REAL.mp4",""
"null","","","html-keyboard-response","328","1300137","0.0-328.0","u4f7wp70","","<span style=""color:Black; font-size:50px;"">Agent B","null","","","","",""
"null","","","video-keyboard-response","329","1302925","0.0-329.0","u4f7wp70","","","null","","Agent B","veridical","FOR_REV_BLOBBY_STIM/1591994.bmp_pp69_L3_V1.0_veridical_freeview_isoFalse_fps144.mp4",""
"","","","call-function","330","1302925","0.0-330.0","u4f7wp70","","","","","","","",""
"2179.3950000000186","{""judgement"":1}","[0]","survey-likert","331","1305106","0.0-331.0","u4f7wp70","","","","","","","","1"
"2136.7650000001304","{""confidence"":1}","[0]","survey-likert","332","1307244","0.0-332.0","u4f7wp70","","","","","","","",""
"3014.560000000056","","","instructions","333","1310259","0.0-333.0","u4f7wp70","[{""page_index"":0,""viewing_time"":1609.0100000000093},{""page_index"":1,""viewing_time"":698.8800000001211},{""page_index"":2,""viewing_time"":706.5049999998882}]","","","","","","",""
"182436.4850000001","","","instructions","334","1492696","0.0-334.0","u4f7wp70","[{""page_index"":0,""viewing_time"":178226.06499999994},{""page_index"":1,""viewing_time"":3202.850000000093},{""page_index"":2,""viewing_time"":1007.4599999999627}]","","","","","","",""
"","","","call-function","335","1492697","0.0-335.0","u4f7wp70","","","","","","","",""
"null","","","html-keyboard-response","336","1494198","0.0-336.0","u4f7wp70","","<span style=""color:Black; font-size:50px;"">Agent A","null","","","","",""
"null","","","video-keyboard-response","337","1497073","0.0-337.0","u4f7wp70","","","null","","Agent A","scrambled","FOR_REV_BLOBBY_STIM/1159447.bmp_pp70_L2_V1.0_veridical_freeview_isoFalse_fps144_reversed_REAL.mp4",""
"null","","","html-keyboard-response","338","1498576","0.0-338.0","u4f7wp70","","<span style=""color:Black; font-size:50px;"">Agent B","null","","","","",""
"null","","","video-keyboard-response","339","1501453","0.0-339.0","u4f7wp70","","","null","","Agent B","veridical","FOR_REV_BLOBBY_STIM/1159447.bmp_pp70_L2_V1.0_veridical_freeview_isoFalse_fps144.mp4",""
"","","","call-function","340","1501453","0.0-340.0","u4f7wp70","","","","","","","",""
"2579.1650000000373","{""judgement"":1}","[0]","survey-likert","341","1504033","0.0-341.0","u4f7wp70","","","","","","","","1"
"4453.799999999814","{""confidence"":2}","[0]","survey-likert","342","1508488","0.0-342.0","u4f7wp70","","","","","","","",""
"","","","call-function","343","1508488","0.0-343.0","u4f7wp70","","","","","","","",""
"null","","","html-keyboard-response","344","1509992","0.0-344.0","u4f7wp70","","<span style=""color:Black; font-size:50px;"">Agent A","null","","","","",""
"null","","","video-keyboard-response","345","1512834","0.0-345.0","u4f7wp70","","","null","","Agent A","veridical","FOR_REV_BLOBBY_STIM/1592657.bmp_pp98_L1_V1.0_veridical_freeview_isoFalse_fps144.mp4",""
"null","","","html-keyboard-response","346","1514338","0.0-346.0","u4f7wp70","","<span style=""color:Black; font-size:50px;"">Agent B","null","","","","",""
"null","","","video-keyboard-response","347","1517160","0.0-347.0","u4f7wp70","","","null","","Agent B","scrambled","FOR_REV_BLOBBY_STIM/1592657.bmp_pp98_L1_V1.0_veridical_freeview_isoFalse_fps144_reversed_REAL.mp4",""
"","","","call-function","348","1517160","0.0-348.0","u4f7wp70","","","","","","","",""
"6595.804999999935","{""judgement"":0}","[0]","survey-likert","349","1523757","0.0-349.0","u4f7wp70","","","","","","","","0"
"2768.774999999907","{""confidence"":1}","[0]","survey-likert","350","1526527","0.0-350.0","u4f7wp70","","","","","","","",""
"","","","call-function","351","1526527","0.0-351.0","u4f7wp70","","","","","","","",""
"null","","","html-keyboard-response","352","1528034","0.0-352.0","u4f7wp70","","<span style=""color:Black; font-size:50px;"">Agent A","null","","","","",""
"null","","","video-keyboard-response","353","1530864","0.0-353.0","u4f7wp70","","","null","","Agent A","veridical","FOR_REV_BLOBBY_STIM/1159777.bmp_pp77_L3_V1.0_veridical_freeview_isoFalse_fps144.mp4",""
"null","","","html-keyboard-response","354","1532368","0.0-354.0","u4f7wp70","","<span style=""color:Black; font-size:50px;"">Agent B","null","","","","",""
"null","","","video-keyboard-response","355","1535182","0.0-355.0","u4f7wp70","","","null","","Agent B","scrambled","FOR_REV_BLOBBY_STIM/1159777.bmp_pp77_L3_V1.0_veridical_freeview_isoFalse_fps144_reversed_REAL.mp4",""
"","","","call-function","356","1535182","0.0-356.0","u4f7wp70","","","","","","","",""
"9644.655000000028","{""judgement"":0}","[0]","survey-likert","357","1544828","0.0-357.0","u4f7wp70","","","","","","","","0"
"2273.475000000093","{""confidence"":1}","[0]","survey-likert","358","1547102","0.0-358.0","u4f7wp70","","","","","","","",""
"","","","call-function","359","1547103","0.0-359.0","u4f7wp70","","","","","","","",""
"null","","","html-keyboard-response","360","1548605","0.0-360.0","u4f7wp70","","<span style=""color:Black; font-size:50px;"">Agent A","null","","","","",""
"null","","","video-keyboard-response","361","1551340","0.0-361.0","u4f7wp70","","","null","","Agent A","veridical","FOR_REV_BLOBBY_STIM/1592133.bmp_pp75_L1_V1.0_veridical_freeview_isoFalse_fps144.mp4",""
"null","","","html-keyboard-response","362","1552842","0.0-362.0","u4f7wp70","","<span style=""color:Black; font-size:50px;"">Agent B","null","","","","",""
"null","","","video-keyboard-response","363","1555557","0.0-363.0","u4f7wp70","","","null","","Agent B","scrambled","FOR_REV_BLOBBY_STIM/1592133.bmp_pp75_L1_V1.0_veridical_freeview_isoFalse_fps144_reversed_REAL.mp4",""
"","","","call-function","364","1555558","0.0-364.0","u4f7wp70","","","","","","","",""
"3929.350000000093","{""judgement"":0}","[0]","survey-likert","365","1559488","0.0-365.0","u4f7wp70","","","","","","","","0"
"8073.459999999963","{""confidence"":1}","[0]","survey-likert","366","1567563","0.0-366.0","u4f7wp70","","","","","","","",""
"","","","call-function","367","1567564","0.0-367.0","u4f7wp70","","","","","","","",""
"null","","","html-keyboard-response","368","1569068","0.0-368.0","u4f7wp70","","<span style=""color:Black; font-size:50px;"">Agent A","null","","","","",""
"null","","","video-keyboard-response","369","1571815","0.0-369.0","u4f7wp70","","","null","","Agent A","veridical","FOR_REV_BLOBBY_STIM/285933.bmp_pp81_L1_V1.0_veridical_freeview_isoFalse_fps144.mp4",""
"null","","","html-keyboard-response","370","1573320","0.0-370.0","u4f7wp70","","<span style=""color:Black; font-size:50px;"">Agent B","null","","","","",""
"null","","","video-keyboard-response","371","1576049","0.0-371.0","u4f7wp70","","","null","","Agent B","scrambled","FOR_REV_BLOBBY_STIM/285933.bmp_pp81_L1_V1.0_veridical_freeview_isoFalse_fps144_reversed_REAL.mp4",""
"","","","call-function","372","1576050","0.0-372.0","u4f7wp70","","","","","","","",""
"9732.725000000093","{""judgement"":0}","[0]","survey-likert","373","1585783","0.0-373.0","u4f7wp70","","","","","","","","0"
"2281.6099999998696","{""confidence"":2}","[0]","survey-likert","374","1588066","0.0-374.0","u4f7wp70","","","","","","","",""
"","","","call-function","375","1588067","0.0-375.0","u4f7wp70","","","","","","","",""
"null","","","html-keyboard-response","376","1589570","0.0-376.0","u4f7wp70","","<span style=""color:Black; font-size:50px;"">Agent A","null","","","","",""
"null","","","video-keyboard-response","377","1592403","0.0-377.0","u4f7wp70","","","null","","Agent A","veridical","FOR_REV_BLOBBY_STIM/1159882.bmp_pp61_L2_V1.0_veridical_freeview_isoFalse_fps144.mp4",""
"null","","","html-keyboard-response","378","1593907","0.0-378.0","u4f7wp70","","<span style=""color:Black; font-size:50px;"">Agent B","null","","","","",""
"null","","","video-keyboard-response","379","1596722","0.0-379.0","u4f7wp70","","","null","","Agent B","scrambled","FOR_REV_BLOBBY_STIM/1159882.bmp_pp61_L2_V1.0_veridical_freeview_isoFalse_fps144_reversed_REAL.mp4",""
"","","","call-function","380","1596723","0.0-380.0","u4f7wp70","","","","","","","",""
"2156.060000000056","{""judgement"":0}","[0]","survey-likert","381","1598880","0.0-381.0","u4f7wp70","","","","","","","","0"
"1775.6700000001583","{""confidence"":1}","[0]","survey-likert","382","1600656","0.0-382.0","u4f7wp70","","","","","","","",""
"","","","call-function","383","1600657","0.0-383.0","u4f7wp70","","","","","","","",""
"null","","","html-keyboard-response","384","1602159","0.0-384.0","u4f7wp70","","<span style=""color:Black; font-size:50px;"">Agent A","null","","","","",""
"null","","","video-keyboard-response","385","1605027","0.0-385.0","u4f7wp70","","","null","","Agent A","scrambled","FOR_REV_BLOBBY_STIM/1592807.bmp_pp68_L1_V1.0_veridical_freeview_isoFalse_fps144_reversed_REAL.mp4",""
"null","","","html-keyboard-response","386","1606529","0.0-386.0","u4f7wp70","","<span style=""color:Black; font-size:50px;"">Agent B","null","","","","",""
"null","","","video-keyboard-response","387","1609401","0.0-387.0","u4f7wp70","","","null","","Agent B","veridical","FOR_REV_BLOBBY_STIM/1592807.bmp_pp68_L1_V1.0_veridical_freeview_isoFalse_fps144.mp4",""
"","","","call-function","388","1609402","0.0-388.0","u4f7wp70","","","","","","","",""
"2214.5749999999534","{""judgement"":1}","[0]","survey-likert","389","1611618","0.0-389.0","u4f7wp70","","","","","","","","1"
"12578.185000000056","{""confidence"":1}","[0]","survey-likert","390","1624197","0.0-390.0","u4f7wp70","","","","","","","",""
"","","","call-function","391","1624198","0.0-391.0","u4f7wp70","","","","","","","",""
"null","","","html-keyboard-response","392","1625703","0.0-392.0","u4f7wp70","","<span style=""color:Black; font-size:50px;"">Agent A","null","","","","",""
"null","","","video-keyboard-response","393","1628557","0.0-393.0","u4f7wp70","","","null","","Agent A","scrambled","FOR_REV_BLOBBY_STIM/1592351.bmp_pp51_L1_V1.0_veridical_freeview_isoFalse_fps144_reversed_REAL.mp4",""
"null","","","html-keyboard-response","394","1630059","0.0-394.0","u4f7wp70","","<span style=""color:Black; font-size:50px;"">Agent B","null","","","","",""
"null","","","video-keyboard-response","395","1632889","0.0-395.0","u4f7wp70","","","null","","Agent B","veridical","FOR_REV_BLOBBY_STIM/1592351.bmp_pp51_L1_V1.0_veridical_freeview_isoFalse_fps144.mp4",""
"","","","call-function","396","1632889","0.0-396.0","u4f7wp70","","","","","","","",""
"2040.1400000001304","{""judgement"":1}","[0]","survey-likert","397","1634930","0.0-397.0","u4f7wp70","","","","","","","","1"
"7709.514999999898","{""confidence"":2}","[0]","survey-likert","398","1642642","0.0-398.0","u4f7wp70","","","","","","","",""
"","","","call-function","399","1642642","0.0-399.0","u4f7wp70","","","","","","","",""
"null","","","html-keyboard-response","400","1644147","0.0-400.0","u4f7wp70","","<span style=""color:Black; font-size:50px;"">Agent A","null","","","","",""
"null","","","video-keyboard-response","401","1646979","0.0-401.0","u4f7wp70","","","null","","Agent A","veridical","FOR_REV_BLOBBY_STIM/1159675.bmp_pp77_L3_V1.0_veridical_freeview_isoFalse_fps144.mp4",""
"null","","","html-keyboard-response","402","1648484","0.0-402.0","u4f7wp70","","<span style=""color:Black; font-size:50px;"">Agent B","null","","","","",""
"null","","","video-keyboard-response","403","1651309","0.0-403.0","u4f7wp70","","","null","","Agent B","scrambled","FOR_REV_BLOBBY_STIM/1159675.bmp_pp77_L3_V1.0_veridical_freeview_isoFalse_fps144_reversed_REAL.mp4",""
"","","","call-function","404","1651310","0.0-404.0","u4f7wp70","","","","","","","",""
"9969.440000000177","{""judgement"":0}","[0]","survey-likert","405","1661280","0.0-405.0","u4f7wp70","","","","","","","","0"
"10233.824999999953","{""confidence"":1}","[0]","survey-likert","406","1671515","0.0-406.0","u4f7wp70","","","","","","","",""
"","","","call-function","407","1671516","0.0-407.0","u4f7wp70","","","","","","","",""
"null","","","html-keyboard-response","408","1673020","0.0-408.0","u4f7wp70","","<span style=""color:Black; font-size:50px;"">Agent A","null","","","","",""
"null","","","video-keyboard-response","409","1675640","0.0-409.0","u4f7wp70","","","null","","Agent A","scrambled","FOR_REV_BLOBBY_STIM/286001.bmp_pp54_L2_V1.0_veridical_freeview_isoFalse_fps144_reversed_REAL.mp4",""
"null","","","html-keyboard-response","410","1677144","0.0-410.0","u4f7wp70","","<span style=""color:Black; font-size:50px;"">Agent B","null","","","","",""
"null","","","video-keyboard-response","411","1679728","0.0-411.0","u4f7wp70","","","null","","Agent B","veridical","FOR_REV_BLOBBY_STIM/286001.bmp_pp54_L2_V1.0_veridical_freeview_isoFalse_fps144.mp4",""
"","","","call-function","412","1679728","0.0-412.0","u4f7wp70","","","","","","","",""
"2279.909999999916","{""judgement"":1}","[0]","survey-likert","413","1682009","0.0-413.0","u4f7wp70","","","","","","","","1"
"1912.8299999998417","{""confidence"":1}","[0]","survey-likert","414","1683923","0.0-414.0","u4f7wp70","","","","","","","",""
"61554.789999999804","","","instructions","415","1745479","0.0-415.0","u4f7wp70","[{""page_index"":0,""viewing_time"":59277.47999999998},{""page_index"":1,""viewing_time"":1430.8249999999534},{""page_index"":2,""viewing_time"":846.3149999999441}]","","","","","","",""
"3219.130000000121","","","instructions","416","1748699","0.0-416.0","u4f7wp70","[{""page_index"":0,""viewing_time"":1035.1699999999255},{""page_index"":1,""viewing_time"":1271.8649999999907},{""page_index"":2,""viewing_time"":911.9900000002235}]","","","","","","",""
"","","","call-function","417","1748700","0.0-417.0","u4f7wp70","","","","","","","",""
"null","","","html-keyboard-response","418","1750202","0.0-418.0","u4f7wp70","","<span style=""color:Black; font-size:50px;"">Agent A","null","","","","",""
"null","","","video-keyboard-response","419","1753053","0.0-419.0","u4f7wp70","","","null","","Agent A","scrambled","FOR_REV_BLOBBY_STIM/713017.bmp_pp152_L2_V1.0_veridical_freeview_isoFalse_fps144_reversed_REAL.mp4",""
"null","","","html-keyboard-response","420","1754556","0.0-420.0","u4f7wp70","","<span style=""color:Black; font-size:50px;"">Agent B","null","","","","",""
"null","","","video-keyboard-response","421","1757410","0.0-421.0","u4f7wp70","","","null","","Agent B","veridical","FOR_REV_BLOBBY_STIM/713017.bmp_pp152_L2_V1.0_veridical_freeview_isoFalse_fps144.mp4",""
"","","","call-function","422","1757410","0.0-422.0","u4f7wp70","","","","","","","",""
"1956.5600000000559","{""judgement"":1}","[0]","survey-likert","423","1759368","0.0-423.0","u4f7wp70","","","","","","","","1"
"2044.844999999972","{""confidence"":2}","[0]","survey-likert","424","1761414","0.0-424.0","u4f7wp70","","","","","","","",""
"","","","call-function","425","1761414","0.0-425.0","u4f7wp70","","","","","","","",""
"null","","","html-keyboard-response","426","1762920","0.0-426.0","u4f7wp70","","<span style=""color:Black; font-size:50px;"">Agent A","null","","","","",""
"null","","","video-keyboard-response","427","1765785","0.0-427.0","u4f7wp70","","","null","","Agent A","veridical","FOR_REV_BLOBBY_STIM/713089.bmp_pp60_L3_V1.0_veridical_freeview_isoFalse_fps144.mp4",""
"null","","","html-keyboard-response","428","1767287","0.0-428.0","u4f7wp70","","<span style=""color:Black; font-size:50px;"">Agent B","null","","","","",""
"null","","","video-keyboard-response","429","1770153","0.0-429.0","u4f7wp70","","","null","","Agent B","scrambled","FOR_REV_BLOBBY_STIM/713089.bmp_pp60_L3_V1.0_veridical_freeview_isoFalse_fps144_reversed_REAL.mp4",""
"","","","call-function","430","1770153","0.0-430.0","u4f7wp70","","","","","","","",""
"1778.2050000000745","{""judgement"":0}","[0]","survey-likert","431","1771932","0.0-431.0","u4f7wp70","","","","","","","","0"
"2963.0749999999534","{""confidence"":2}","[0]","survey-likert","432","1774897","0.0-432.0","u4f7wp70","","","","","","","",""
"","","","call-function","433","1774897","0.0-433.0","u4f7wp70","","","","","","","",""
"null","","","html-keyboard-response","434","1776403","0.0-434.0","u4f7wp70","","<span style=""color:Black; font-size:50px;"">Agent A","null","","","","",""
"null","","","video-keyboard-response","435","1779226","0.0-435.0","u4f7wp70","","","null","","Agent A","scrambled","FOR_REV_BLOBBY_STIM/1159621.bmp_pp92_L3_V1.0_veridical_freeview_isoFalse_fps144_reversed_REAL.mp4",""
"null","","","html-keyboard-response","436","1780732","0.0-436.0","u4f7wp70","","<span style=""color:Black; font-size:50px;"">Agent B","null","","","","",""
"null","","","video-keyboard-response","437","1783539","0.0-437.0","u4f7wp70","","","null","","Agent B","veridical","FOR_REV_BLOBBY_STIM/1159621.bmp_pp92_L3_V1.0_veridical_freeview_isoFalse_fps144.mp4",""
"","","","call-function","438","1783539","0.0-438.0","u4f7wp70","","","","","","","",""
"2737.530000000028","{""judgement"":1}","[0]","survey-likert","439","1786277","0.0-439.0","u4f7wp70","","","","","","","","1"
"3131.619999999879","{""confidence"":1}","[0]","survey-likert","440","1789410","0.0-440.0","u4f7wp70","","","","","","","",""
"","","","call-function","441","1789410","0.0-441.0","u4f7wp70","","","","","","","",""
"null","","","html-keyboard-response","442","1790915","0.0-442.0","u4f7wp70","","<span style=""color:Black; font-size:50px;"">Agent A","null","","","","",""
"null","","","video-keyboard-response","443","1793750","0.0-443.0","u4f7wp70","","","null","","Agent A","scrambled","FOR_REV_BLOBBY_STIM/498175.bmp_pp154_L1_V1.0_veridical_freeview_isoFalse_fps144_reversed_REAL.mp4",""
"null","","","html-keyboard-response","444","1795254","0.0-444.0","u4f7wp70","","<span style=""color:Black; font-size:50px;"">Agent B","null","","","","",""
"null","","","video-keyboard-response","445","1798090","0.0-445.0","u4f7wp70","","","null","","Agent B","veridical","FOR_REV_BLOBBY_STIM/498175.bmp_pp154_L1_V1.0_veridical_freeview_isoFalse_fps144.mp4",""
"","","","call-function","446","1798090","0.0-446.0","u4f7wp70","","","","","","","",""
"1623.3149999999441","{""judgement"":1}","[0]","survey-likert","447","1799714","0.0-447.0","u4f7wp70","","","","","","","","1"
"2151.5","{""confidence"":1}","[0]","survey-likert","448","1801867","0.0-448.0","u4f7wp70","","","","","","","",""
"","","","call-function","449","1801867","0.0-449.0","u4f7wp70","","","","","","","",""
"null","","","html-keyboard-response","450","1803373","0.0-450.0","u4f7wp70","","<span style=""color:Black; font-size:50px;"">Agent A","null","","","","",""
"null","","","video-keyboard-response","451","1806094","0.0-451.0","u4f7wp70","","","null","","Agent A","scrambled","FOR_REV_BLOBBY_STIM/1592727.bmp_pp59_L3_V1.0_veridical_freeview_isoFalse_fps144_reversed_REAL.mp4",""
"null","","","html-keyboard-response","452","1807599","0.0-452.0","u4f7wp70","","<span style=""color:Black; font-size:50px;"">Agent B","null","","","","",""
"null","","","video-keyboard-response","453","1810319","0.0-453.0","u4f7wp70","","","null","","Agent B","veridical","FOR_REV_BLOBBY_STIM/1592727.bmp_pp59_L3_V1.0_veridical_freeview_isoFalse_fps144.mp4",""
"","","","call-function","454","1810319","0.0-454.0","u4f7wp70","","","","","","","",""
"12907.429999999935","{""judgement"":0}","[0]","survey-likert","455","1823228","0.0-455.0","u4f7wp70","","","","","","","","1"
"1979.1599999999162","{""confidence"":1}","[0]","survey-likert","456","1825208","0.0-456.0","u4f7wp70","","","","","","","",""
"","","","call-function","457","1825208","0.0-457.0","u4f7wp70","","","","","","","",""
"null","","","html-keyboard-response","458","1826711","0.0-458.0","u4f7wp70","","<span style=""color:Black; font-size:50px;"">Agent A","null","","","","",""
"null","","","video-keyboard-response","459","1829461","0.0-459.0","u4f7wp70","","","null","","Agent A","veridical","FOR_REV_BLOBBY_STIM/1592619.bmp_pp56_L3_V1.0_veridical_freeview_isoFalse_fps144.mp4",""
"null","","","html-keyboard-response","460","1830963","0.0-460.0","u4f7wp70","","<span style=""color:Black; font-size:50px;"">Agent B","null","","","","",""
"null","","","video-keyboard-response","461","1833713","0.0-461.0","u4f7wp70","","","null","","Agent B","scrambled","FOR_REV_BLOBBY_STIM/1592619.bmp_pp56_L3_V1.0_veridical_freeview_isoFalse_fps144_reversed_REAL.mp4",""
"","","","call-function","462","1833713","0.0-462.0","u4f7wp70","","","","","","","",""
"2701.689999999944","{""judgement"":1}","[0]","survey-likert","463","1836416","0.0-463.0","u4f7wp70","","","","","","","","0"
"6666.760000000009","{""confidence"":1}","[0]","survey-likert","464","1843083","0.0-464.0","u4f7wp70","","","","","","","",""
"","","","call-function","465","1843084","0.0-465.0","u4f7wp70","","","","","","","",""
"null","","","html-keyboard-response","466","1844589","0.0-466.0","u4f7wp70","","<span style=""color:Black; font-size:50px;"">Agent A","null","","","","",""
"null","","","video-keyboard-response","467","1847391","0.0-467.0","u4f7wp70","","","null","","Agent A","veridical","FOR_REV_BLOBBY_STIM/1159440.bmp_pp98_L1_V1.0_veridical_freeview_isoFalse_fps144.mp4",""
"null","","","html-keyboard-response","468","1848894","0.0-468.0","u4f7wp70","","<span style=""color:Black; font-size:50px;"">Agent B","null","","","","",""
"null","","","video-keyboard-response","469","1851699","0.0-469.0","u4f7wp70","","","null","","Agent B","scrambled","FOR_REV_BLOBBY_STIM/1159440.bmp_pp98_L1_V1.0_veridical_freeview_isoFalse_fps144_reversed_REAL.mp4",""
"","","","call-function","470","1851700","0.0-470.0","u4f7wp70","","","","","","","",""
"1794.4299999999348","{""judgement"":1}","[0]","survey-likert","471","1853497","0.0-471.0","u4f7wp70","","","","","","","","0"
"2043.6699999999255","{""confidence"":1}","[0]","survey-likert","472","1855542","0.0-472.0","u4f7wp70","","","","","","","",""
"","","","call-function","473","1855542","0.0-473.0","u4f7wp70","","","","","","","",""
"null","","","html-keyboard-response","474","1857043","0.0-474.0","u4f7wp70","","<span style=""color:Black; font-size:50px;"">Agent A","null","","","","",""
"null","","","video-keyboard-response","475","1858638","0.0-475.0","u4f7wp70","","","null","","Agent A","scrambled","FOR_REV_BLOBBY_STIM/713684.bmp_pp85_L3_V1.0_veridical_freeview_isoFalse_fps144_reversed_REAL.mp4",""
"null","","","html-keyboard-response","476","1860142","0.0-476.0","u4f7wp70","","<span style=""color:Black; font-size:50px;"">Agent B","null","","","","",""
"null","","","video-keyboard-response","477","1861736","0.0-477.0","u4f7wp70","","","null","","Agent B","veridical","FOR_REV_BLOBBY_STIM/713684.bmp_pp85_L3_V1.0_veridical_freeview_isoFalse_fps144.mp4",""
"","","","call-function","478","1861737","0.0-478.0","u4f7wp70","","","","","","","",""
"12995.979999999981","{""judgement"":0}","[0]","survey-likert","479","1874734","0.0-479.0","u4f7wp70","","","","","","","","1"
"1896.1699999999255","{""confidence"":1}","[0]","survey-likert","480","1876632","0.0-480.0","u4f7wp70","","","","","","","",""
"","","","call-function","481","1876632","0.0-481.0","u4f7wp70","","","","","","","",""
"null","","","html-keyboard-response","482","1878135","0.0-482.0","u4f7wp70","","<span style=""color:Black; font-size:50px;"">Agent A","null","","","","",""
"null","","","video-keyboard-response","483","1880954","0.0-483.0","u4f7wp70","","","null","","Agent A","scrambled","FOR_REV_BLOBBY_STIM/1592890.bmp_pp82_L2_V1.0_veridical_freeview_isoFalse_fps144_reversed_REAL.mp4",""
"null","","","html-keyboard-response","484","1882458","0.0-484.0","u4f7wp70","","<span style=""color:Black; font-size:50px;"">Agent B","null","","","","",""
"null","","","video-keyboard-response","485","1885284","0.0-485.0","u4f7wp70","","","null","","Agent B","veridical","FOR_REV_BLOBBY_STIM/1592890.bmp_pp82_L2_V1.0_veridical_freeview_isoFalse_fps144.mp4",""
"","","","call-function","486","1885284","0.0-486.0","u4f7wp70","","","","","","","",""
"11334.409999999916","{""judgement"":0}","[0]","survey-likert","487","1896620","0.0-487.0","u4f7wp70","","","","","","","","1"
"2809.8950000000186","{""confidence"":1}","[0]","survey-likert","488","1899431","0.0-488.0","u4f7wp70","","","","","","","",""
"","","","call-function","489","1899431","0.0-489.0","u4f7wp70","","","","","","","",""
"null","","","html-keyboard-response","490","1900932","0.0-490.0","u4f7wp70","","<span style=""color:Black; font-size:50px;"">Agent A","null","","","","",""
"null","","","video-keyboard-response","491","1903564","0.0-491.0","u4f7wp70","","","null","","Agent A","scrambled","FOR_REV_BLOBBY_STIM/1592397.bmp_pp85_L3_V1.0_veridical_freeview_isoFalse_fps144_reversed_REAL.mp4",""
"null","","","html-keyboard-response","492","1905071","0.0-492.0","u4f7wp70","","<span style=""color:Black; font-size:50px;"">Agent B","null","","","","",""
"null","","","video-keyboard-response","493","1907677","0.0-493.0","u4f7wp70","","","null","","Agent B","veridical","FOR_REV_BLOBBY_STIM/1592397.bmp_pp85_L3_V1.0_veridical_freeview_isoFalse_fps144.mp4",""
"","","","call-function","494","1907677","0.0-494.0","u4f7wp70","","","","","","","",""
"2943.2700000000186","{""judgement"":1}","[0]","survey-likert","495","1910621","0.0-495.0","u4f7wp70","","","","","","","","1"
"3286.095000000205","{""confidence"":2}","[0]","survey-likert","496","1913909","0.0-496.0","u4f7wp70","","","","","","","",""
"68574.28499999992","","","instructions","497","1982483","0.0-497.0","u4f7wp70","[{""page_index"":0,""viewing_time"":65282.419999999925},{""page_index"":1,""viewing_time"":1637.8900000001304},{""page_index"":2,""viewing_time"":1653.8199999998324}]","","","","","","",""
"3908.625","","","instructions","498","1986392","0.0-498.0","u4f7wp70","[{""page_index"":0,""viewing_time"":1484.7450000001118},{""page_index"":1,""viewing_time"":1258.7999999998137},{""page_index"":2,""viewing_time"":1164.905000000028}]","","","","","","",""
"","","","call-function","499","1986393","0.0-499.0","u4f7wp70","","","","","","","",""
"null","","","html-keyboard-response","500","1987899","0.0-500.0","u4f7wp70","","<span style=""color:Black; font-size:50px;"">Agent A","null","","","","",""
"null","","","video-keyboard-response","501","1990751","0.0-501.0","u4f7wp70","","","null","","Agent A","scrambled","FOR_REV_BLOBBY_STIM/497950.bmp_pp151_L1_V1.0_veridical_freeview_isoFalse_fps144_reversed_REAL.mp4",""
"null","","","html-keyboard-response","502","1992254","0.0-502.0","u4f7wp70","","<span style=""color:Black; font-size:50px;"">Agent B","null","","","","",""
"null","","","video-keyboard-response","503","1995111","0.0-503.0","u4f7wp70","","","null","","Agent B","veridical","FOR_REV_BLOBBY_STIM/497950.bmp_pp151_L1_V1.0_veridical_freeview_isoFalse_fps144.mp4",""
"","","","call-function","504","1995111","0.0-504.0","u4f7wp70","","","","","","","",""
"3077.5","{""judgement"":1}","[0]","survey-likert","505","1998190","0.0-505.0","u4f7wp70","","","","","","","","1"
"1939.7600000000093","{""confidence"":1}","[0]","survey-likert","506","2000131","0.0-506.0","u4f7wp70","","","","","","","",""
"","","","call-function","507","2000131","0.0-507.0","u4f7wp70","","","","","","","",""
"null","","","html-keyboard-response","508","2001635","0.0-508.0","u4f7wp70","","<span style=""color:Black; font-size:50px;"">Agent A","null","","","","",""
"null","","","video-keyboard-response","509","2004413","0.0-509.0","u4f7wp70","","","null","","Agent A","veridical","FOR_REV_BLOBBY_STIM/1593041.bmp_pp58_L1_V1.0_veridical_freeview_isoFalse_fps144.mp4",""
"null","","","html-keyboard-response","510","2005917","0.0-510.0","u4f7wp70","","<span style=""color:Black; font-size:50px;"">Agent B","null","","","","",""
"null","","","video-keyboard-response","511","2008677","0.0-511.0","u4f7wp70","","","null","","Agent B","scrambled","FOR_REV_BLOBBY_STIM/1593041.bmp_pp58_L1_V1.0_veridical_freeview_isoFalse_fps144_reversed_REAL.mp4",""
"","","","call-function","512","2008677","0.0-512.0","u4f7wp70","","","","","","","",""
"2293.679999999935","{""judgement"":1}","[0]","survey-likert","513","2010972","0.0-513.0","u4f7wp70","","","","","","","","0"
"3669.320000000065","{""confidence"":2}","[0]","survey-likert","514","2014642","0.0-514.0","u4f7wp70","","","","","","","",""
"","","","call-function","515","2014642","0.0-515.0","u4f7wp70","","","","","","","",""
"null","","","html-keyboard-response","516","2016143","0.0-516.0","u4f7wp70","","<span style=""color:Black; font-size:50px;"">Agent A","null","","","","",""
"null","","","video-keyboard-response","517","2019134","0.0-517.0","u4f7wp70","","","null","","Agent A","scrambled","FOR_REV_BLOBBY_STIM/1159572.bmp_pp71_L1_V1.0_veridical_freeview_isoFalse_fps144_reversed_REAL.mp4",""
"null","","","html-keyboard-response","518","2020638","0.0-518.0","u4f7wp70","","<span style=""color:Black; font-size:50px;"">Agent B","null","","","","",""
"null","","","video-keyboard-response","519","2023515","0.0-519.0","u4f7wp70","","","null","","Agent B","veridical","FOR_REV_BLOBBY_STIM/1159572.bmp_pp71_L1_V1.0_veridical_freeview_isoFalse_fps144.mp4",""
"","","","call-function","520","2023516","0.0-520.0","u4f7wp70","","","","","","","",""
"2501.625","{""judgement"":1}","[0]","survey-likert","521","2026019","0.0-521.0","u4f7wp70","","","","","","","","1"
"2714.6699999999255","{""confidence"":1}","[0]","survey-likert","522","2028735","0.0-522.0","u4f7wp70","","","","","","","",""
"","","","call-function","523","2028736","0.0-523.0","u4f7wp70","","","","","","","",""
"null","","","html-keyboard-response","524","2030238","0.0-524.0","u4f7wp70","","<span style=""color:Black; font-size:50px;"">Agent A","null","","","","",""
"null","","","video-keyboard-response","525","2032973","0.0-525.0","u4f7wp70","","","null","","Agent A","scrambled","FOR_REV_BLOBBY_STIM/498170.bmp_pp153_L3_V1.0_veridical_freeview_isoFalse_fps144_reversed_REAL.mp4",""
"null","","","html-keyboard-response","526","2034477","0.0-526.0","u4f7wp70","","<span style=""color:Black; font-size:50px;"">Agent B","null","","","","",""
"null","","","video-keyboard-response","527","2037212","0.0-527.0","u4f7wp70","","","null","","Agent B","veridical","FOR_REV_BLOBBY_STIM/498170.bmp_pp153_L3_V1.0_veridical_freeview_isoFalse_fps144.mp4",""
"","","","call-function","528","2037213","0.0-528.0","u4f7wp70","","","","","","","",""
"5926.089999999851","{""judgement"":1}","[0]","survey-likert","529","2043140","0.0-529.0","u4f7wp70","","","","","","","","1"
"2197.7949999999255","{""confidence"":2}","[0]","survey-likert","530","2045339","0.0-530.0","u4f7wp70","","","","","","","",""
"","","","call-function","531","2045340","0.0-531.0","u4f7wp70","","","","","","","",""
"null","","","html-keyboard-response","532","2046842","0.0-532.0","u4f7wp70","","<span style=""color:Black; font-size:50px;"">Agent A","null","","","","",""
"null","","","video-keyboard-response","533","2049598","0.0-533.0","u4f7wp70","","","null","","Agent A","scrambled","FOR_REV_BLOBBY_STIM/713749.bmp_pp88_L2_V1.0_veridical_freeview_isoFalse_fps144_reversed_REAL.mp4",""
"null","","","html-keyboard-response","534","2051103","0.0-534.0","u4f7wp70","","<span style=""color:Black; font-size:50px;"">Agent B","null","","","","",""
"null","","","video-keyboard-response","535","2053839","0.0-535.0","u4f7wp70","","","null","","Agent B","veridical","FOR_REV_BLOBBY_STIM/713749.bmp_pp88_L2_V1.0_veridical_freeview_isoFalse_fps144.mp4",""
"","","","call-function","536","2053840","0.0-536.0","u4f7wp70","","","","","","","",""
"2291.8299999998417","{""judgement"":0}","[0]","survey-likert","537","2056133","0.0-537.0","u4f7wp70","","","","","","","","1"
"1968.9599999999627","{""confidence"":1}","[0]","survey-likert","538","2058104","0.0-538.0","u4f7wp70","","","","","","","",""
"","","","call-function","539","2058104","0.0-539.0","u4f7wp70","","","","","","","",""
"null","","","html-keyboard-response","540","2059609","0.0-540.0","u4f7wp70","","<span style=""color:Black; font-size:50px;"">Agent A","null","","","","",""
"null","","","video-keyboard-response","541","2062476","0.0-541.0","u4f7wp70","","","null","","Agent A","veridical","FOR_REV_BLOBBY_STIM/1592286.bmp_pp52_L1_V1.0_veridical_freeview_isoFalse_fps144.mp4",""
"null","","","html-keyboard-response","542","2063980","0.0-542.0","u4f7wp70","","<span style=""color:Black; font-size:50px;"">Agent B","null","","","","",""
"null","","","video-keyboard-response","543","2066828","0.0-543.0","u4f7wp70","","","null","","Agent B","scrambled","FOR_REV_BLOBBY_STIM/1592286.bmp_pp52_L1_V1.0_veridical_freeview_isoFalse_fps144_reversed_REAL.mp4",""
"","","","call-function","544","2066829","0.0-544.0","u4f7wp70","","","","","","","",""
"1656.7399999999907","{""judgement"":0}","[0]","survey-likert","545","2068486","0.0-545.0","u4f7wp70","","","","","","","","0"
"4480.840000000084","{""confidence"":3}","[0]","survey-likert","546","2072968","0.0-546.0","u4f7wp70","","","","","","","",""
"","","","call-function","547","2072969","0.0-547.0","u4f7wp70","","","","","","","",""
"null","","","html-keyboard-response","548","2074471","0.0-548.0","u4f7wp70","","<span style=""color:Black; font-size:50px;"">Agent A","null","","","","",""
"null","","","video-keyboard-response","549","2077222","0.0-549.0","u4f7wp70","","","null","","Agent A","scrambled","FOR_REV_BLOBBY_STIM/1592817.bmp_pp55_L3_V1.0_veridical_freeview_isoFalse_fps144_reversed_REAL.mp4",""
"null","","","html-keyboard-response","550","2078728","0.0-550.0","u4f7wp70","","<span style=""color:Black; font-size:50px;"">Agent B","null","","","","",""
"null","","","video-keyboard-response","551","2081474","0.0-551.0","u4f7wp70","","","null","","Agent B","veridical","FOR_REV_BLOBBY_STIM/1592817.bmp_pp55_L3_V1.0_veridical_freeview_isoFalse_fps144.mp4",""
"","","","call-function","552","2081474","0.0-552.0","u4f7wp70","","","","","","","",""
"1725.8100000000559","{""judgement"":0}","[0]","survey-likert","553","2083201","0.0-553.0","u4f7wp70","","","","","","","","1"
"1820.2649999998976","{""confidence"":0}","[0]","survey-likert","554","2085022","0.0-554.0","u4f7wp70","","","","","","","",""
"","","","call-function","555","2085023","0.0-555.0","u4f7wp70","","","","","","","",""
"null","","","html-keyboard-response","556","2086525","0.0-556.0","u4f7wp70","","<span style=""color:Black; font-size:50px;"">Agent A","null","","","","",""
"null","","","video-keyboard-response","557","2089349","0.0-557.0","u4f7wp70","","","null","","Agent A","scrambled","FOR_REV_BLOBBY_STIM/1159768.bmp_pp89_L1_V1.0_veridical_freeview_isoFalse_fps144_reversed_REAL.mp4",""
"null","","","html-keyboard-response","558","2090851","0.0-558.0","u4f7wp70","","<span style=""color:Black; font-size:50px;"">Agent B","null","","","","",""
"null","","","video-keyboard-response","559","2093670","0.0-559.0","u4f7wp70","","","null","","Agent B","veridical","FOR_REV_BLOBBY_STIM/1159768.bmp_pp89_L1_V1.0_veridical_freeview_isoFalse_fps144.mp4",""
"","","","call-function","560","2093671","0.0-560.0","u4f7wp70","","","","","","","",""
"2640.909999999916","{""judgement"":0}","[0]","survey-likert","561","2096313","0.0-561.0","u4f7wp70","","","","","","","","1"
"1542.3650000002235","{""confidence"":1}","[0]","survey-likert","562","2097856","0.0-562.0","u4f7wp70","","","","","","","",""
"","","","call-function","563","2097857","0.0-563.0","u4f7wp70","","","","","","","",""
"null","","","html-keyboard-response","564","2099359","0.0-564.0","u4f7wp70","","<span style=""color:Black; font-size:50px;"">Agent A","null","","","","",""
"null","","","video-keyboard-response","565","2102195","0.0-565.0","u4f7wp70","","","null","","Agent A","scrambled","FOR_REV_BLOBBY_STIM/713403.bmp_pp80_L3_V1.0_veridical_freeview_isoFalse_fps144_reversed_REAL.mp4",""
"null","","","html-keyboard-response","566","2103700","0.0-566.0","u4f7wp70","","<span style=""color:Black; font-size:50px;"">Agent B","null","","","","",""
"null","","","video-keyboard-response","567","2106537","0.0-567.0","u4f7wp70","","","null","","Agent B","veridical","FOR_REV_BLOBBY_STIM/713403.bmp_pp80_L3_V1.0_veridical_freeview_isoFalse_fps144.mp4",""
"","","","call-function","568","2106539","0.0-568.0","u4f7wp70","","","","","","","",""
"15077.90500000026","{""judgement"":0}","[0]","survey-likert","569","2121618","0.0-569.0","u4f7wp70","","","","","","","","1"
"1521.9899999997579","{""confidence"":0}","[0]","survey-likert","570","2123141","0.0-570.0","u4f7wp70","","","","","","","",""
"","","","call-function","571","2123141","0.0-571.0","u4f7wp70","","","","","","","",""
"null","","","html-keyboard-response","572","2124647","0.0-572.0","u4f7wp70","","<span style=""color:Black; font-size:50px;"">Agent A","null","","","","",""
"null","","","video-keyboard-response","573","2127376","0.0-573.0","u4f7wp70","","","null","","Agent A","scrambled","FOR_REV_BLOBBY_STIM/498111.bmp_pp88_L2_V1.0_veridical_freeview_isoFalse_fps144_reversed_REAL.mp4",""
"null","","","html-keyboard-response","574","2128879","0.0-574.0","u4f7wp70","","<span style=""color:Black; font-size:50px;"">Agent B","null","","","","",""
"null","","","video-keyboard-response","575","2131605","0.0-575.0","u4f7wp70","","","null","","Agent B","veridical","FOR_REV_BLOBBY_STIM/498111.bmp_pp88_L2_V1.0_veridical_freeview_isoFalse_fps144.mp4",""
"","","","call-function","576","2131605","0.0-576.0","u4f7wp70","","","","","","","",""
"14216.935000000056","{""judgement"":1}","[0]","survey-likert","577","2145823","0.0-577.0","u4f7wp70","","","","","","","","1"
"11186.544999999925","{""confidence"":1}","[0]","survey-likert","578","2157011","0.0-578.0","u4f7wp70","","","","","","","",""
"6459.930000000168","","","instructions","579","2163472","0.0-579.0","u4f7wp70","[{""page_index"":0,""viewing_time"":6459.7750000003725}]","","","","","","",""
"153743.3799999999","","","instructions","580","2317217","0.0-580.0","u4f7wp70","[{""page_index"":0,""viewing_time"":153743.2749999999}]","","","","","","",""
"20729.555000000168","{""post-1"":2}","[0]","survey-likert","581","2337949","0.0-581.0","u4f7wp70","","","","","","","",""
"18772.580000000075","{""post-1"":1}","[0]","survey-likert","582","2356723","0.0-582.0","u4f7wp70","","","","","","","",""
"51337.60499999998","{""post-2"":1}","[0]","survey-likert","583","2408062","0.0-583.0","u4f7wp70","","","","","","","",""
"22475.200000000186","{""post-2"":2}","[0]","survey-likert","584","2430538","0.0-584.0","u4f7wp70","","","","","","","",""
"10868.779999999795","{""post-3"":1}","[0]","survey-likert","585","2441409","0.0-585.0","u4f7wp70","","","","","","","",""
"7552.529999999795","{""post-3"":1}","[0]","survey-likert","586","2448964","0.0-586.0","u4f7wp70","","","","","","","",""
"13293.185000000056","{""post-4"":1}","[0]","survey-likert","587","2462258","0.0-587.0","u4f7wp70","","","","","","","",""
"15868.510000000242","{""post-4"":1}","[0]","survey-likert","588","2478128","0.0-588.0","u4f7wp70","","","","","","","",""
"10184.645000000019","{""post-5"":1}","[0]","survey-likert","589","2488315","0.0-589.0","u4f7wp70","","","","","","","",""
"4977.9550000000745","{""post-5"":1}","[0]","survey-likert","590","2493295","0.0-590.0","u4f7wp70","","","","","","","",""
"163762.11499999976","{""Q0"":""in the beginning to was hard than to became easy. I think there are some things that made me look at first like the bigger ones or the unusual- I felt that i know now much better what kind of attract me more first,   ""}","","survey-text","591","2657064","0.0-591.0","u4f7wp70","","","","","","","",""
"74127.71499999985","{""Q0"":""yes , i start to remember quickly and it is good the question immodestly   ""}","","survey-text","592","2731196","0.0-592.0","u4f7wp70","","","","","","","",""
"27182.575000000186","{""Q0"":""hard to know the order of attention ""}","","survey-text","593","2758383","0.0-593.0","u4f7wp70","","","","","","","",""
"1524.9900000002235","","","instructions","594","2759909","0.0-594.0","u4f7wp70","[{""page_index"":0,""viewing_time"":1524.785000000149}]","","","","","","",""
"73587.27000000002","{""Experimenter_end"":[""Printed ID# u4f7wp70 on consent form"",""Given subject SONA credit or payment"",""Given the subject debrief form""]}","[0]","survey-multi-select","595","2833499","0.0-595.0","u4f7wp70","","","","","","","",""
