"rt","responses","question_order","trial_type","trial_index","time_elapsed","internal_node_id","ID","view_history","stimulus","key_press","value","agent","condition","image","correct_answer"
"75327.975","{""Experimenter"":[""Confirmed subject's identity"",""Confirmed normal or corrected-to-normal vision"",""Obtained consent (signature and date)"",""Checked the test room lighting"",""Checked computer screen lighting"",""Checked distance from screen to chin rest (50cm)"",""Cleaned and adjusted chin rest"",""Counterbalanced the order of the tasks"",""Opened the experiment in Firefox"",""Made the experiment full screen"",""Encouraged subject to silence phone, put away distractors, etc.""]}","[0]","survey-multi-select","0","75340","0.0-0.0","ua7kg9qu","","","","","","","",""
"23910.045","","","instructions","1","99252","0.0-1.0","ua7kg9qu","[{""page_index"":0,""viewing_time"":23909.875}]","","","","","","",""
"17376.850000000006","","","instructions","2","116631","0.0-2.0","ua7kg9qu","[{""page_index"":0,""viewing_time"":7850.625},{""page_index"":1,""viewing_time"":1346.9000000000087},{""page_index"":2,""viewing_time"":8179.189999999988}]","","","","","","",""
"2985.1900000000023","","","instructions","3","119618","0.0-3.0","ua7kg9qu","[{""page_index"":0,""viewing_time"":2985.0800000000017}]","","","","","","",""
"null","","","video-keyboard-response","4","122699","0.0-4.0","ua7kg9qu","","","null","","","","",""
"16362.494999999995","","","instructions","5","139063","0.0-5.0","ua7kg9qu","[{""page_index"":0,""viewing_time"":8074.670000000013},{""page_index"":1,""viewing_time"":4946.8949999999895},{""page_index"":2,""viewing_time"":3340.8150000000023}]","","","","","","",""
"3363.529999999999","","","instructions","6","142428","0.0-6.0","ua7kg9qu","[{""page_index"":0,""viewing_time"":3363.4199999999837}]","","","","","","",""
"1161.7900000000081","","","instructions","7","143591","0.0-7.0","ua7kg9qu","[{""page_index"":0,""viewing_time"":1161.5450000000128}]","","","","","","",""
"null","","","video-keyboard-response","8","146670","0.0-8.0","ua7kg9qu","","","null","","","","",""
"13288.584999999992","","","instructions","9","159960","0.0-9.0","ua7kg9qu","[{""page_index"":0,""viewing_time"":2008.5350000000035},{""page_index"":1,""viewing_time"":4754.819999999978},{""page_index"":2,""viewing_time"":6525.055000000022}]","","","","","","",""
"4391.455000000016","","","instructions","10","164353","0.0-10.0","ua7kg9qu","[{""page_index"":0,""viewing_time"":4391.335000000021}]","","","","","","",""
"","","","call-function","11","164355","0.0-11.0","ua7kg9qu","","","","","","","",""
"null","","","html-keyboard-response","12","165858","0.0-12.0","ua7kg9qu","","<span style=""color:Black; font-size:50px;"">Agent A","null","","","","",""
"null","","","video-keyboard-response","13","168635","0.0-13.0","ua7kg9qu","","","null","","Agent A","scrambled","FOR_REV_MAP_BLOBBY_STIM/285932.bmp_pp64_L1_V1.0_veridical_freeview_isoTrue_fps144_reversed_REAL.mp4",""
"null","","","html-keyboard-response","14","170141","0.0-14.0","ua7kg9qu","","<span style=""color:Black; font-size:50px;"">Agent B","null","","","","",""
"null","","","video-keyboard-response","15","172932","0.0-15.0","ua7kg9qu","","","null","","Agent B","veridical","FOR_REV_MAP_BLOBBY_STIM/285932.bmp_pp64_L1_V1.0_veridical_freeview_isoTrue_fps144.mp4",""
"","","","call-function","16","172933","0.0-16.0","ua7kg9qu","","","","","","","",""
"6408.2149999999965","{""judgement"":0}","[0]","survey-likert","17","179343","0.0-17.0","ua7kg9qu","","","","","","","","1"
"2638.5650000000023","{""confidence"":1}","[0]","survey-likert","18","181984","0.0-18.0","ua7kg9qu","","","","","","","",""
"","","","call-function","19","181985","0.0-19.0","ua7kg9qu","","","","","","","",""
"null","","","html-keyboard-response","20","183488","0.0-20.0","ua7kg9qu","","<span style=""color:Black; font-size:50px;"">Agent A","null","","","","",""
"null","","","video-keyboard-response","21","186273","0.0-21.0","ua7kg9qu","","","null","","Agent A","veridical","FOR_REV_MAP_BLOBBY_STIM/286034.bmp_pp69_L3_V1.0_veridical_freeview_isoTrue_fps144.mp4",""
"null","","","html-keyboard-response","22","187779","0.0-22.0","ua7kg9qu","","<span style=""color:Black; font-size:50px;"">Agent B","null","","","","",""
"null","","","video-keyboard-response","23","190587","0.0-23.0","ua7kg9qu","","","null","","Agent B","scrambled","FOR_REV_MAP_BLOBBY_STIM/286034.bmp_pp69_L3_V1.0_veridical_freeview_isoTrue_fps144_reversed_REAL.mp4",""
"","","","call-function","24","190588","0.0-24.0","ua7kg9qu","","","","","","","",""
"4575.940000000002","{""judgement"":0}","[0]","survey-likert","25","195165","0.0-25.0","ua7kg9qu","","","","","","","","0"
"1963.8349999999919","{""confidence"":2}","[0]","survey-likert","26","197131","0.0-26.0","ua7kg9qu","","","","","","","",""
"","","","call-function","27","197133","0.0-27.0","ua7kg9qu","","","","","","","",""
"null","","","html-keyboard-response","28","198636","0.0-28.0","ua7kg9qu","","<span style=""color:Black; font-size:50px;"">Agent A","null","","","","",""
"null","","","video-keyboard-response","29","201396","0.0-29.0","ua7kg9qu","","","null","","Agent A","veridical","FOR_REV_MAP_BLOBBY_STIM/713328.bmp_pp86_L2_V1.0_veridical_freeview_isoTrue_fps144.mp4",""
"null","","","html-keyboard-response","30","202904","0.0-30.0","ua7kg9qu","","<span style=""color:Black; font-size:50px;"">Agent B","null","","","","",""
"null","","","video-keyboard-response","31","205669","0.0-31.0","ua7kg9qu","","","null","","Agent B","scrambled","FOR_REV_MAP_BLOBBY_STIM/713328.bmp_pp86_L2_V1.0_veridical_freeview_isoTrue_fps144_reversed_REAL.mp4",""
"","","","call-function","32","205671","0.0-32.0","ua7kg9qu","","","","","","","",""
"3648.7850000000035","{""judgement"":0}","[0]","survey-likert","33","209321","0.0-33.0","ua7kg9qu","","","","","","","","0"
"1312.0599999999977","{""confidence"":1}","[0]","survey-likert","34","210635","0.0-34.0","ua7kg9qu","","","","","","","",""
"","","","call-function","35","210637","0.0-35.0","ua7kg9qu","","","","","","","",""
"null","","","html-keyboard-response","36","212138","0.0-36.0","ua7kg9qu","","<span style=""color:Black; font-size:50px;"">Agent A","null","","","","",""
"null","","","video-keyboard-response","37","214911","0.0-37.0","ua7kg9qu","","","null","","Agent A","scrambled","FOR_REV_MAP_BLOBBY_STIM/1159325.bmp_pp67_L2_V1.0_veridical_freeview_isoTrue_fps144_reversed_REAL.mp4",""
"null","","","html-keyboard-response","38","216416","0.0-38.0","ua7kg9qu","","<span style=""color:Black; font-size:50px;"">Agent B","null","","","","",""
"null","","","video-keyboard-response","39","219187","0.0-39.0","ua7kg9qu","","","null","","Agent B","veridical","FOR_REV_MAP_BLOBBY_STIM/1159325.bmp_pp67_L2_V1.0_veridical_freeview_isoTrue_fps144.mp4",""
"","","","call-function","40","219188","0.0-40.0","ua7kg9qu","","","","","","","",""
"2484.0599999999977","{""judgement"":1}","[0]","survey-likert","41","221673","0.0-41.0","ua7kg9qu","","","","","","","","1"
"2306.404999999999","{""confidence"":2}","[0]","survey-likert","42","223982","0.0-42.0","ua7kg9qu","","","","","","","",""
"","","","call-function","43","223983","0.0-43.0","ua7kg9qu","","","","","","","",""
"null","","","html-keyboard-response","44","225486","0.0-44.0","ua7kg9qu","","<span style=""color:Black; font-size:50px;"">Agent A","null","","","","",""
"null","","","video-keyboard-response","45","228332","0.0-45.0","ua7kg9qu","","","null","","Agent A","scrambled","FOR_REV_MAP_BLOBBY_STIM/713829.bmp_pp60_L3_V1.0_veridical_freeview_isoTrue_fps144_reversed_REAL.mp4",""
"null","","","html-keyboard-response","46","229839","0.0-46.0","ua7kg9qu","","<span style=""color:Black; font-size:50px;"">Agent B","null","","","","",""
"null","","","video-keyboard-response","47","232692","0.0-47.0","ua7kg9qu","","","null","","Agent B","veridical","FOR_REV_MAP_BLOBBY_STIM/713829.bmp_pp60_L3_V1.0_veridical_freeview_isoTrue_fps144.mp4",""
"","","","call-function","48","232694","0.0-48.0","ua7kg9qu","","","","","","","",""
"1418.3099999999977","{""judgement"":1}","[0]","survey-likert","49","234113","0.0-49.0","ua7kg9qu","","","","","","","","1"
"2254.8699999999953","{""confidence"":3}","[0]","survey-likert","50","236370","0.0-50.0","ua7kg9qu","","","","","","","",""
"","","","call-function","51","236371","0.0-51.0","ua7kg9qu","","","","","","","",""
"null","","","html-keyboard-response","52","237877","0.0-52.0","ua7kg9qu","","<span style=""color:Black; font-size:50px;"">Agent A","null","","","","",""
"null","","","video-keyboard-response","53","240578","0.0-53.0","ua7kg9qu","","","null","","Agent A","scrambled","FOR_REV_MAP_BLOBBY_STIM/61513.bmp_pp75_L1_V1.0_veridical_freeview_isoTrue_fps144_reversed_REAL.mp4",""
"null","","","html-keyboard-response","54","242080","0.0-54.0","ua7kg9qu","","<span style=""color:Black; font-size:50px;"">Agent B","null","","","","",""
"null","","","video-keyboard-response","55","244771","0.0-55.0","ua7kg9qu","","","null","","Agent B","veridical","FOR_REV_MAP_BLOBBY_STIM/61513.bmp_pp75_L1_V1.0_veridical_freeview_isoTrue_fps144.mp4",""
"","","","call-function","56","244772","0.0-56.0","ua7kg9qu","","","","","","","",""
"2283.679999999993","{""judgement"":1}","[0]","survey-likert","57","247057","0.0-57.0","ua7kg9qu","","","","","","","","1"
"1934.585000000021","{""confidence"":3}","[0]","survey-likert","58","248994","0.0-58.0","ua7kg9qu","","","","","","","",""
"","","","call-function","59","248997","0.0-59.0","ua7kg9qu","","","","","","","",""
"null","","","html-keyboard-response","60","250497","0.0-60.0","ua7kg9qu","","<span style=""color:Black; font-size:50px;"">Agent A","null","","","","",""
"null","","","video-keyboard-response","61","253232","0.0-61.0","ua7kg9qu","","","null","","Agent A","scrambled","FOR_REV_MAP_BLOBBY_STIM/285959.bmp_pp93_L1_V1.0_veridical_freeview_isoTrue_fps144_reversed_REAL.mp4",""
"null","","","html-keyboard-response","62","254739","0.0-62.0","ua7kg9qu","","<span style=""color:Black; font-size:50px;"">Agent B","null","","","","",""
"null","","","video-keyboard-response","63","257487","0.0-63.0","ua7kg9qu","","","null","","Agent B","veridical","FOR_REV_MAP_BLOBBY_STIM/285959.bmp_pp93_L1_V1.0_veridical_freeview_isoTrue_fps144.mp4",""
"","","","call-function","64","257489","0.0-64.0","ua7kg9qu","","","","","","","",""
"2058","{""judgement"":0}","[0]","survey-likert","65","259548","0.0-65.0","ua7kg9qu","","","","","","","","1"
"3148.1750000000175","{""confidence"":0}","[0]","survey-likert","66","262698","0.0-66.0","ua7kg9qu","","","","","","","",""
"","","","call-function","67","262700","0.0-67.0","ua7kg9qu","","","","","","","",""
"null","","","html-keyboard-response","68","264205","0.0-68.0","ua7kg9qu","","<span style=""color:Black; font-size:50px;"">Agent A","null","","","","",""
"null","","","video-keyboard-response","69","267024","0.0-69.0","ua7kg9qu","","","null","","Agent A","scrambled","FOR_REV_MAP_BLOBBY_STIM/107955.bmp_pp90_L2_V1.0_veridical_freeview_isoTrue_fps144_reversed_REAL.mp4",""
"null","","","html-keyboard-response","70","268527","0.0-70.0","ua7kg9qu","","<span style=""color:Black; font-size:50px;"">Agent B","null","","","","",""
"null","","","video-keyboard-response","71","271350","0.0-71.0","ua7kg9qu","","","null","","Agent B","veridical","FOR_REV_MAP_BLOBBY_STIM/107955.bmp_pp90_L2_V1.0_veridical_freeview_isoTrue_fps144.mp4",""
"","","","call-function","72","271352","0.0-72.0","ua7kg9qu","","","","","","","",""
"2073.2600000000093","{""judgement"":1}","[0]","survey-likert","73","273426","0.0-73.0","ua7kg9qu","","","","","","","","1"
"2372.8099999999977","{""confidence"":2}","[0]","survey-likert","74","275801","0.0-74.0","ua7kg9qu","","","","","","","",""
"","","","call-function","75","275802","0.0-75.0","ua7kg9qu","","","","","","","",""
"null","","","html-keyboard-response","76","277308","0.0-76.0","ua7kg9qu","","<span style=""color:Black; font-size:50px;"">Agent A","null","","","","",""
"null","","","video-keyboard-response","77","280190","0.0-77.0","ua7kg9qu","","","null","","Agent A","veridical","FOR_REV_MAP_BLOBBY_STIM/713689.bmp_pp153_L3_V1.0_veridical_freeview_isoTrue_fps144.mp4",""
"null","","","html-keyboard-response","78","281695","0.0-78.0","ua7kg9qu","","<span style=""color:Black; font-size:50px;"">Agent B","null","","","","",""
"null","","","video-keyboard-response","79","284514","0.0-79.0","ua7kg9qu","","","null","","Agent B","scrambled","FOR_REV_MAP_BLOBBY_STIM/713689.bmp_pp153_L3_V1.0_veridical_freeview_isoTrue_fps144_reversed_REAL.mp4",""
"","","","call-function","80","284516","0.0-80.0","ua7kg9qu","","","","","","","",""
"2411.8300000000163","{""judgement"":0}","[0]","survey-likert","81","286929","0.0-81.0","ua7kg9qu","","","","","","","","0"
"1619.0750000000116","{""confidence"":0}","[0]","survey-likert","82","288550","0.0-82.0","ua7kg9qu","","","","","","","",""
"","","","call-function","83","288552","0.0-83.0","ua7kg9qu","","","","","","","",""
"null","","","html-keyboard-response","84","290053","0.0-84.0","ua7kg9qu","","<span style=""color:Black; font-size:50px;"">Agent A","null","","","","",""
"null","","","video-keyboard-response","85","292935","0.0-85.0","ua7kg9qu","","","null","","Agent A","veridical","FOR_REV_MAP_BLOBBY_STIM/498396.bmp_pp99_L2_V1.0_veridical_freeview_isoTrue_fps144.mp4",""
"null","","","html-keyboard-response","86","294455","0.0-86.0","ua7kg9qu","","<span style=""color:Black; font-size:50px;"">Agent B","null","","","","",""
"null","","","video-keyboard-response","87","297316","0.0-87.0","ua7kg9qu","","","null","","Agent B","scrambled","FOR_REV_MAP_BLOBBY_STIM/498396.bmp_pp99_L2_V1.0_veridical_freeview_isoTrue_fps144_reversed_REAL.mp4",""
"","","","call-function","88","297318","0.0-88.0","ua7kg9qu","","","","","","","",""
"2613.3349999999627","{""judgement"":0}","[0]","survey-likert","89","299933","0.0-89.0","ua7kg9qu","","","","","","","","0"
"2066.8399999999674","{""confidence"":1}","[0]","survey-likert","90","302003","0.0-90.0","ua7kg9qu","","","","","","","",""
"11204.340000000026","","","instructions","91","313210","0.0-91.0","ua7kg9qu","[{""page_index"":0,""viewing_time"":1392.1600000000326},{""page_index"":1,""viewing_time"":8716.789999999979},{""page_index"":2,""viewing_time"":1095.164999999979}]","","","","","","",""
"6637.589999999967","","","instructions","92","319849","0.0-92.0","ua7kg9qu","[{""page_index"":0,""viewing_time"":940.445000000007},{""page_index"":1,""viewing_time"":4803.940000000002},{""page_index"":2,""viewing_time"":893.0849999999627}]","","","","","","",""
"","","","call-function","93","319851","0.0-93.0","ua7kg9qu","","","","","","","",""
"null","","","html-keyboard-response","94","321355","0.0-94.0","ua7kg9qu","","<span style=""color:Black; font-size:50px;"">Agent A","null","","","","",""
"null","","","video-keyboard-response","95","323253","0.0-95.0","ua7kg9qu","","","null","","Agent A","veridical","FOR_REV_MAP_BLOBBY_STIM/285946.bmp_pp79_L2_V1.0_veridical_freeview_isoTrue_fps144.mp4",""
"null","","","html-keyboard-response","96","324756","0.0-96.0","ua7kg9qu","","<span style=""color:Black; font-size:50px;"">Agent B","null","","","","",""
"null","","","video-keyboard-response","97","326645","0.0-97.0","ua7kg9qu","","","null","","Agent B","scrambled","FOR_REV_MAP_BLOBBY_STIM/285946.bmp_pp79_L2_V1.0_veridical_freeview_isoTrue_fps144_reversed_REAL.mp4",""
"","","","call-function","98","326646","0.0-98.0","ua7kg9qu","","","","","","","",""
"2247.3250000000116","{""judgement"":1}","[0]","survey-likert","99","328894","0.0-99.0","ua7kg9qu","","","","","","","","0"
"2184.5499999999884","{""confidence"":2}","[0]","survey-likert","100","331082","0.0-100.0","ua7kg9qu","","","","","","","",""
"","","","call-function","101","331083","0.0-101.0","ua7kg9qu","","","","","","","",""
"null","","","html-keyboard-response","102","332589","0.0-102.0","ua7kg9qu","","<span style=""color:Black; font-size:50px;"">Agent A","null","","","","",""
"null","","","video-keyboard-response","103","335392","0.0-103.0","ua7kg9qu","","","null","","Agent A","veridical","FOR_REV_MAP_BLOBBY_STIM/1592150.bmp_pp77_L3_V1.0_veridical_freeview_isoTrue_fps144.mp4",""
"null","","","html-keyboard-response","104","336896","0.0-104.0","ua7kg9qu","","<span style=""color:Black; font-size:50px;"">Agent B","null","","","","",""
"null","","","video-keyboard-response","105","339708","0.0-105.0","ua7kg9qu","","","null","","Agent B","scrambled","FOR_REV_MAP_BLOBBY_STIM/1592150.bmp_pp77_L3_V1.0_veridical_freeview_isoTrue_fps144_reversed_REAL.mp4",""
"","","","call-function","106","339710","0.0-106.0","ua7kg9qu","","","","","","","",""
"3110.399999999965","{""judgement"":0}","[0]","survey-likert","107","342821","0.0-107.0","ua7kg9qu","","","","","","","","0"
"2066.4850000000442","{""confidence"":2}","[0]","survey-likert","108","344890","0.0-108.0","ua7kg9qu","","","","","","","",""
"","","","call-function","109","344892","0.0-109.0","ua7kg9qu","","","","","","","",""
"null","","","html-keyboard-response","110","346397","0.0-110.0","ua7kg9qu","","<span style=""color:Black; font-size:50px;"">Agent A","null","","","","",""
"null","","","video-keyboard-response","111","349237","0.0-111.0","ua7kg9qu","","","null","","Agent A","scrambled","FOR_REV_MAP_BLOBBY_STIM/1592314.bmp_pp100_L3_V1.0_veridical_freeview_isoTrue_fps144_reversed_REAL.mp4",""
"null","","","html-keyboard-response","112","350743","0.0-112.0","ua7kg9qu","","<span style=""color:Black; font-size:50px;"">Agent B","null","","","","",""
"null","","","video-keyboard-response","113","353574","0.0-113.0","ua7kg9qu","","","null","","Agent B","veridical","FOR_REV_MAP_BLOBBY_STIM/1592314.bmp_pp100_L3_V1.0_veridical_freeview_isoTrue_fps144.mp4",""
"","","","call-function","114","353575","0.0-114.0","ua7kg9qu","","","","","","","",""
"1441.2700000000186","{""judgement"":0}","[0]","survey-likert","115","355018","0.0-115.0","ua7kg9qu","","","","","","","","1"
"1972.4400000000023","{""confidence"":3}","[0]","survey-likert","116","356992","0.0-116.0","ua7kg9qu","","","","","","","",""
"","","","call-function","117","356994","0.0-117.0","ua7kg9qu","","","","","","","",""
"null","","","html-keyboard-response","118","358497","0.0-118.0","ua7kg9qu","","<span style=""color:Black; font-size:50px;"">Agent A","null","","","","",""
"null","","","video-keyboard-response","119","361274","0.0-119.0","ua7kg9qu","","","null","","Agent A","scrambled","FOR_REV_MAP_BLOBBY_STIM/1592168.bmp_pp71_L1_V1.0_veridical_freeview_isoTrue_fps144_reversed_REAL.mp4",""
"null","","","html-keyboard-response","120","362779","0.0-120.0","ua7kg9qu","","<span style=""color:Black; font-size:50px;"">Agent B","null","","","","",""
"null","","","video-keyboard-response","121","365559","0.0-121.0","ua7kg9qu","","","null","","Agent B","veridical","FOR_REV_MAP_BLOBBY_STIM/1592168.bmp_pp71_L1_V1.0_veridical_freeview_isoTrue_fps144.mp4",""
"","","","call-function","122","365561","0.0-122.0","ua7kg9qu","","","","","","","",""
"2279.9649999999674","{""judgement"":0}","[0]","survey-likert","123","367841","0.0-123.0","ua7kg9qu","","","","","","","","1"
"1290.5449999999837","{""confidence"":2}","[0]","survey-likert","124","369134","0.0-124.0","ua7kg9qu","","","","","","","",""
"","","","call-function","125","369136","0.0-125.0","ua7kg9qu","","","","","","","",""
"null","","","html-keyboard-response","126","370638","0.0-126.0","ua7kg9qu","","<span style=""color:Black; font-size:50px;"">Agent A","null","","","","",""
"null","","","video-keyboard-response","127","373474","0.0-127.0","ua7kg9qu","","","null","","Agent A","veridical","FOR_REV_MAP_BLOBBY_STIM/1592921.bmp_pp69_L3_V1.0_veridical_freeview_isoTrue_fps144.mp4",""
"null","","","html-keyboard-response","128","374983","0.0-128.0","ua7kg9qu","","<span style=""color:Black; font-size:50px;"">Agent B","null","","","","",""
"null","","","video-keyboard-response","129","377817","0.0-129.0","ua7kg9qu","","","null","","Agent B","scrambled","FOR_REV_MAP_BLOBBY_STIM/1592921.bmp_pp69_L3_V1.0_veridical_freeview_isoTrue_fps144_reversed_REAL.mp4",""
"","","","call-function","130","377819","0.0-130.0","ua7kg9qu","","","","","","","",""
"1874.975000000035","{""judgement"":1}","[0]","survey-likert","131","379695","0.0-131.0","ua7kg9qu","","","","","","","","0"
"1941.4249999999884","{""confidence"":2}","[0]","survey-likert","132","381639","0.0-132.0","ua7kg9qu","","","","","","","",""
"","","","call-function","133","381641","0.0-133.0","ua7kg9qu","","","","","","","",""
"null","","","html-keyboard-response","134","383146","0.0-134.0","ua7kg9qu","","<span style=""color:Black; font-size:50px;"">Agent A","null","","","","",""
"null","","","video-keyboard-response","135","385942","0.0-135.0","ua7kg9qu","","","null","","Agent A","veridical","FOR_REV_MAP_BLOBBY_STIM/1160247.bmp_pp54_L2_V1.0_veridical_freeview_isoTrue_fps144.mp4",""
"null","","","html-keyboard-response","136","387446","0.0-136.0","ua7kg9qu","","<span style=""color:Black; font-size:50px;"">Agent B","null","","","","",""
"null","","","video-keyboard-response","137","390199","0.0-137.0","ua7kg9qu","","","null","","Agent B","scrambled","FOR_REV_MAP_BLOBBY_STIM/1160247.bmp_pp54_L2_V1.0_veridical_freeview_isoTrue_fps144_reversed_REAL.mp4",""
"","","","call-function","138","390200","0.0-138.0","ua7kg9qu","","","","","","","",""
"2854.5050000000047","{""judgement"":0}","[0]","survey-likert","139","393056","0.0-139.0","ua7kg9qu","","","","","","","","0"
"1828.030000000028","{""confidence"":1}","[0]","survey-likert","140","394886","0.0-140.0","ua7kg9qu","","","","","","","",""
"","","","call-function","141","394887","0.0-141.0","ua7kg9qu","","","","","","","",""
"null","","","html-keyboard-response","142","396393","0.0-142.0","ua7kg9qu","","<span style=""color:Black; font-size:50px;"">Agent A","null","","","","",""
"null","","","video-keyboard-response","143","399116","0.0-143.0","ua7kg9qu","","","null","","Agent A","scrambled","FOR_REV_MAP_BLOBBY_STIM/1159427.bmp_pp98_L1_V1.0_veridical_freeview_isoTrue_fps144_reversed_REAL.mp4",""
"null","","","html-keyboard-response","144","400620","0.0-144.0","ua7kg9qu","","<span style=""color:Black; font-size:50px;"">Agent B","null","","","","",""
"null","","","video-keyboard-response","145","403331","0.0-145.0","ua7kg9qu","","","null","","Agent B","veridical","FOR_REV_MAP_BLOBBY_STIM/1159427.bmp_pp98_L1_V1.0_veridical_freeview_isoTrue_fps144.mp4",""
"","","","call-function","146","403333","0.0-146.0","ua7kg9qu","","","","","","","",""
"2057.8850000000093","{""judgement"":1}","[0]","survey-likert","147","405392","0.0-147.0","ua7kg9qu","","","","","","","","1"
"1911.0100000000093","{""confidence"":3}","[0]","survey-likert","148","407305","0.0-148.0","ua7kg9qu","","","","","","","",""
"","","","call-function","149","407306","0.0-149.0","ua7kg9qu","","","","","","","",""
"null","","","html-keyboard-response","150","408809","0.0-150.0","ua7kg9qu","","<span style=""color:Black; font-size:50px;"">Agent A","null","","","","",""
"null","","","video-keyboard-response","151","411477","0.0-151.0","ua7kg9qu","","","null","","Agent A","scrambled","FOR_REV_MAP_BLOBBY_STIM/713633.bmp_pp58_L1_V1.0_veridical_freeview_isoTrue_fps144_reversed_REAL.mp4",""
"null","","","html-keyboard-response","152","412983","0.0-152.0","ua7kg9qu","","<span style=""color:Black; font-size:50px;"">Agent B","null","","","","",""
"null","","","video-keyboard-response","153","415611","0.0-153.0","ua7kg9qu","","","null","","Agent B","veridical","FOR_REV_MAP_BLOBBY_STIM/713633.bmp_pp58_L1_V1.0_veridical_freeview_isoTrue_fps144.mp4",""
"","","","call-function","154","415613","0.0-154.0","ua7kg9qu","","","","","","","",""
"1572.4550000000163","{""judgement"":1}","[0]","survey-likert","155","417187","0.0-155.0","ua7kg9qu","","","","","","","","1"
"1937.9199999999837","{""confidence"":1}","[0]","survey-likert","156","419127","0.0-156.0","ua7kg9qu","","","","","","","",""
"","","","call-function","157","419129","0.0-157.0","ua7kg9qu","","","","","","","",""
"null","","","html-keyboard-response","158","420635","0.0-158.0","ua7kg9qu","","<span style=""color:Black; font-size:50px;"">Agent A","null","","","","",""
"null","","","video-keyboard-response","159","423444","0.0-159.0","ua7kg9qu","","","null","","Agent A","scrambled","FOR_REV_MAP_BLOBBY_STIM/1592305.bmp_pp65_L3_V1.0_veridical_freeview_isoTrue_fps144_reversed_REAL.mp4",""
"null","","","html-keyboard-response","160","424953","0.0-160.0","ua7kg9qu","","<span style=""color:Black; font-size:50px;"">Agent B","null","","","","",""
"null","","","video-keyboard-response","161","427759","0.0-161.0","ua7kg9qu","","","null","","Agent B","veridical","FOR_REV_MAP_BLOBBY_STIM/1592305.bmp_pp65_L3_V1.0_veridical_freeview_isoTrue_fps144.mp4",""
"","","","call-function","162","427761","0.0-162.0","ua7kg9qu","","","","","","","",""
"2008.4349999999977","{""judgement"":0}","[0]","survey-likert","163","429771","0.0-163.0","ua7kg9qu","","","","","","","","1"
"1911.6049999999814","{""confidence"":3}","[0]","survey-likert","164","431685","0.0-164.0","ua7kg9qu","","","","","","","",""
"","","","call-function","165","431687","0.0-165.0","ua7kg9qu","","","","","","","",""
"null","","","html-keyboard-response","166","433190","0.0-166.0","ua7kg9qu","","<span style=""color:Black; font-size:50px;"">Agent A","null","","","","",""
"null","","","video-keyboard-response","167","436002","0.0-167.0","ua7kg9qu","","","null","","Agent A","scrambled","FOR_REV_MAP_BLOBBY_STIM/1159392.bmp_pp96_L2_V1.0_veridical_freeview_isoTrue_fps144_reversed_REAL.mp4",""
"null","","","html-keyboard-response","168","437506","0.0-168.0","ua7kg9qu","","<span style=""color:Black; font-size:50px;"">Agent B","null","","","","",""
"null","","","video-keyboard-response","169","440325","0.0-169.0","ua7kg9qu","","","null","","Agent B","veridical","FOR_REV_MAP_BLOBBY_STIM/1159392.bmp_pp96_L2_V1.0_veridical_freeview_isoTrue_fps144.mp4",""
"","","","call-function","170","440327","0.0-170.0","ua7kg9qu","","","","","","","",""
"2109.3549999999814","{""judgement"":1}","[0]","survey-likert","171","442437","0.0-171.0","ua7kg9qu","","","","","","","","1"
"1813.3450000000303","{""confidence"":3}","[0]","survey-likert","172","444253","0.0-172.0","ua7kg9qu","","","","","","","",""
"6470","","","instructions","173","450725","0.0-173.0","ua7kg9qu","[{""page_index"":0,""viewing_time"":2432.6149999999907},{""page_index"":1,""viewing_time"":3212.375},{""page_index"":2,""viewing_time"":824.7949999999837}]","","","","","","",""
"3787.25","","","instructions","174","454513","0.0-174.0","ua7kg9qu","[{""page_index"":0,""viewing_time"":944.2999999999884},{""page_index"":1,""viewing_time"":2055.850000000035},{""page_index"":2,""viewing_time"":786.9899999999907}]","","","","","","",""
"","","","call-function","175","454515","0.0-175.0","ua7kg9qu","","","","","","","",""
"null","","","html-keyboard-response","176","456021","0.0-176.0","ua7kg9qu","","<span style=""color:Black; font-size:50px;"">Agent A","null","","","","",""
"null","","","video-keyboard-response","177","458464","0.0-177.0","ua7kg9qu","","","null","","Agent A","scrambled","FOR_REV_MAP_BLOBBY_STIM/1592951.bmp_pp80_L3_V1.0_veridical_freeview_isoTrue_fps144_reversed_REAL.mp4",""
"null","","","html-keyboard-response","178","459970","0.0-178.0","ua7kg9qu","","<span style=""color:Black; font-size:50px;"">Agent B","null","","","","",""
"null","","","video-keyboard-response","179","462407","0.0-179.0","ua7kg9qu","","","null","","Agent B","veridical","FOR_REV_MAP_BLOBBY_STIM/1592951.bmp_pp80_L3_V1.0_veridical_freeview_isoTrue_fps144.mp4",""
"","","","call-function","180","462409","0.0-180.0","ua7kg9qu","","","","","","","",""
"1983.0299999999697","{""judgement"":0}","[0]","survey-likert","181","464393","0.0-181.0","ua7kg9qu","","","","","","","","1"
"1321.8399999999674","{""confidence"":1}","[0]","survey-likert","182","465717","0.0-182.0","ua7kg9qu","","","","","","","",""
"","","","call-function","183","465718","0.0-183.0","ua7kg9qu","","","","","","","",""
"null","","","html-keyboard-response","184","467223","0.0-184.0","ua7kg9qu","","<span style=""color:Black; font-size:50px;"">Agent A","null","","","","",""
"null","","","video-keyboard-response","185","469972","0.0-185.0","ua7kg9qu","","","null","","Agent A","scrambled","FOR_REV_MAP_BLOBBY_STIM/1591975.bmp_pp88_L2_V1.0_veridical_freeview_isoTrue_fps144_reversed_REAL.mp4",""
"null","","","html-keyboard-response","186","471476","0.0-186.0","ua7kg9qu","","<span style=""color:Black; font-size:50px;"">Agent B","null","","","","",""
"null","","","video-keyboard-response","187","474322","0.0-187.0","ua7kg9qu","","","null","","Agent B","veridical","FOR_REV_MAP_BLOBBY_STIM/1591975.bmp_pp88_L2_V1.0_veridical_freeview_isoTrue_fps144.mp4",""
"","","","call-function","188","474323","0.0-188.0","ua7kg9qu","","","","","","","",""
"1437.240000000049","{""judgement"":0}","[0]","survey-likert","189","475762","0.0-189.0","ua7kg9qu","","","","","","","","1"
"1214.725000000035","{""confidence"":1}","[0]","survey-likert","190","476979","0.0-190.0","ua7kg9qu","","","","","","","",""
"","","","call-function","191","476980","0.0-191.0","ua7kg9qu","","","","","","","",""
"null","","","html-keyboard-response","192","478487","0.0-192.0","ua7kg9qu","","<span style=""color:Black; font-size:50px;"">Agent A","null","","","","",""
"null","","","video-keyboard-response","193","481198","0.0-193.0","ua7kg9qu","","","null","","Agent A","veridical","FOR_REV_MAP_BLOBBY_STIM/713788.bmp_pp52_L1_V1.0_veridical_freeview_isoTrue_fps144.mp4",""
"null","","","html-keyboard-response","194","482701","0.0-194.0","ua7kg9qu","","<span style=""color:Black; font-size:50px;"">Agent B","null","","","","",""
"null","","","video-keyboard-response","195","485392","0.0-195.0","ua7kg9qu","","","null","","Agent B","scrambled","FOR_REV_MAP_BLOBBY_STIM/713788.bmp_pp52_L1_V1.0_veridical_freeview_isoTrue_fps144_reversed_REAL.mp4",""
"","","","call-function","196","485393","0.0-196.0","ua7kg9qu","","","","","","","",""
"1749.3450000000303","{""judgement"":0}","[0]","survey-likert","197","487144","0.0-197.0","ua7kg9qu","","","","","","","","0"
"1689.7449999999953","{""confidence"":3}","[0]","survey-likert","198","488836","0.0-198.0","ua7kg9qu","","","","","","","",""
"","","","call-function","199","488837","0.0-199.0","ua7kg9qu","","","","","","","",""
"null","","","html-keyboard-response","200","490340","0.0-200.0","ua7kg9qu","","<span style=""color:Black; font-size:50px;"">Agent A","null","","","","",""
"null","","","video-keyboard-response","201","493117","0.0-201.0","ua7kg9qu","","","null","","Agent A","veridical","FOR_REV_MAP_BLOBBY_STIM/150277.bmp_pp65_L3_V1.0_veridical_freeview_isoTrue_fps144.mp4",""
"null","","","html-keyboard-response","202","494622","0.0-202.0","ua7kg9qu","","<span style=""color:Black; font-size:50px;"">Agent B","null","","","","",""
"null","","","video-keyboard-response","203","497390","0.0-203.0","ua7kg9qu","","","null","","Agent B","scrambled","FOR_REV_MAP_BLOBBY_STIM/150277.bmp_pp65_L3_V1.0_veridical_freeview_isoTrue_fps144_reversed_REAL.mp4",""
"","","","call-function","204","497392","0.0-204.0","ua7kg9qu","","","","","","","",""
"1311.2750000000233","{""judgement"":1}","[0]","survey-likert","205","498705","0.0-205.0","ua7kg9qu","","","","","","","","0"
"1828.2350000000442","{""confidence"":0}","[0]","survey-likert","206","500535","0.0-206.0","ua7kg9qu","","","","","","","",""
"","","","call-function","207","500537","0.0-207.0","ua7kg9qu","","","","","","","",""
"null","","","html-keyboard-response","208","502041","0.0-208.0","ua7kg9qu","","<span style=""color:Black; font-size:50px;"">Agent A","null","","","","",""
"null","","","video-keyboard-response","209","504825","0.0-209.0","ua7kg9qu","","","null","","Agent A","scrambled","FOR_REV_MAP_BLOBBY_STIM/1160049.bmp_pp53_L2_V1.0_veridical_freeview_isoTrue_fps144_reversed_REAL.mp4",""
"null","","","html-keyboard-response","210","506330","0.0-210.0","ua7kg9qu","","<span style=""color:Black; font-size:50px;"">Agent B","null","","","","",""
"null","","","video-keyboard-response","211","509118","0.0-211.0","ua7kg9qu","","","null","","Agent B","veridical","FOR_REV_MAP_BLOBBY_STIM/1160049.bmp_pp53_L2_V1.0_veridical_freeview_isoTrue_fps144.mp4",""
"","","","call-function","212","509120","0.0-212.0","ua7kg9qu","","","","","","","",""
"1743.1599999999744","{""judgement"":1}","[0]","survey-likert","213","510865","0.0-213.0","ua7kg9qu","","","","","","","","1"
"1232.7700000000186","{""confidence"":3}","[0]","survey-likert","214","512100","0.0-214.0","ua7kg9qu","","","","","","","",""
"","","","call-function","215","512102","0.0-215.0","ua7kg9qu","","","","","","","",""
"null","","","html-keyboard-response","216","513606","0.0-216.0","ua7kg9qu","","<span style=""color:Black; font-size:50px;"">Agent A","null","","","","",""
"null","","","video-keyboard-response","217","516567","0.0-217.0","ua7kg9qu","","","null","","Agent A","veridical","FOR_REV_MAP_BLOBBY_STIM/1592568.bmp_pp71_L1_V1.0_veridical_freeview_isoTrue_fps144.mp4",""
"null","","","html-keyboard-response","218","518071","0.0-218.0","ua7kg9qu","","<span style=""color:Black; font-size:50px;"">Agent B","null","","","","",""
"null","","","video-keyboard-response","219","521047","0.0-219.0","ua7kg9qu","","","null","","Agent B","scrambled","FOR_REV_MAP_BLOBBY_STIM/1592568.bmp_pp71_L1_V1.0_veridical_freeview_isoTrue_fps144_reversed_REAL.mp4",""
"","","","call-function","220","521049","0.0-220.0","ua7kg9qu","","","","","","","",""
"1649.3950000000186","{""judgement"":0}","[0]","survey-likert","221","522700","0.0-221.0","ua7kg9qu","","","","","","","","0"
"1505.454999999958","{""confidence"":2}","[0]","survey-likert","222","524208","0.0-222.0","ua7kg9qu","","","","","","","",""
"","","","call-function","223","524210","0.0-223.0","ua7kg9qu","","","","","","","",""
"null","","","html-keyboard-response","224","525711","0.0-224.0","ua7kg9qu","","<span style=""color:Black; font-size:50px;"">Agent A","null","","","","",""
"null","","","video-keyboard-response","225","528518","0.0-225.0","ua7kg9qu","","","null","","Agent A","scrambled","FOR_REV_MAP_BLOBBY_STIM/1591781.bmp_pp63_L1_V1.0_veridical_freeview_isoTrue_fps144_reversed_REAL.mp4",""
"null","","","html-keyboard-response","226","530022","0.0-226.0","ua7kg9qu","","<span style=""color:Black; font-size:50px;"">Agent B","null","","","","",""
"null","","","video-keyboard-response","227","532824","0.0-227.0","ua7kg9qu","","","null","","Agent B","veridical","FOR_REV_MAP_BLOBBY_STIM/1591781.bmp_pp63_L1_V1.0_veridical_freeview_isoTrue_fps144.mp4",""
"","","","call-function","228","532825","0.0-228.0","ua7kg9qu","","","","","","","",""
"2033.9349999999395","{""judgement"":0}","[0]","survey-likert","229","534860","0.0-229.0","ua7kg9qu","","","","","","","","1"
"1408.5700000000652","{""confidence"":0}","[0]","survey-likert","230","536271","0.0-230.0","ua7kg9qu","","","","","","","",""
"","","","call-function","231","536273","0.0-231.0","ua7kg9qu","","","","","","","",""
"null","","","html-keyboard-response","232","537774","0.0-232.0","ua7kg9qu","","<span style=""color:Black; font-size:50px;"">Agent A","null","","","","",""
"null","","","video-keyboard-response","233","540548","0.0-233.0","ua7kg9qu","","","null","","Agent A","scrambled","FOR_REV_MAP_BLOBBY_STIM/1592747.bmp_pp53_L2_V1.0_veridical_freeview_isoTrue_fps144_reversed_REAL.mp4",""
"null","","","html-keyboard-response","234","542052","0.0-234.0","ua7kg9qu","","<span style=""color:Black; font-size:50px;"">Agent B","null","","","","",""
"null","","","video-keyboard-response","235","544826","0.0-235.0","ua7kg9qu","","","null","","Agent B","veridical","FOR_REV_MAP_BLOBBY_STIM/1592747.bmp_pp53_L2_V1.0_veridical_freeview_isoTrue_fps144.mp4",""
"","","","call-function","236","544828","0.0-236.0","ua7kg9qu","","","","","","","",""
"2307.289999999921","{""judgement"":0}","[0]","survey-likert","237","547136","0.0-237.0","ua7kg9qu","","","","","","","","1"
"1374.469999999972","{""confidence"":2}","[0]","survey-likert","238","548513","0.0-238.0","ua7kg9qu","","","","","","","",""
"","","","call-function","239","548514","0.0-239.0","ua7kg9qu","","","","","","","",""
"null","","","html-keyboard-response","240","550019","0.0-240.0","ua7kg9qu","","<span style=""color:Black; font-size:50px;"">Agent A","null","","","","",""
"null","","","video-keyboard-response","241","552809","0.0-241.0","ua7kg9qu","","","null","","Agent A","scrambled","FOR_REV_MAP_BLOBBY_STIM/1592047.bmp_pp51_L1_V1.0_veridical_freeview_isoTrue_fps144_reversed_REAL.mp4",""
"null","","","html-keyboard-response","242","554312","0.0-242.0","ua7kg9qu","","<span style=""color:Black; font-size:50px;"">Agent B","null","","","","",""
"null","","","video-keyboard-response","243","557100","0.0-243.0","ua7kg9qu","","","null","","Agent B","veridical","FOR_REV_MAP_BLOBBY_STIM/1592047.bmp_pp51_L1_V1.0_veridical_freeview_isoTrue_fps144.mp4",""
"","","","call-function","244","557101","0.0-244.0","ua7kg9qu","","","","","","","",""
"1833.4899999999907","{""judgement"":1}","[0]","survey-likert","245","558936","0.0-245.0","ua7kg9qu","","","","","","","","1"
"1684.0400000000373","{""confidence"":3}","[0]","survey-likert","246","560622","0.0-246.0","ua7kg9qu","","","","","","","",""
"","","","call-function","247","560624","0.0-247.0","ua7kg9qu","","","","","","","",""
"null","","","html-keyboard-response","248","562128","0.0-248.0","ua7kg9qu","","<span style=""color:Black; font-size:50px;"">Agent A","null","","","","",""
"null","","","video-keyboard-response","249","564879","0.0-249.0","ua7kg9qu","","","null","","Agent A","scrambled","FOR_REV_MAP_BLOBBY_STIM/1159592.bmp_pp91_L3_V1.0_veridical_freeview_isoTrue_fps144_reversed_REAL.mp4",""
"null","","","html-keyboard-response","250","566383","0.0-250.0","ua7kg9qu","","<span style=""color:Black; font-size:50px;"">Agent B","null","","","","",""
"null","","","video-keyboard-response","251","569124","0.0-251.0","ua7kg9qu","","","null","","Agent B","veridical","FOR_REV_MAP_BLOBBY_STIM/1159592.bmp_pp91_L3_V1.0_veridical_freeview_isoTrue_fps144.mp4",""
"","","","call-function","252","569126","0.0-252.0","ua7kg9qu","","","","","","","",""
"2647.829999999958","{""judgement"":1}","[0]","survey-likert","253","571775","0.0-253.0","ua7kg9qu","","","","","","","","1"
"2434.9400000000605","{""confidence"":1}","[0]","survey-likert","254","574212","0.0-254.0","ua7kg9qu","","","","","","","",""
"18595.64500000002","","","instructions","255","592809","0.0-255.0","ua7kg9qu","[{""page_index"":0,""viewing_time"":1979.3000000000466},{""page_index"":1,""viewing_time"":13187.04999999993},{""page_index"":2,""viewing_time"":3429.0650000000605}]","","","","","","",""
"2505.2050000000745","","","instructions","256","595316","0.0-256.0","ua7kg9qu","[{""page_index"":0,""viewing_time"":711.2000000000698},{""page_index"":1,""viewing_time"":1002.8800000000047},{""page_index"":2,""viewing_time"":791.0050000000047}]","","","","","","",""
"","","","call-function","257","595318","0.0-257.0","ua7kg9qu","","","","","","","",""
"null","","","html-keyboard-response","258","596820","0.0-258.0","ua7kg9qu","","<span style=""color:Black; font-size:50px;"">Agent A","null","","","","",""
"null","","","video-keyboard-response","259","599681","0.0-259.0","ua7kg9qu","","","null","","Agent A","veridical","FOR_REV_MAP_BLOBBY_STIM/1592201.bmp_pp97_L3_V1.0_veridical_freeview_isoTrue_fps144.mp4",""
"null","","","html-keyboard-response","260","601188","0.0-260.0","ua7kg9qu","","<span style=""color:Black; font-size:50px;"">Agent B","null","","","","",""
"null","","","video-keyboard-response","261","604150","0.0-261.0","ua7kg9qu","","","null","","Agent B","scrambled","FOR_REV_MAP_BLOBBY_STIM/1592201.bmp_pp97_L3_V1.0_veridical_freeview_isoTrue_fps144_reversed_REAL.mp4",""
"","","","call-function","262","604151","0.0-262.0","ua7kg9qu","","","","","","","",""
"1341.1850000000559","{""judgement"":1}","[0]","survey-likert","263","605493","0.0-263.0","ua7kg9qu","","","","","","","","0"
"1934.609999999986","{""confidence"":2}","[0]","survey-likert","264","607430","0.0-264.0","ua7kg9qu","","","","","","","",""
"","","","call-function","265","607432","0.0-265.0","ua7kg9qu","","","","","","","",""
"null","","","html-keyboard-response","266","608938","0.0-266.0","ua7kg9qu","","<span style=""color:Black; font-size:50px;"">Agent A","null","","","","",""
"null","","","video-keyboard-response","267","611796","0.0-267.0","ua7kg9qu","","","null","","Agent A","scrambled","FOR_REV_MAP_BLOBBY_STIM/1160189.bmp_pp64_L1_V1.0_veridical_freeview_isoTrue_fps144_reversed_REAL.mp4",""
"null","","","html-keyboard-response","268","613299","0.0-268.0","ua7kg9qu","","<span style=""color:Black; font-size:50px;"">Agent B","null","","","","",""
"null","","","video-keyboard-response","269","616173","0.0-269.0","ua7kg9qu","","","null","","Agent B","veridical","FOR_REV_MAP_BLOBBY_STIM/1160189.bmp_pp64_L1_V1.0_veridical_freeview_isoTrue_fps144.mp4",""
"","","","call-function","270","616175","0.0-270.0","ua7kg9qu","","","","","","","",""
"2764.4649999999674","{""judgement"":0}","[0]","survey-likert","271","618940","0.0-271.0","ua7kg9qu","","","","","","","","1"
"2114","{""confidence"":1}","[0]","survey-likert","272","621057","0.0-272.0","ua7kg9qu","","","","","","","",""
"","","","call-function","273","621058","0.0-273.0","ua7kg9qu","","","","","","","",""
"null","","","html-keyboard-response","274","622562","0.0-274.0","ua7kg9qu","","<span style=""color:Black; font-size:50px;"">Agent A","null","","","","",""
"null","","","video-keyboard-response","275","625272","0.0-275.0","ua7kg9qu","","","null","","Agent A","scrambled","FOR_REV_MAP_BLOBBY_STIM/1592350.bmp_pp55_L3_V1.0_veridical_freeview_isoTrue_fps144_reversed_REAL.mp4",""
"null","","","html-keyboard-response","276","626778","0.0-276.0","ua7kg9qu","","<span style=""color:Black; font-size:50px;"">Agent B","null","","","","",""
"null","","","video-keyboard-response","277","629530","0.0-277.0","ua7kg9qu","","","null","","Agent B","veridical","FOR_REV_MAP_BLOBBY_STIM/1592350.bmp_pp55_L3_V1.0_veridical_freeview_isoTrue_fps144.mp4",""
"","","","call-function","278","629532","0.0-278.0","ua7kg9qu","","","","","","","",""
"1660.9599999999627","{""judgement"":0}","[0]","survey-likert","279","631194","0.0-279.0","ua7kg9qu","","","","","","","","1"
"2437.5849999999627","{""confidence"":3}","[0]","survey-likert","280","633635","0.0-280.0","ua7kg9qu","","","","","","","",""
"","","","call-function","281","633636","0.0-281.0","ua7kg9qu","","","","","","","",""
"null","","","html-keyboard-response","282","635138","0.0-282.0","ua7kg9qu","","<span style=""color:Black; font-size:50px;"">Agent A","null","","","","",""
"null","","","video-keyboard-response","283","637983","0.0-283.0","ua7kg9qu","","","null","","Agent A","scrambled","FOR_REV_MAP_BLOBBY_STIM/498258.bmp_pp51_L1_V1.0_veridical_freeview_isoTrue_fps144_reversed_REAL.mp4",""
"null","","","html-keyboard-response","284","639489","0.0-284.0","ua7kg9qu","","<span style=""color:Black; font-size:50px;"">Agent B","null","","","","",""
"null","","","video-keyboard-response","285","642304","0.0-285.0","ua7kg9qu","","","null","","Agent B","veridical","FOR_REV_MAP_BLOBBY_STIM/498258.bmp_pp51_L1_V1.0_veridical_freeview_isoTrue_fps144.mp4",""
"","","","call-function","286","642306","0.0-286.0","ua7kg9qu","","","","","","","",""
"2563.079999999958","{""judgement"":0}","[0]","survey-likert","287","644870","0.0-287.0","ua7kg9qu","","","","","","","","1"
"2094.945000000065","{""confidence"":3}","[0]","survey-likert","288","646967","0.0-288.0","ua7kg9qu","","","","","","","",""
"","","","call-function","289","646969","0.0-289.0","ua7kg9qu","","","","","","","",""
"null","","","html-keyboard-response","290","648476","0.0-290.0","ua7kg9qu","","<span style=""color:Black; font-size:50px;"">Agent A","null","","","","",""
"null","","","video-keyboard-response","291","651244","0.0-291.0","ua7kg9qu","","","null","","Agent A","scrambled","FOR_REV_MAP_BLOBBY_STIM/285684.bmp_pp80_L3_V1.0_veridical_freeview_isoTrue_fps144_reversed_REAL.mp4",""
"null","","","html-keyboard-response","292","652749","0.0-292.0","ua7kg9qu","","<span style=""color:Black; font-size:50px;"">Agent B","null","","","","",""
"null","","","video-keyboard-response","293","655600","0.0-293.0","ua7kg9qu","","","null","","Agent B","veridical","FOR_REV_MAP_BLOBBY_STIM/285684.bmp_pp80_L3_V1.0_veridical_freeview_isoTrue_fps144.mp4",""
"","","","call-function","294","655602","0.0-294.0","ua7kg9qu","","","","","","","",""
"1575.405000000028","{""judgement"":1}","[0]","survey-likert","295","657178","0.0-295.0","ua7kg9qu","","","","","","","","1"
"1799.5549999999348","{""confidence"":3}","[0]","survey-likert","296","658980","0.0-296.0","ua7kg9qu","","","","","","","",""
"","","","call-function","297","658981","0.0-297.0","ua7kg9qu","","","","","","","",""
"null","","","html-keyboard-response","298","660483","0.0-298.0","ua7kg9qu","","<span style=""color:Black; font-size:50px;"">Agent A","null","","","","",""
"null","","","video-keyboard-response","299","663266","0.0-299.0","ua7kg9qu","","","null","","Agent A","veridical","FOR_REV_MAP_BLOBBY_STIM/1592044.bmp_pp94_L2_V1.0_veridical_freeview_isoTrue_fps144.mp4",""
"null","","","html-keyboard-response","300","664773","0.0-300.0","ua7kg9qu","","<span style=""color:Black; font-size:50px;"">Agent B","null","","","","",""
"null","","","video-keyboard-response","301","667597","0.0-301.0","ua7kg9qu","","","null","","Agent B","scrambled","FOR_REV_MAP_BLOBBY_STIM/1592044.bmp_pp94_L2_V1.0_veridical_freeview_isoTrue_fps144_reversed_REAL.mp4",""
"","","","call-function","302","667599","0.0-302.0","ua7kg9qu","","","","","","","",""
"1861.0550000000512","{""judgement"":1}","[0]","survey-likert","303","669461","0.0-303.0","ua7kg9qu","","","","","","","","0"
"1561.109999999986","{""confidence"":2}","[0]","survey-likert","304","671024","0.0-304.0","ua7kg9qu","","","","","","","",""
"","","","call-function","305","671026","0.0-305.0","ua7kg9qu","","","","","","","",""
"null","","","html-keyboard-response","306","672528","0.0-306.0","ua7kg9qu","","<span style=""color:Black; font-size:50px;"">Agent A","null","","","","",""
"null","","","video-keyboard-response","307","675256","0.0-307.0","ua7kg9qu","","","null","","Agent A","veridical","FOR_REV_MAP_BLOBBY_STIM/713858.bmp_pp57_L1_V1.0_veridical_freeview_isoTrue_fps144.mp4",""
"null","","","html-keyboard-response","308","676758","0.0-308.0","ua7kg9qu","","<span style=""color:Black; font-size:50px;"">Agent B","null","","","","",""
"null","","","video-keyboard-response","309","679462","0.0-309.0","ua7kg9qu","","","null","","Agent B","scrambled","FOR_REV_MAP_BLOBBY_STIM/713858.bmp_pp57_L1_V1.0_veridical_freeview_isoTrue_fps144_reversed_REAL.mp4",""
"","","","call-function","310","679463","0.0-310.0","ua7kg9qu","","","","","","","",""
"2641.3549999999814","{""judgement"":0}","[0]","survey-likert","311","682107","0.0-311.0","ua7kg9qu","","","","","","","","0"
"1519.829999999958","{""confidence"":1}","[0]","survey-likert","312","683629","0.0-312.0","ua7kg9qu","","","","","","","",""
"","","","call-function","313","683630","0.0-313.0","ua7kg9qu","","","","","","","",""
"null","","","html-keyboard-response","314","685132","0.0-314.0","ua7kg9qu","","<span style=""color:Black; font-size:50px;"">Agent A","null","","","","",""
"null","","","video-keyboard-response","315","687894","0.0-315.0","ua7kg9qu","","","null","","Agent A","scrambled","FOR_REV_MAP_BLOBBY_STIM/1159819.bmp_pp151_L1_V1.0_veridical_freeview_isoTrue_fps144_reversed_REAL.mp4",""
"null","","","html-keyboard-response","316","689400","0.0-316.0","ua7kg9qu","","<span style=""color:Black; font-size:50px;"">Agent B","null","","","","",""
"null","","","video-keyboard-response","317","692159","0.0-317.0","ua7kg9qu","","","null","","Agent B","veridical","FOR_REV_MAP_BLOBBY_STIM/1159819.bmp_pp151_L1_V1.0_veridical_freeview_isoTrue_fps144.mp4",""
"","","","call-function","318","692161","0.0-318.0","ua7kg9qu","","","","","","","",""
"1814.390000000014","{""judgement"":0}","[0]","survey-likert","319","693976","0.0-319.0","ua7kg9qu","","","","","","","","1"
"1424.329999999958","{""confidence"":2}","[0]","survey-likert","320","695403","0.0-320.0","ua7kg9qu","","","","","","","",""
"","","","call-function","321","695405","0.0-321.0","ua7kg9qu","","","","","","","",""
"null","","","html-keyboard-response","322","696907","0.0-322.0","ua7kg9qu","","<span style=""color:Black; font-size:50px;"">Agent A","null","","","","",""
"null","","","video-keyboard-response","323","699770","0.0-323.0","ua7kg9qu","","","null","","Agent A","veridical","FOR_REV_MAP_BLOBBY_STIM/713742.bmp_pp91_L3_V1.0_veridical_freeview_isoTrue_fps144.mp4",""
"null","","","html-keyboard-response","324","701273","0.0-324.0","ua7kg9qu","","<span style=""color:Black; font-size:50px;"">Agent B","null","","","","",""
"null","","","video-keyboard-response","325","704101","0.0-325.0","ua7kg9qu","","","null","","Agent B","scrambled","FOR_REV_MAP_BLOBBY_STIM/713742.bmp_pp91_L3_V1.0_veridical_freeview_isoTrue_fps144_reversed_REAL.mp4",""
"","","","call-function","326","704102","0.0-326.0","ua7kg9qu","","","","","","","",""
"1425.5700000000652","{""judgement"":0}","[0]","survey-likert","327","705529","0.0-327.0","ua7kg9qu","","","","","","","","0"
"3202.875","{""confidence"":3}","[0]","survey-likert","328","708735","0.0-328.0","ua7kg9qu","","","","","","","",""
"","","","call-function","329","708736","0.0-329.0","ua7kg9qu","","","","","","","",""
"null","","","html-keyboard-response","330","710239","0.0-330.0","ua7kg9qu","","<span style=""color:Black; font-size:50px;"">Agent A","null","","","","",""
"null","","","video-keyboard-response","331","713064","0.0-331.0","ua7kg9qu","","","null","","Agent A","scrambled","FOR_REV_MAP_BLOBBY_STIM/1159508.bmp_pp151_L1_V1.0_veridical_freeview_isoTrue_fps144_reversed_REAL.mp4",""
"null","","","html-keyboard-response","332","714570","0.0-332.0","ua7kg9qu","","<span style=""color:Black; font-size:50px;"">Agent B","null","","","","",""
"null","","","video-keyboard-response","333","717394","0.0-333.0","ua7kg9qu","","","null","","Agent B","veridical","FOR_REV_MAP_BLOBBY_STIM/1159508.bmp_pp151_L1_V1.0_veridical_freeview_isoTrue_fps144.mp4",""
"","","","call-function","334","717395","0.0-334.0","ua7kg9qu","","","","","","","",""
"2944.9499999999534","{""judgement"":0}","[0]","survey-likert","335","720341","0.0-335.0","ua7kg9qu","","","","","","","","1"
"2576.9250000000466","{""confidence"":2}","[0]","survey-likert","336","722920","0.0-336.0","ua7kg9qu","","","","","","","",""
"14503.880000000005","","","instructions","337","737426","0.0-337.0","ua7kg9qu","[{""page_index"":0,""viewing_time"":1492.4100000000326},{""page_index"":1,""viewing_time"":10613.099999999977},{""page_index"":2,""viewing_time"":2398.1300000000047}]","","","","","","",""
"4514.259999999893","","","instructions","338","741943","0.0-338.0","ua7kg9qu","[{""page_index"":0,""viewing_time"":850.8549999999814},{""page_index"":1,""viewing_time"":2842.1149999999907},{""page_index"":2,""viewing_time"":821.1799999999348}]","","","","","","",""
"","","","call-function","339","741945","0.0-339.0","ua7kg9qu","","","","","","","",""
"null","","","html-keyboard-response","340","743446","0.0-340.0","ua7kg9qu","","<span style=""color:Black; font-size:50px;"">Agent A","null","","","","",""
"null","","","video-keyboard-response","341","746322","0.0-341.0","ua7kg9qu","","","null","","Agent A","veridical","FOR_REV_MAP_BLOBBY_STIM/498261.bmp_pp84_L3_V1.0_veridical_freeview_isoTrue_fps144.mp4",""
"null","","","html-keyboard-response","342","747826","0.0-342.0","ua7kg9qu","","<span style=""color:Black; font-size:50px;"">Agent B","null","","","","",""
"null","","","video-keyboard-response","343","750663","0.0-343.0","ua7kg9qu","","","null","","Agent B","scrambled","FOR_REV_MAP_BLOBBY_STIM/498261.bmp_pp84_L3_V1.0_veridical_freeview_isoTrue_fps144_reversed_REAL.mp4",""
"","","","call-function","344","750664","0.0-344.0","ua7kg9qu","","","","","","","",""
"1980.0900000000838","{""judgement"":1}","[0]","survey-likert","345","752645","0.0-345.0","ua7kg9qu","","","","","","","","0"
"1364.6850000000559","{""confidence"":1}","[0]","survey-likert","346","754013","0.0-346.0","ua7kg9qu","","","","","","","",""
"","","","call-function","347","754014","0.0-347.0","ua7kg9qu","","","","","","","",""
"null","","","html-keyboard-response","348","755520","0.0-348.0","ua7kg9qu","","<span style=""color:Black; font-size:50px;"">Agent A","null","","","","",""
"null","","","video-keyboard-response","349","758247","0.0-349.0","ua7kg9qu","","","null","","Agent A","scrambled","FOR_REV_MAP_BLOBBY_STIM/285715.bmp_pp67_L2_V1.0_veridical_freeview_isoTrue_fps144_reversed_REAL.mp4",""
"null","","","html-keyboard-response","350","759752","0.0-350.0","ua7kg9qu","","<span style=""color:Black; font-size:50px;"">Agent B","null","","","","",""
"null","","","video-keyboard-response","351","762505","0.0-351.0","ua7kg9qu","","","null","","Agent B","veridical","FOR_REV_MAP_BLOBBY_STIM/285715.bmp_pp67_L2_V1.0_veridical_freeview_isoTrue_fps144.mp4",""
"","","","call-function","352","762507","0.0-352.0","ua7kg9qu","","","","","","","",""
"2694.890000000014","{""judgement"":1}","[0]","survey-likert","353","765203","0.0-353.0","ua7kg9qu","","","","","","","","1"
"2661.069999999949","{""confidence"":3}","[0]","survey-likert","354","767866","0.0-354.0","ua7kg9qu","","","","","","","",""
"","","","call-function","355","767868","0.0-355.0","ua7kg9qu","","","","","","","",""
"null","","","html-keyboard-response","356","769370","0.0-356.0","ua7kg9qu","","<span style=""color:Black; font-size:50px;"">Agent A","null","","","","",""
"null","","","video-keyboard-response","357","772200","0.0-357.0","ua7kg9qu","","","null","","Agent A","scrambled","FOR_REV_MAP_BLOBBY_STIM/713274.bmp_pp73_L3_V1.0_veridical_freeview_isoTrue_fps144_reversed_REAL.mp4",""
"null","","","html-keyboard-response","358","773705","0.0-358.0","ua7kg9qu","","<span style=""color:Black; font-size:50px;"">Agent B","null","","","","",""
"null","","","video-keyboard-response","359","776513","0.0-359.0","ua7kg9qu","","","null","","Agent B","veridical","FOR_REV_MAP_BLOBBY_STIM/713274.bmp_pp73_L3_V1.0_veridical_freeview_isoTrue_fps144.mp4",""
"","","","call-function","360","776515","0.0-360.0","ua7kg9qu","","","","","","","",""
"2495.3399999999674","{""judgement"":1}","[0]","survey-likert","361","779011","0.0-361.0","ua7kg9qu","","","","","","","","1"
"1330.454999999958","{""confidence"":3}","[0]","survey-likert","362","780344","0.0-362.0","ua7kg9qu","","","","","","","",""
"","","","call-function","363","780345","0.0-363.0","ua7kg9qu","","","","","","","",""
"null","","","html-keyboard-response","364","781849","0.0-364.0","ua7kg9qu","","<span style=""color:Black; font-size:50px;"">Agent A","null","","","","",""
"null","","","video-keyboard-response","365","784699","0.0-365.0","ua7kg9qu","","","null","","Agent A","scrambled","FOR_REV_MAP_BLOBBY_STIM/713920.bmp_pp76_L1_V1.0_veridical_freeview_isoTrue_fps144_reversed_REAL.mp4",""
"null","","","html-keyboard-response","366","786203","0.0-366.0","ua7kg9qu","","<span style=""color:Black; font-size:50px;"">Agent B","null","","","","",""
"null","","","video-keyboard-response","367","789034","0.0-367.0","ua7kg9qu","","","null","","Agent B","veridical","FOR_REV_MAP_BLOBBY_STIM/713920.bmp_pp76_L1_V1.0_veridical_freeview_isoTrue_fps144.mp4",""
"","","","call-function","368","789036","0.0-368.0","ua7kg9qu","","","","","","","",""
"3755.6149999999907","{""judgement"":0}","[0]","survey-likert","369","792792","0.0-369.0","ua7kg9qu","","","","","","","","1"
"1990.009999999893","{""confidence"":1}","[0]","survey-likert","370","794784","0.0-370.0","ua7kg9qu","","","","","","","",""
"","","","call-function","371","794786","0.0-371.0","ua7kg9qu","","","","","","","",""
"null","","","html-keyboard-response","372","796288","0.0-372.0","ua7kg9qu","","<span style=""color:Black; font-size:50px;"">Agent A","null","","","","",""
"null","","","video-keyboard-response","373","799081","0.0-373.0","ua7kg9qu","","","null","","Agent A","veridical","FOR_REV_MAP_BLOBBY_STIM/498372.bmp_pp95_L2_V1.0_veridical_freeview_isoTrue_fps144.mp4",""
"null","","","html-keyboard-response","374","800587","0.0-374.0","ua7kg9qu","","<span style=""color:Black; font-size:50px;"">Agent B","null","","","","",""
"null","","","video-keyboard-response","375","803376","0.0-375.0","ua7kg9qu","","","null","","Agent B","scrambled","FOR_REV_MAP_BLOBBY_STIM/498372.bmp_pp95_L2_V1.0_veridical_freeview_isoTrue_fps144_reversed_REAL.mp4",""
"","","","call-function","376","803378","0.0-376.0","ua7kg9qu","","","","","","","",""
"1699.2299999999814","{""judgement"":0}","[0]","survey-likert","377","805078","0.0-377.0","ua7kg9qu","","","","","","","","0"
"1848.7250000000931","{""confidence"":0}","[0]","survey-likert","378","806929","0.0-378.0","ua7kg9qu","","","","","","","",""
"","","","call-function","379","806931","0.0-379.0","ua7kg9qu","","","","","","","",""
"null","","","html-keyboard-response","380","808432","0.0-380.0","ua7kg9qu","","<span style=""color:Black; font-size:50px;"">Agent A","null","","","","",""
"null","","","video-keyboard-response","381","811212","0.0-381.0","ua7kg9qu","","","null","","Agent A","scrambled","FOR_REV_MAP_BLOBBY_STIM/1592129.bmp_pp153_L3_V1.0_veridical_freeview_isoTrue_fps144_reversed_REAL.mp4",""
"null","","","html-keyboard-response","382","812717","0.0-382.0","ua7kg9qu","","<span style=""color:Black; font-size:50px;"">Agent B","null","","","","",""
"null","","","video-keyboard-response","383","815490","0.0-383.0","ua7kg9qu","","","null","","Agent B","veridical","FOR_REV_MAP_BLOBBY_STIM/1592129.bmp_pp153_L3_V1.0_veridical_freeview_isoTrue_fps144.mp4",""
"","","","call-function","384","815491","0.0-384.0","ua7kg9qu","","","","","","","",""
"1610.890000000014","{""judgement"":1}","[0]","survey-likert","385","817103","0.0-385.0","ua7kg9qu","","","","","","","","1"
"2839.625","{""confidence"":3}","[0]","survey-likert","386","819945","0.0-386.0","ua7kg9qu","","","","","","","",""
"","","","call-function","387","819947","0.0-387.0","ua7kg9qu","","","","","","","",""
"null","","","html-keyboard-response","388","821452","0.0-388.0","ua7kg9qu","","<span style=""color:Black; font-size:50px;"">Agent A","null","","","","",""
"null","","","video-keyboard-response","389","824132","0.0-389.0","ua7kg9qu","","","null","","Agent A","veridical","FOR_REV_MAP_BLOBBY_STIM/498398.bmp_pp81_L1_V1.0_veridical_freeview_isoTrue_fps144.mp4",""
"null","","","html-keyboard-response","390","825636","0.0-390.0","ua7kg9qu","","<span style=""color:Black; font-size:50px;"">Agent B","null","","","","",""
"null","","","video-keyboard-response","391","828219","0.0-391.0","ua7kg9qu","","","null","","Agent B","scrambled","FOR_REV_MAP_BLOBBY_STIM/498398.bmp_pp81_L1_V1.0_veridical_freeview_isoTrue_fps144_reversed_REAL.mp4",""
"","","","call-function","392","828221","0.0-392.0","ua7kg9qu","","","","","","","",""
"1656.3149999999441","{""judgement"":0}","[0]","survey-likert","393","829878","0.0-393.0","ua7kg9qu","","","","","","","","0"
"1738.625","{""confidence"":3}","[0]","survey-likert","394","831619","0.0-394.0","ua7kg9qu","","","","","","","",""
"","","","call-function","395","831621","0.0-395.0","ua7kg9qu","","","","","","","",""
"null","","","html-keyboard-response","396","833122","0.0-396.0","ua7kg9qu","","<span style=""color:Black; font-size:50px;"">Agent A","null","","","","",""
"null","","","video-keyboard-response","397","835910","0.0-397.0","ua7kg9qu","","","null","","Agent A","veridical","FOR_REV_MAP_BLOBBY_STIM/1592298.bmp_pp56_L3_V1.0_veridical_freeview_isoTrue_fps144.mp4",""
"null","","","html-keyboard-response","398","837414","0.0-398.0","ua7kg9qu","","<span style=""color:Black; font-size:50px;"">Agent B","null","","","","",""
"null","","","video-keyboard-response","399","840191","0.0-399.0","ua7kg9qu","","","null","","Agent B","scrambled","FOR_REV_MAP_BLOBBY_STIM/1592298.bmp_pp56_L3_V1.0_veridical_freeview_isoTrue_fps144_reversed_REAL.mp4",""
"","","","call-function","400","840194","0.0-400.0","ua7kg9qu","","","","","","","",""
"2492.180000000051","{""judgement"":1}","[0]","survey-likert","401","842687","0.0-401.0","ua7kg9qu","","","","","","","","0"
"1334.4899999999907","{""confidence"":0}","[0]","survey-likert","402","844024","0.0-402.0","ua7kg9qu","","","","","","","",""
"","","","call-function","403","844027","0.0-403.0","ua7kg9qu","","","","","","","",""
"null","","","html-keyboard-response","404","845531","0.0-404.0","ua7kg9qu","","<span style=""color:Black; font-size:50px;"">Agent A","null","","","","",""
"null","","","video-keyboard-response","405","848370","0.0-405.0","ua7kg9qu","","","null","","Agent A","veridical","FOR_REV_MAP_BLOBBY_STIM/1160204.bmp_pp54_L2_V1.0_veridical_freeview_isoTrue_fps144.mp4",""
"null","","","html-keyboard-response","406","849878","0.0-406.0","ua7kg9qu","","<span style=""color:Black; font-size:50px;"">Agent B","null","","","","",""
"null","","","video-keyboard-response","407","852708","0.0-407.0","ua7kg9qu","","","null","","Agent B","scrambled","FOR_REV_MAP_BLOBBY_STIM/1160204.bmp_pp54_L2_V1.0_veridical_freeview_isoTrue_fps144_reversed_REAL.mp4",""
"","","","call-function","408","852710","0.0-408.0","ua7kg9qu","","","","","","","",""
"2906.2299999999814","{""judgement"":0}","[0]","survey-likert","409","855617","0.0-409.0","ua7kg9qu","","","","","","","","0"
"1593.9649999999674","{""confidence"":2}","[0]","survey-likert","410","857214","0.0-410.0","ua7kg9qu","","","","","","","",""
"","","","call-function","411","857216","0.0-411.0","ua7kg9qu","","","","","","","",""
"null","","","html-keyboard-response","412","858718","0.0-412.0","ua7kg9qu","","<span style=""color:Black; font-size:50px;"">Agent A","null","","","","",""
"null","","","video-keyboard-response","413","861537","0.0-413.0","ua7kg9qu","","","null","","Agent A","veridical","FOR_REV_MAP_BLOBBY_STIM/1592530.bmp_pp75_L1_V1.0_veridical_freeview_isoTrue_fps144.mp4",""
"null","","","html-keyboard-response","414","863043","0.0-414.0","ua7kg9qu","","<span style=""color:Black; font-size:50px;"">Agent B","null","","","","",""
"null","","","video-keyboard-response","415","865861","0.0-415.0","ua7kg9qu","","","null","","Agent B","scrambled","FOR_REV_MAP_BLOBBY_STIM/1592530.bmp_pp75_L1_V1.0_veridical_freeview_isoTrue_fps144_reversed_REAL.mp4",""
"","","","call-function","416","865863","0.0-416.0","ua7kg9qu","","","","","","","",""
"2271.375","{""judgement"":1}","[0]","survey-likert","417","868136","0.0-417.0","ua7kg9qu","","","","","","","","0"
"1569.1800000000512","{""confidence"":2}","[0]","survey-likert","418","869708","0.0-418.0","ua7kg9qu","","","","","","","",""
"28086.060000000056","","","instructions","419","897796","0.0-419.0","ua7kg9qu","[{""page_index"":0,""viewing_time"":1304.6850000000559},{""page_index"":1,""viewing_time"":25740.409999999916},{""page_index"":2,""viewing_time"":1040.7399999999907}]","","","","","","",""
"7714.414999999921","","","instructions","420","905512","0.0-420.0","ua7kg9qu","[{""page_index"":0,""viewing_time"":968.390000000014},{""page_index"":1,""viewing_time"":5855.719999999972},{""page_index"":2,""viewing_time"":890.1849999999395}]","","","","","","",""
"","","","call-function","421","905513","0.0-421.0","ua7kg9qu","","","","","","","",""
"null","","","html-keyboard-response","422","907016","0.0-422.0","ua7kg9qu","","<span style=""color:Black; font-size:50px;"">Agent A","null","","","","",""
"null","","","video-keyboard-response","423","909869","0.0-423.0","ua7kg9qu","","","null","","Agent A","veridical","FOR_REV_MAP_BLOBBY_STIM/1592025.bmp_pp68_L1_V1.0_veridical_freeview_isoTrue_fps144.mp4",""
"null","","","html-keyboard-response","424","911373","0.0-424.0","ua7kg9qu","","<span style=""color:Black; font-size:50px;"">Agent B","null","","","","",""
"null","","","video-keyboard-response","425","914196","0.0-425.0","ua7kg9qu","","","null","","Agent B","scrambled","FOR_REV_MAP_BLOBBY_STIM/1592025.bmp_pp68_L1_V1.0_veridical_freeview_isoTrue_fps144_reversed_REAL.mp4",""
"","","","call-function","426","914198","0.0-426.0","ua7kg9qu","","","","","","","",""
"1607.9150000000373","{""judgement"":0}","[0]","survey-likert","427","915807","0.0-427.0","ua7kg9qu","","","","","","","","0"
"2036.9899999999907","{""confidence"":2}","[0]","survey-likert","428","917846","0.0-428.0","ua7kg9qu","","","","","","","",""
"","","","call-function","429","917847","0.0-429.0","ua7kg9qu","","","","","","","",""
"null","","","html-keyboard-response","430","919353","0.0-430.0","ua7kg9qu","","<span style=""color:Black; font-size:50px;"">Agent A","null","","","","",""
"null","","","video-keyboard-response","431","922178","0.0-431.0","ua7kg9qu","","","null","","Agent A","veridical","FOR_REV_MAP_BLOBBY_STIM/713652.bmp_pp89_L1_V1.0_veridical_freeview_isoTrue_fps144.mp4",""
"null","","","html-keyboard-response","432","923686","0.0-432.0","ua7kg9qu","","<span style=""color:Black; font-size:50px;"">Agent B","null","","","","",""
"null","","","video-keyboard-response","433","926486","0.0-433.0","ua7kg9qu","","","null","","Agent B","scrambled","FOR_REV_MAP_BLOBBY_STIM/713652.bmp_pp89_L1_V1.0_veridical_freeview_isoTrue_fps144_reversed_REAL.mp4",""
"","","","call-function","434","926488","0.0-434.0","ua7kg9qu","","","","","","","",""
"2455.814999999944","{""judgement"":0}","[0]","survey-likert","435","928944","0.0-435.0","ua7kg9qu","","","","","","","","0"
"1635.030000000028","{""confidence"":0}","[0]","survey-likert","436","930582","0.0-436.0","ua7kg9qu","","","","","","","",""
"","","","call-function","437","930583","0.0-437.0","ua7kg9qu","","","","","","","",""
"null","","","html-keyboard-response","438","932088","0.0-438.0","ua7kg9qu","","<span style=""color:Black; font-size:50px;"">Agent A","null","","","","",""
"null","","","video-keyboard-response","439","935046","0.0-439.0","ua7kg9qu","","","null","","Agent A","veridical","FOR_REV_MAP_BLOBBY_STIM/498025.bmp_pp81_L1_V1.0_veridical_freeview_isoTrue_fps144.mp4",""
"null","","","html-keyboard-response","440","936554","0.0-440.0","ua7kg9qu","","<span style=""color:Black; font-size:50px;"">Agent B","null","","","","",""
"null","","","video-keyboard-response","441","939489","0.0-441.0","ua7kg9qu","","","null","","Agent B","scrambled","FOR_REV_MAP_BLOBBY_STIM/498025.bmp_pp81_L1_V1.0_veridical_freeview_isoTrue_fps144_reversed_REAL.mp4",""
"","","","call-function","442","939491","0.0-442.0","ua7kg9qu","","","","","","","",""
"1696.3350000000792","{""judgement"":1}","[0]","survey-likert","443","941189","0.0-443.0","ua7kg9qu","","","","","","","","0"
"1190.8349999999627","{""confidence"":1}","[0]","survey-likert","444","942382","0.0-444.0","ua7kg9qu","","","","","","","",""
"","","","call-function","445","942383","0.0-445.0","ua7kg9qu","","","","","","","",""
"null","","","html-keyboard-response","446","943885","0.0-446.0","ua7kg9qu","","<span style=""color:Black; font-size:50px;"">Agent A","null","","","","",""
"null","","","video-keyboard-response","447","946733","0.0-447.0","ua7kg9qu","","","null","","Agent A","scrambled","FOR_REV_MAP_BLOBBY_STIM/713770.bmp_pp89_L1_V1.0_veridical_freeview_isoTrue_fps144_reversed_REAL.mp4",""
"null","","","html-keyboard-response","448","948238","0.0-448.0","ua7kg9qu","","<span style=""color:Black; font-size:50px;"">Agent B","null","","","","",""
"null","","","video-keyboard-response","449","951079","0.0-449.0","ua7kg9qu","","","null","","Agent B","veridical","FOR_REV_MAP_BLOBBY_STIM/713770.bmp_pp89_L1_V1.0_veridical_freeview_isoTrue_fps144.mp4",""
"","","","call-function","450","951082","0.0-450.0","ua7kg9qu","","","","","","","",""
"2003.2750000000233","{""judgement"":1}","[0]","survey-likert","451","953087","0.0-451.0","ua7kg9qu","","","","","","","","1"
"1857.5849999999627","{""confidence"":3}","[0]","survey-likert","452","954947","0.0-452.0","ua7kg9qu","","","","","","","",""
"","","","call-function","453","954950","0.0-453.0","ua7kg9qu","","","","","","","",""
"null","","","html-keyboard-response","454","956455","0.0-454.0","ua7kg9qu","","<span style=""color:Black; font-size:50px;"">Agent A","null","","","","",""
"null","","","video-keyboard-response","455","959203","0.0-455.0","ua7kg9qu","","","null","","Agent A","veridical","FOR_REV_MAP_BLOBBY_STIM/1159956.bmp_pp59_L3_V1.0_veridical_freeview_isoTrue_fps144.mp4",""
"null","","","html-keyboard-response","456","960708","0.0-456.0","ua7kg9qu","","<span style=""color:Black; font-size:50px;"">Agent B","null","","","","",""
"null","","","video-keyboard-response","457","963444","0.0-457.0","ua7kg9qu","","","null","","Agent B","scrambled","FOR_REV_MAP_BLOBBY_STIM/1159956.bmp_pp59_L3_V1.0_veridical_freeview_isoTrue_fps144_reversed_REAL.mp4",""
"","","","call-function","458","963446","0.0-458.0","ua7kg9qu","","","","","","","",""
"1847.0600000000559","{""judgement"":1}","[0]","survey-likert","459","965295","0.0-459.0","ua7kg9qu","","","","","","","","0"
"2121.7099999999627","{""confidence"":1}","[0]","survey-likert","460","967419","0.0-460.0","ua7kg9qu","","","","","","","",""
"","","","call-function","461","967421","0.0-461.0","ua7kg9qu","","","","","","","",""
"null","","","html-keyboard-response","462","968923","0.0-462.0","ua7kg9qu","","<span style=""color:Black; font-size:50px;"">Agent A","null","","","","",""
"null","","","video-keyboard-response","463","971750","0.0-463.0","ua7kg9qu","","","null","","Agent A","veridical","FOR_REV_MAP_BLOBBY_STIM/1591920.bmp_pp97_L3_V1.0_veridical_freeview_isoTrue_fps144.mp4",""
"null","","","html-keyboard-response","464","973253","0.0-464.0","ua7kg9qu","","<span style=""color:Black; font-size:50px;"">Agent B","null","","","","",""
"null","","","video-keyboard-response","465","976065","0.0-465.0","ua7kg9qu","","","null","","Agent B","scrambled","FOR_REV_MAP_BLOBBY_STIM/1591920.bmp_pp97_L3_V1.0_veridical_freeview_isoTrue_fps144_reversed_REAL.mp4",""
"","","","call-function","466","976067","0.0-466.0","ua7kg9qu","","","","","","","",""
"2974.695000000065","{""judgement"":0}","[0]","survey-likert","467","979043","0.0-467.0","ua7kg9qu","","","","","","","","0"
"2473.6350000000093","{""confidence"":1}","[0]","survey-likert","468","981519","0.0-468.0","ua7kg9qu","","","","","","","",""
"","","","call-function","469","981520","0.0-469.0","ua7kg9qu","","","","","","","",""
"null","","","html-keyboard-response","470","983024","0.0-470.0","ua7kg9qu","","<span style=""color:Black; font-size:50px;"">Agent A","null","","","","",""
"null","","","video-keyboard-response","471","985881","0.0-471.0","ua7kg9qu","","","null","","Agent A","veridical","FOR_REV_MAP_BLOBBY_STIM/713381.bmp_pp82_L2_V1.0_veridical_freeview_isoTrue_fps144.mp4",""
"null","","","html-keyboard-response","472","987384","0.0-472.0","ua7kg9qu","","<span style=""color:Black; font-size:50px;"">Agent B","null","","","","",""
"null","","","video-keyboard-response","473","990218","0.0-473.0","ua7kg9qu","","","null","","Agent B","scrambled","FOR_REV_MAP_BLOBBY_STIM/713381.bmp_pp82_L2_V1.0_veridical_freeview_isoTrue_fps144_reversed_REAL.mp4",""
"","","","call-function","474","990220","0.0-474.0","ua7kg9qu","","","","","","","",""
"2197.680000000051","{""judgement"":1}","[0]","survey-likert","475","992419","0.0-475.0","ua7kg9qu","","","","","","","","0"
"1599.5899999999674","{""confidence"":2}","[0]","survey-likert","476","994020","0.0-476.0","ua7kg9qu","","","","","","","",""
"","","","call-function","477","994023","0.0-477.0","ua7kg9qu","","","","","","","",""
"null","","","html-keyboard-response","478","995530","0.0-478.0","ua7kg9qu","","<span style=""color:Black; font-size:50px;"">Agent A","null","","","","",""
"null","","","video-keyboard-response","479","998348","0.0-479.0","ua7kg9qu","","","null","","Agent A","veridical","FOR_REV_MAP_BLOBBY_STIM/107909.bmp_pp95_L2_V1.0_veridical_freeview_isoTrue_fps144.mp4",""
"null","","","html-keyboard-response","480","999855","0.0-480.0","ua7kg9qu","","<span style=""color:Black; font-size:50px;"">Agent B","null","","","","",""
"null","","","video-keyboard-response","481","1002664","0.0-481.0","ua7kg9qu","","","null","","Agent B","scrambled","FOR_REV_MAP_BLOBBY_STIM/107909.bmp_pp95_L2_V1.0_veridical_freeview_isoTrue_fps144_reversed_REAL.mp4",""
"","","","call-function","482","1002666","0.0-482.0","ua7kg9qu","","","","","","","",""
"1855.3200000000652","{""judgement"":0}","[0]","survey-likert","483","1004522","0.0-483.0","ua7kg9qu","","","","","","","","0"
"1216.844999999972","{""confidence"":3}","[0]","survey-likert","484","1005741","0.0-484.0","ua7kg9qu","","","","","","","",""
"","","","call-function","485","1005742","0.0-485.0","ua7kg9qu","","","","","","","",""
"null","","","html-keyboard-response","486","1007244","0.0-486.0","ua7kg9qu","","<span style=""color:Black; font-size:50px;"">Agent A","null","","","","",""
"null","","","video-keyboard-response","487","1010035","0.0-487.0","ua7kg9qu","","","null","","Agent A","scrambled","FOR_REV_MAP_BLOBBY_STIM/150463.bmp_pp55_L3_V1.0_veridical_freeview_isoTrue_fps144_reversed_REAL.mp4",""
"null","","","html-keyboard-response","488","1011541","0.0-488.0","ua7kg9qu","","<span style=""color:Black; font-size:50px;"">Agent B","null","","","","",""
"null","","","video-keyboard-response","489","1014335","0.0-489.0","ua7kg9qu","","","null","","Agent B","veridical","FOR_REV_MAP_BLOBBY_STIM/150463.bmp_pp55_L3_V1.0_veridical_freeview_isoTrue_fps144.mp4",""
"","","","call-function","490","1014337","0.0-490.0","ua7kg9qu","","","","","","","",""
"2166.0350000000326","{""judgement"":1}","[0]","survey-likert","491","1016504","0.0-491.0","ua7kg9qu","","","","","","","","1"
"1537.9399999999441","{""confidence"":2}","[0]","survey-likert","492","1018044","0.0-492.0","ua7kg9qu","","","","","","","",""
"","","","call-function","493","1018045","0.0-493.0","ua7kg9qu","","","","","","","",""
"null","","","html-keyboard-response","494","1019546","0.0-494.0","ua7kg9qu","","<span style=""color:Black; font-size:50px;"">Agent A","null","","","","",""
"null","","","video-keyboard-response","495","1022404","0.0-495.0","ua7kg9qu","","","null","","Agent A","veridical","FOR_REV_MAP_BLOBBY_STIM/1592857.bmp_pp52_L1_V1.0_veridical_freeview_isoTrue_fps144.mp4",""
"null","","","html-keyboard-response","496","1023906","0.0-496.0","ua7kg9qu","","<span style=""color:Black; font-size:50px;"">Agent B","null","","","","",""
"null","","","video-keyboard-response","497","1026742","0.0-497.0","ua7kg9qu","","","null","","Agent B","scrambled","FOR_REV_MAP_BLOBBY_STIM/1592857.bmp_pp52_L1_V1.0_veridical_freeview_isoTrue_fps144_reversed_REAL.mp4",""
"","","","call-function","498","1026743","0.0-498.0","ua7kg9qu","","","","","","","",""
"1825.9450000000652","{""judgement"":1}","[0]","survey-likert","499","1028571","0.0-499.0","ua7kg9qu","","","","","","","","0"
"1414.3850000000093","{""confidence"":1}","[0]","survey-likert","500","1029987","0.0-500.0","ua7kg9qu","","","","","","","",""
"16493.43000000005","","","instructions","501","1046483","0.0-501.0","ua7kg9qu","[{""page_index"":0,""viewing_time"":1687.2600000000093},{""page_index"":1,""viewing_time"":9976.795000000042},{""page_index"":2,""viewing_time"":4828.785000000033}]","","","","","","",""
"2843.5100000000093","","","instructions","502","1049329","0.0-502.0","ua7kg9qu","[{""page_index"":0,""viewing_time"":982.0999999999767},{""page_index"":1,""viewing_time"":1106.7899999999208},{""page_index"":2,""viewing_time"":754.4899999999907}]","","","","","","",""
"","","","call-function","503","1049331","0.0-503.0","ua7kg9qu","","","","","","","",""
"null","","","html-keyboard-response","504","1050838","0.0-504.0","ua7kg9qu","","<span style=""color:Black; font-size:50px;"">Agent A","null","","","","",""
"null","","","video-keyboard-response","505","1053610","0.0-505.0","ua7kg9qu","","","null","","Agent A","veridical","FOR_REV_MAP_BLOBBY_STIM/1592017.bmp_pp154_L1_V1.0_veridical_freeview_isoTrue_fps144.mp4",""
"null","","","html-keyboard-response","506","1055118","0.0-506.0","ua7kg9qu","","<span style=""color:Black; font-size:50px;"">Agent B","null","","","","",""
"null","","","video-keyboard-response","507","1057886","0.0-507.0","ua7kg9qu","","","null","","Agent B","scrambled","FOR_REV_MAP_BLOBBY_STIM/1592017.bmp_pp154_L1_V1.0_veridical_freeview_isoTrue_fps144_reversed_REAL.mp4",""
"","","","call-function","508","1057888","0.0-508.0","ua7kg9qu","","","","","","","",""
"1657.9450000000652","{""judgement"":0}","[0]","survey-likert","509","1059547","0.0-509.0","ua7kg9qu","","","","","","","","0"
"1869.9200000001583","{""confidence"":1}","[0]","survey-likert","510","1061420","0.0-510.0","ua7kg9qu","","","","","","","",""
"","","","call-function","511","1061422","0.0-511.0","ua7kg9qu","","","","","","","",""
"null","","","html-keyboard-response","512","1062925","0.0-512.0","ua7kg9qu","","<span style=""color:Black; font-size:50px;"">Agent A","null","","","","",""
"null","","","video-keyboard-response","513","1065714","0.0-513.0","ua7kg9qu","","","null","","Agent A","scrambled","FOR_REV_MAP_BLOBBY_STIM/1592289.bmp_pp92_L3_V1.0_veridical_freeview_isoTrue_fps144_reversed_REAL.mp4",""
"null","","","html-keyboard-response","514","1067219","0.0-514.0","ua7kg9qu","","<span style=""color:Black; font-size:50px;"">Agent B","null","","","","",""
"null","","","video-keyboard-response","515","1070019","0.0-515.0","ua7kg9qu","","","null","","Agent B","veridical","FOR_REV_MAP_BLOBBY_STIM/1592289.bmp_pp92_L3_V1.0_veridical_freeview_isoTrue_fps144.mp4",""
"","","","call-function","516","1070021","0.0-516.0","ua7kg9qu","","","","","","","",""
"1559.4850000001024","{""judgement"":1}","[0]","survey-likert","517","1071581","0.0-517.0","ua7kg9qu","","","","","","","","1"
"1437.3549999999814","{""confidence"":3}","[0]","survey-likert","518","1073021","0.0-518.0","ua7kg9qu","","","","","","","",""
"","","","call-function","519","1073023","0.0-519.0","ua7kg9qu","","","","","","","",""
"null","","","html-keyboard-response","520","1074526","0.0-520.0","ua7kg9qu","","<span style=""color:Black; font-size:50px;"">Agent A","null","","","","",""
"null","","","video-keyboard-response","521","1076636","0.0-521.0","ua7kg9qu","","","null","","Agent A","scrambled","FOR_REV_MAP_BLOBBY_STIM/1159973.bmp_pp98_L1_V1.0_veridical_freeview_isoTrue_fps144_reversed_REAL.mp4",""
"null","","","html-keyboard-response","522","1078144","0.0-522.0","ua7kg9qu","","<span style=""color:Black; font-size:50px;"">Agent B","null","","","","",""
"null","","","video-keyboard-response","523","1080252","0.0-523.0","ua7kg9qu","","","null","","Agent B","veridical","FOR_REV_MAP_BLOBBY_STIM/1159973.bmp_pp98_L1_V1.0_veridical_freeview_isoTrue_fps144.mp4",""
"","","","call-function","524","1080254","0.0-524.0","ua7kg9qu","","","","","","","",""
"2481.2399999999907","{""judgement"":0}","[0]","survey-likert","525","1082736","0.0-525.0","ua7kg9qu","","","","","","","","1"
"1794.8100000000559","{""confidence"":0}","[0]","survey-likert","526","1084533","0.0-526.0","ua7kg9qu","","","","","","","",""
"","","","call-function","527","1084534","0.0-527.0","ua7kg9qu","","","","","","","",""
"null","","","html-keyboard-response","528","1086037","0.0-528.0","ua7kg9qu","","<span style=""color:Black; font-size:50px;"">Agent A","null","","","","",""
"null","","","video-keyboard-response","529","1088873","0.0-529.0","ua7kg9qu","","","null","","Agent A","scrambled","FOR_REV_MAP_BLOBBY_STIM/1159860.bmp_pp152_L2_V1.0_veridical_freeview_isoTrue_fps144_reversed_REAL.mp4",""
"null","","","html-keyboard-response","530","1090377","0.0-530.0","ua7kg9qu","","<span style=""color:Black; font-size:50px;"">Agent B","null","","","","",""
"null","","","video-keyboard-response","531","1093180","0.0-531.0","ua7kg9qu","","","null","","Agent B","veridical","FOR_REV_MAP_BLOBBY_STIM/1159860.bmp_pp152_L2_V1.0_veridical_freeview_isoTrue_fps144.mp4",""
"","","","call-function","532","1093182","0.0-532.0","ua7kg9qu","","","","","","","",""
"1652.1399999998976","{""judgement"":0}","[0]","survey-likert","533","1094835","0.0-533.0","ua7kg9qu","","","","","","","","1"
"1904.9799999999814","{""confidence"":2}","[0]","survey-likert","534","1096742","0.0-534.0","ua7kg9qu","","","","","","","",""
"","","","call-function","535","1096744","0.0-535.0","ua7kg9qu","","","","","","","",""
"null","","","html-keyboard-response","536","1098245","0.0-536.0","ua7kg9qu","","<span style=""color:Black; font-size:50px;"">Agent A","null","","","","",""
"null","","","video-keyboard-response","537","1101104","0.0-537.0","ua7kg9qu","","","null","","Agent A","scrambled","FOR_REV_MAP_BLOBBY_STIM/498326.bmp_pp57_L1_V1.0_veridical_freeview_isoTrue_fps144_reversed_REAL.mp4",""
"null","","","html-keyboard-response","538","1102608","0.0-538.0","ua7kg9qu","","<span style=""color:Black; font-size:50px;"">Agent B","null","","","","",""
"null","","","video-keyboard-response","539","1105467","0.0-539.0","ua7kg9qu","","","null","","Agent B","veridical","FOR_REV_MAP_BLOBBY_STIM/498326.bmp_pp57_L1_V1.0_veridical_freeview_isoTrue_fps144.mp4",""
"","","","call-function","540","1105469","0.0-540.0","ua7kg9qu","","","","","","","",""
"3705.655000000028","{""judgement"":1}","[0]","survey-likert","541","1109175","0.0-541.0","ua7kg9qu","","","","","","","","1"
"1349.910000000149","{""confidence"":0}","[0]","survey-likert","542","1110527","0.0-542.0","ua7kg9qu","","","","","","","",""
"","","","call-function","543","1110529","0.0-543.0","ua7kg9qu","","","","","","","",""
"null","","","html-keyboard-response","544","1112031","0.0-544.0","ua7kg9qu","","<span style=""color:Black; font-size:50px;"">Agent A","null","","","","",""
"null","","","video-keyboard-response","545","1114843","0.0-545.0","ua7kg9qu","","","null","","Agent A","veridical","FOR_REV_MAP_BLOBBY_STIM/1592567.bmp_pp70_L2_V1.0_veridical_freeview_isoTrue_fps144.mp4",""
"null","","","html-keyboard-response","546","1116347","0.0-546.0","ua7kg9qu","","<span style=""color:Black; font-size:50px;"">Agent B","null","","","","",""
"null","","","video-keyboard-response","547","1119126","0.0-547.0","ua7kg9qu","","","null","","Agent B","scrambled","FOR_REV_MAP_BLOBBY_STIM/1592567.bmp_pp70_L2_V1.0_veridical_freeview_isoTrue_fps144_reversed_REAL.mp4",""
"","","","call-function","548","1119128","0.0-548.0","ua7kg9qu","","","","","","","",""
"2113.005000000121","{""judgement"":0}","[0]","survey-likert","549","1121242","0.0-549.0","ua7kg9qu","","","","","","","","0"
"2042.3900000001304","{""confidence"":3}","[0]","survey-likert","550","1123286","0.0-550.0","ua7kg9qu","","","","","","","",""
"","","","call-function","551","1123288","0.0-551.0","ua7kg9qu","","","","","","","",""
"null","","","html-keyboard-response","552","1124792","0.0-552.0","ua7kg9qu","","<span style=""color:Black; font-size:50px;"">Agent A","null","","","","",""
"null","","","video-keyboard-response","553","1127569","0.0-553.0","ua7kg9qu","","","null","","Agent A","scrambled","FOR_REV_MAP_BLOBBY_STIM/1159329.bmp_pp61_L2_V1.0_veridical_freeview_isoTrue_fps144_reversed_REAL.mp4",""
"null","","","html-keyboard-response","554","1129075","0.0-554.0","ua7kg9qu","","<span style=""color:Black; font-size:50px;"">Agent B","null","","","","",""
"null","","","video-keyboard-response","555","1131852","0.0-555.0","ua7kg9qu","","","null","","Agent B","veridical","FOR_REV_MAP_BLOBBY_STIM/1159329.bmp_pp61_L2_V1.0_veridical_freeview_isoTrue_fps144.mp4",""
"","","","call-function","556","1131853","0.0-556.0","ua7kg9qu","","","","","","","",""
"1788.0500000000466","{""judgement"":1}","[0]","survey-likert","557","1133643","0.0-557.0","ua7kg9qu","","","","","","","","1"
"1791.25","{""confidence"":1}","[0]","survey-likert","558","1135437","0.0-558.0","ua7kg9qu","","","","","","","",""
"","","","call-function","559","1135438","0.0-559.0","ua7kg9qu","","","","","","","",""
"null","","","html-keyboard-response","560","1136941","0.0-560.0","ua7kg9qu","","<span style=""color:Black; font-size:50px;"">Agent A","null","","","","",""
"null","","","video-keyboard-response","561","1139758","0.0-561.0","ua7kg9qu","","","null","","Agent A","scrambled","FOR_REV_MAP_BLOBBY_STIM/713790.bmp_pp100_L3_V1.0_veridical_freeview_isoTrue_fps144_reversed_REAL.mp4",""
"null","","","html-keyboard-response","562","1141266","0.0-562.0","ua7kg9qu","","<span style=""color:Black; font-size:50px;"">Agent B","null","","","","",""
"null","","","video-keyboard-response","563","1144083","0.0-563.0","ua7kg9qu","","","null","","Agent B","veridical","FOR_REV_MAP_BLOBBY_STIM/713790.bmp_pp100_L3_V1.0_veridical_freeview_isoTrue_fps144.mp4",""
"","","","call-function","564","1144085","0.0-564.0","ua7kg9qu","","","","","","","",""
"1688.3850000000093","{""judgement"":1}","[0]","survey-likert","565","1145774","0.0-565.0","ua7kg9qu","","","","","","","","1"
"1430.0100000000093","{""confidence"":1}","[0]","survey-likert","566","1147206","0.0-566.0","ua7kg9qu","","","","","","","",""
"","","","call-function","567","1147208","0.0-567.0","ua7kg9qu","","","","","","","",""
"null","","","html-keyboard-response","568","1148715","0.0-568.0","ua7kg9qu","","<span style=""color:Black; font-size:50px;"">Agent A","null","","","","",""
"null","","","video-keyboard-response","569","1151340","0.0-569.0","ua7kg9qu","","","null","","Agent A","veridical","FOR_REV_MAP_BLOBBY_STIM/1159874.bmp_pp96_L2_V1.0_veridical_freeview_isoTrue_fps144.mp4",""
"null","","","html-keyboard-response","570","1152847","0.0-570.0","ua7kg9qu","","<span style=""color:Black; font-size:50px;"">Agent B","null","","","","",""
"null","","","video-keyboard-response","571","1155474","0.0-571.0","ua7kg9qu","","","null","","Agent B","scrambled","FOR_REV_MAP_BLOBBY_STIM/1159874.bmp_pp96_L2_V1.0_veridical_freeview_isoTrue_fps144_reversed_REAL.mp4",""
"","","","call-function","572","1155476","0.0-572.0","ua7kg9qu","","","","","","","",""
"2143.6149999999907","{""judgement"":1}","[0]","survey-likert","573","1157621","0.0-573.0","ua7kg9qu","","","","","","","","0"
"1413.344999999972","{""confidence"":2}","[0]","survey-likert","574","1159037","0.0-574.0","ua7kg9qu","","","","","","","",""
"","","","call-function","575","1159039","0.0-575.0","ua7kg9qu","","","","","","","",""
"null","","","html-keyboard-response","576","1160543","0.0-576.0","ua7kg9qu","","<span style=""color:Black; font-size:50px;"">Agent A","null","","","","",""
"null","","","video-keyboard-response","577","1163285","0.0-577.0","ua7kg9qu","","","null","","Agent A","scrambled","FOR_REV_MAP_BLOBBY_STIM/1592038.bmp_pp79_L2_V1.0_veridical_freeview_isoTrue_fps144_reversed_REAL.mp4",""
"null","","","html-keyboard-response","578","1164792","0.0-578.0","ua7kg9qu","","<span style=""color:Black; font-size:50px;"">Agent B","null","","","","",""
"null","","","video-keyboard-response","579","1167488","0.0-579.0","ua7kg9qu","","","null","","Agent B","veridical","FOR_REV_MAP_BLOBBY_STIM/1592038.bmp_pp79_L2_V1.0_veridical_freeview_isoTrue_fps144.mp4",""
"","","","call-function","580","1167489","0.0-580.0","ua7kg9qu","","","","","","","",""
"1343.2050000000745","{""judgement"":0}","[0]","survey-likert","581","1168833","0.0-581.0","ua7kg9qu","","","","","","","","1"
"1617.3149999999441","{""confidence"":2}","[0]","survey-likert","582","1170453","0.0-582.0","ua7kg9qu","","","","","","","",""
"1958.530000000028","","","instructions","583","1172413","0.0-583.0","ua7kg9qu","[{""page_index"":0,""viewing_time"":1958.375}]","","","","","","",""
"53679.325000000186","","","instructions","584","1226095","0.0-584.0","ua7kg9qu","[{""page_index"":0,""viewing_time"":53679.215000000084}]","","","","","","",""
"10773.465000000084","{""post-1"":2}","[0]","survey-likert","585","1236870","0.0-585.0","ua7kg9qu","","","","","","","",""
"7122.964999999851","{""post-1"":1}","[0]","survey-likert","586","1243996","0.0-586.0","ua7kg9qu","","","","","","","",""
"6486.579999999842","{""post-2"":1}","[0]","survey-likert","587","1250485","0.0-587.0","ua7kg9qu","","","","","","","",""
"2454.2299999999814","{""post-2"":0}","[0]","survey-likert","588","1252942","0.0-588.0","ua7kg9qu","","","","","","","",""
"5029.510000000009","{""post-3"":3}","[0]","survey-likert","589","1257974","0.0-589.0","ua7kg9qu","","","","","","","",""
"5891.2949999999255","{""post-3"":1}","[0]","survey-likert","590","1263867","0.0-590.0","ua7kg9qu","","","","","","","",""
"9466.329999999842","{""post-4"":2}","[0]","survey-likert","591","1273336","0.0-591.0","ua7kg9qu","","","","","","","",""
"3437.409999999916","{""post-4"":1}","[0]","survey-likert","592","1276777","0.0-592.0","ua7kg9qu","","","","","","","",""
"5037.125","{""post-5"":2}","[0]","survey-likert","593","1281818","0.0-593.0","ua7kg9qu","","","","","","","",""
"2605.6800000001676","{""post-5"":3}","[0]","survey-likert","594","1284426","0.0-594.0","ua7kg9qu","","","","","","","",""
"47982.564999999944","{""Q0"":""It was a little confusing at first, but then one I started to get the hang of it, I started rationalizing how I'd look at a picture or how someone else might analyze a picture. ""}","","survey-text","595","1332418","0.0-595.0","ua7kg9qu","","","","","","","",""
"53597.01500000013","{""Q0"":""I found the easiest part to be when they moved in a circular motion. I used the strategy of clockwise vs counterclockwise because that's how I normally look at things that might be circular. ""}","","survey-text","596","1386021","0.0-596.0","ua7kg9qu","","","","","","","",""
"33639.955000000075","{""Q0"":""The difficult parts where when the motions appeared to be going in the same direction or had a bunch of hotspots really close together. ""}","","survey-text","597","1419668","0.0-597.0","ua7kg9qu","","","","","","","",""
"1804.1650000000373","","","instructions","598","1421474","0.0-598.0","ua7kg9qu","[{""page_index"":0,""viewing_time"":1804.0150000001304}]","","","","","","",""
"26028.27500000014","{""Experimenter_end"":[""Printed ID# ua7kg9qu on consent form"",""Given subject SONA credit or payment"",""Given the subject debrief form""]}","[0]","survey-multi-select","599","1447506","0.0-599.0","ua7kg9qu","","","","","","","",""
