"rt","responses","question_order","trial_type","trial_index","time_elapsed","internal_node_id","ID","view_history","stimulus","key_press","value","agent","condition","image","correct_answer"
"78519.56999999999","{""Experimenter"":[""Confirmed subject's identity (ID card)"",""Confirmed normal or corrected-to-normal vision"",""Obtained consent (signature and date)"",""Checked the test room lighting"",""Checked computer screen lighting"",""Checked distance from screen to chin rest (50cm)"",""Cleaned and adjusted chin rest"",""Counterbalanced the order of the tasks"",""Opened the experiment in Firefox"",""Made the experiment full screen"",""Encouraged subject to silence phone, put away distractors, etc.""]}","[0]","survey-multi-select","0","78528","0.0-0.0","ut2jqyy7","","","","","","","",""
"26141.559999999998","","","instructions","1","104671","0.0-1.0","ut2jqyy7","[{""page_index"":0,""viewing_time"":26141.395000000004}]","","","","","","",""
"15099.895000000004","","","instructions","2","119772","0.0-2.0","ut2jqyy7","[{""page_index"":0,""viewing_time"":1440.875},{""page_index"":1,""viewing_time"":6098.945000000007},{""page_index"":2,""viewing_time"":7559.944999999992}]","","","","","","",""
"2338.479999999996","","","instructions","3","122111","0.0-3.0","ut2jqyy7","[{""page_index"":0,""viewing_time"":2338.3649999999907}]","","","","","","",""
"null","","","video-keyboard-response","4","125212","0.0-4.0","ut2jqyy7","","","null","","","","",""
"17299.75499999999","","","instructions","5","142513","0.0-5.0","ut2jqyy7","[{""page_index"":0,""viewing_time"":2852.6399999999994},{""page_index"":1,""viewing_time"":2731.0050000000047},{""page_index"":2,""viewing_time"":1122.070000000007},{""page_index"":3,""viewing_time"":3293.8649999999907},{""page_index"":4,""viewing_time"":7300.040000000008}]","","","","","","",""
"3816.4349999999977","","","instructions","6","146330","0.0-6.0","ut2jqyy7","[{""page_index"":0,""viewing_time"":3816.304999999993}]","","","","","","",""
"","","","call-function","7","146330","0.0-7.0","ut2jqyy7","","","","","","","",""
"null","","","html-keyboard-response","8","147836","0.0-8.0","ut2jqyy7","","<span style=""color:Black; font-size:50px;"">Agent A","null","","","","",""
"null","","","video-keyboard-response","9","150662","0.0-9.0","ut2jqyy7","","","null","","Agent A","veridical","FOR_REV_BLOBBY_STIM/1592286.bmp_pp52_L1_V1.0_veridical_freeview_isoFalse_fps144.mp4",""
"null","","","html-keyboard-response","10","152168","0.0-10.0","ut2jqyy7","","<span style=""color:Black; font-size:50px;"">Agent B","null","","","","",""
"null","","","video-keyboard-response","11","154984","0.0-11.0","ut2jqyy7","","","null","","Agent B","scrambled","FOR_REV_BLOBBY_STIM/1592286.bmp_pp52_L1_V1.0_veridical_freeview_isoFalse_fps144_reversed_REAL.mp4",""
"","","","call-function","12","154984","0.0-12.0","ut2jqyy7","","","","","","","",""
"2451.4949999999953","{""judgement"":0}","[0]","survey-likert","13","157437","0.0-13.0","ut2jqyy7","","","","","","","","0"
"3736.8000000000175","{""confidence"":3}","[0]","survey-likert","14","161175","0.0-14.0","ut2jqyy7","","","","","","","",""
"","","","call-function","15","161175","0.0-15.0","ut2jqyy7","","","","","","","",""
"null","","","html-keyboard-response","16","162676","0.0-16.0","ut2jqyy7","","<span style=""color:Black; font-size:50px;"">Agent A","null","","","","",""
"null","","","video-keyboard-response","17","165534","0.0-17.0","ut2jqyy7","","","null","","Agent A","veridical","FOR_REV_BLOBBY_STIM/713666.bmp_pp97_L3_V1.0_veridical_freeview_isoFalse_fps144.mp4",""
"null","","","html-keyboard-response","18","167040","0.0-18.0","ut2jqyy7","","<span style=""color:Black; font-size:50px;"">Agent B","null","","","","",""
"null","","","video-keyboard-response","19","169870","0.0-19.0","ut2jqyy7","","","null","","Agent B","scrambled","FOR_REV_BLOBBY_STIM/713666.bmp_pp97_L3_V1.0_veridical_freeview_isoFalse_fps144_reversed_REAL.mp4",""
"","","","call-function","20","169870","0.0-20.0","ut2jqyy7","","","","","","","",""
"2220.6600000000035","{""judgement"":1}","[0]","survey-likert","21","172092","0.0-21.0","ut2jqyy7","","","","","","","","0"
"2313.454999999987","{""confidence"":1}","[0]","survey-likert","22","174408","0.0-22.0","ut2jqyy7","","","","","","","",""
"","","","call-function","23","174409","0.0-23.0","ut2jqyy7","","","","","","","",""
"null","","","html-keyboard-response","24","175911","0.0-24.0","ut2jqyy7","","<span style=""color:Black; font-size:50px;"">Agent A","null","","","","",""
"null","","","video-keyboard-response","25","178698","0.0-25.0","ut2jqyy7","","","null","","Agent A","scrambled","FOR_REV_BLOBBY_STIM/1159829.bmp_pp91_L3_V1.0_veridical_freeview_isoFalse_fps144_reversed_REAL.mp4",""
"null","","","html-keyboard-response","26","180202","0.0-26.0","ut2jqyy7","","<span style=""color:Black; font-size:50px;"">Agent B","null","","","","",""
"null","","","video-keyboard-response","27","182992","0.0-27.0","ut2jqyy7","","","null","","Agent B","veridical","FOR_REV_BLOBBY_STIM/1159829.bmp_pp91_L3_V1.0_veridical_freeview_isoFalse_fps144.mp4",""
"","","","call-function","28","182993","0.0-28.0","ut2jqyy7","","","","","","","",""
"1939.9700000000012","{""judgement"":1}","[0]","survey-likert","29","184934","0.0-29.0","ut2jqyy7","","","","","","","","1"
"1893.2550000000047","{""confidence"":3}","[0]","survey-likert","30","186829","0.0-30.0","ut2jqyy7","","","","","","","",""
"","","","call-function","31","186830","0.0-31.0","ut2jqyy7","","","","","","","",""
"null","","","html-keyboard-response","32","188333","0.0-32.0","ut2jqyy7","","<span style=""color:Black; font-size:50px;"">Agent A","null","","","","",""
"null","","","video-keyboard-response","33","190917","0.0-33.0","ut2jqyy7","","","null","","Agent A","veridical","FOR_REV_BLOBBY_STIM/286001.bmp_pp54_L2_V1.0_veridical_freeview_isoFalse_fps144.mp4",""
"null","","","html-keyboard-response","34","192420","0.0-34.0","ut2jqyy7","","<span style=""color:Black; font-size:50px;"">Agent B","null","","","","",""
"null","","","video-keyboard-response","35","195024","0.0-35.0","ut2jqyy7","","","null","","Agent B","scrambled","FOR_REV_BLOBBY_STIM/286001.bmp_pp54_L2_V1.0_veridical_freeview_isoFalse_fps144_reversed_REAL.mp4",""
"","","","call-function","36","195024","0.0-36.0","ut2jqyy7","","","","","","","",""
"1865.2000000000116","{""judgement"":0}","[0]","survey-likert","37","196890","0.0-37.0","ut2jqyy7","","","","","","","","0"
"1535.8349999999919","{""confidence"":3}","[0]","survey-likert","38","198427","0.0-38.0","ut2jqyy7","","","","","","","",""
"","","","call-function","39","198427","0.0-39.0","ut2jqyy7","","","","","","","",""
"null","","","html-keyboard-response","40","199930","0.0-40.0","ut2jqyy7","","<span style=""color:Black; font-size:50px;"">Agent A","null","","","","",""
"null","","","video-keyboard-response","41","202785","0.0-41.0","ut2jqyy7","","","null","","Agent A","veridical","FOR_REV_BLOBBY_STIM/1592657.bmp_pp98_L1_V1.0_veridical_freeview_isoFalse_fps144.mp4",""
"null","","","html-keyboard-response","42","204287","0.0-42.0","ut2jqyy7","","<span style=""color:Black; font-size:50px;"">Agent B","null","","","","",""
"null","","","video-keyboard-response","43","207124","0.0-43.0","ut2jqyy7","","","null","","Agent B","scrambled","FOR_REV_BLOBBY_STIM/1592657.bmp_pp98_L1_V1.0_veridical_freeview_isoFalse_fps144_reversed_REAL.mp4",""
"","","","call-function","44","207124","0.0-44.0","ut2jqyy7","","","","","","","",""
"3178.49000000002","{""judgement"":0}","[0]","survey-likert","45","210304","0.0-45.0","ut2jqyy7","","","","","","","","0"
"1366.8399999999965","{""confidence"":3}","[0]","survey-likert","46","211672","0.0-46.0","ut2jqyy7","","","","","","","",""
"","","","call-function","47","211672","0.0-47.0","ut2jqyy7","","","","","","","",""
"null","","","html-keyboard-response","48","213173","0.0-48.0","ut2jqyy7","","<span style=""color:Black; font-size:50px;"">Agent A","null","","","","",""
"null","","","video-keyboard-response","49","215920","0.0-49.0","ut2jqyy7","","","null","","Agent A","scrambled","FOR_REV_BLOBBY_STIM/498111.bmp_pp88_L2_V1.0_veridical_freeview_isoFalse_fps144_reversed_REAL.mp4",""
"null","","","html-keyboard-response","50","217422","0.0-50.0","ut2jqyy7","","<span style=""color:Black; font-size:50px;"">Agent B","null","","","","",""
"null","","","video-keyboard-response","51","220178","0.0-51.0","ut2jqyy7","","","null","","Agent B","veridical","FOR_REV_BLOBBY_STIM/498111.bmp_pp88_L2_V1.0_veridical_freeview_isoFalse_fps144.mp4",""
"","","","call-function","52","220179","0.0-52.0","ut2jqyy7","","","","","","","",""
"1545.3600000000151","{""judgement"":0}","[0]","survey-likert","53","221725","0.0-53.0","ut2jqyy7","","","","","","","","1"
"1493.4599999999919","{""confidence"":3}","[0]","survey-likert","54","223219","0.0-54.0","ut2jqyy7","","","","","","","",""
"","","","call-function","55","223220","0.0-55.0","ut2jqyy7","","","","","","","",""
"null","","","html-keyboard-response","56","224720","0.0-56.0","ut2jqyy7","","<span style=""color:Black; font-size:50px;"">Agent A","null","","","","",""
"null","","","video-keyboard-response","57","227499","0.0-57.0","ut2jqyy7","","","null","","Agent A","scrambled","FOR_REV_BLOBBY_STIM/1593041.bmp_pp58_L1_V1.0_veridical_freeview_isoFalse_fps144_reversed_REAL.mp4",""
"null","","","html-keyboard-response","58","229002","0.0-58.0","ut2jqyy7","","<span style=""color:Black; font-size:50px;"">Agent B","null","","","","",""
"null","","","video-keyboard-response","59","231783","0.0-59.0","ut2jqyy7","","","null","","Agent B","veridical","FOR_REV_BLOBBY_STIM/1593041.bmp_pp58_L1_V1.0_veridical_freeview_isoFalse_fps144.mp4",""
"","","","call-function","60","231784","0.0-60.0","ut2jqyy7","","","","","","","",""
"1760.9499999999825","{""judgement"":1}","[0]","survey-likert","61","233545","0.0-61.0","ut2jqyy7","","","","","","","","1"
"1127.5699999999779","{""confidence"":2}","[0]","survey-likert","62","234674","0.0-62.0","ut2jqyy7","","","","","","","",""
"","","","call-function","63","234675","0.0-63.0","ut2jqyy7","","","","","","","",""
"null","","","html-keyboard-response","64","236178","0.0-64.0","ut2jqyy7","","<span style=""color:Black; font-size:50px;"">Agent A","null","","","","",""
"null","","","video-keyboard-response","65","239033","0.0-65.0","ut2jqyy7","","","null","","Agent A","scrambled","FOR_REV_BLOBBY_STIM/497950.bmp_pp151_L1_V1.0_veridical_freeview_isoFalse_fps144_reversed_REAL.mp4",""
"null","","","html-keyboard-response","66","240538","0.0-66.0","ut2jqyy7","","<span style=""color:Black; font-size:50px;"">Agent B","null","","","","",""
"null","","","video-keyboard-response","67","243371","0.0-67.0","ut2jqyy7","","","null","","Agent B","veridical","FOR_REV_BLOBBY_STIM/497950.bmp_pp151_L1_V1.0_veridical_freeview_isoFalse_fps144.mp4",""
"","","","call-function","68","243372","0.0-68.0","ut2jqyy7","","","","","","","",""
"1381.3299999999872","{""judgement"":1}","[0]","survey-likert","69","244754","0.0-69.0","ut2jqyy7","","","","","","","","1"
"1501.9500000000116","{""confidence"":1}","[0]","survey-likert","70","246257","0.0-70.0","ut2jqyy7","","","","","","","",""
"","","","call-function","71","246257","0.0-71.0","ut2jqyy7","","","","","","","",""
"null","","","html-keyboard-response","72","247758","0.0-72.0","ut2jqyy7","","<span style=""color:Black; font-size:50px;"">Agent A","null","","","","",""
"null","","","video-keyboard-response","73","250531","0.0-73.0","ut2jqyy7","","","null","","Agent A","scrambled","FOR_REV_BLOBBY_STIM/1591994.bmp_pp69_L3_V1.0_veridical_freeview_isoFalse_fps144_reversed_REAL.mp4",""
"null","","","html-keyboard-response","74","252037","0.0-74.0","ut2jqyy7","","<span style=""color:Black; font-size:50px;"">Agent B","null","","","","",""
"null","","","video-keyboard-response","75","254827","0.0-75.0","ut2jqyy7","","","null","","Agent B","veridical","FOR_REV_BLOBBY_STIM/1591994.bmp_pp69_L3_V1.0_veridical_freeview_isoFalse_fps144.mp4",""
"","","","call-function","76","254827","0.0-76.0","ut2jqyy7","","","","","","","",""
"2123.8150000000023","{""judgement"":0}","[0]","survey-likert","77","256953","0.0-77.0","ut2jqyy7","","","","","","","","1"
"2514.945000000007","{""confidence"":0}","[0]","survey-likert","78","259469","0.0-78.0","ut2jqyy7","","","","","","","",""
"","","","call-function","79","259469","0.0-79.0","ut2jqyy7","","","","","","","",""
"null","","","html-keyboard-response","80","260970","0.0-80.0","ut2jqyy7","","<span style=""color:Black; font-size:50px;"">Agent A","null","","","","",""
"null","","","video-keyboard-response","81","263673","0.0-81.0","ut2jqyy7","","","null","","Agent A","scrambled","FOR_REV_BLOBBY_STIM/1160168.bmp_pp53_L2_V1.0_veridical_freeview_isoFalse_fps144_reversed_REAL.mp4",""
"null","","","html-keyboard-response","82","265177","0.0-82.0","ut2jqyy7","","<span style=""color:Black; font-size:50px;"">Agent B","null","","","","",""
"null","","","video-keyboard-response","83","267883","0.0-83.0","ut2jqyy7","","","null","","Agent B","veridical","FOR_REV_BLOBBY_STIM/1160168.bmp_pp53_L2_V1.0_veridical_freeview_isoFalse_fps144.mp4",""
"","","","call-function","84","267884","0.0-84.0","ut2jqyy7","","","","","","","",""
"1873.6549999999697","{""judgement"":1}","[0]","survey-likert","85","269758","0.0-85.0","ut2jqyy7","","","","","","","","1"
"1781.9349999999977","{""confidence"":3}","[0]","survey-likert","86","271541","0.0-86.0","ut2jqyy7","","","","","","","",""
"2454.5650000000023","","","instructions","87","273996","0.0-87.0","ut2jqyy7","[{""page_index"":0,""viewing_time"":560.4900000000489},{""page_index"":1,""viewing_time"":951.2599999999511},{""page_index"":2,""viewing_time"":942.5800000000163}]","","","","","","",""
"3363.8850000000093","","","instructions","88","277360","0.0-88.0","ut2jqyy7","[{""page_index"":0,""viewing_time"":876.484999999986},{""page_index"":1,""viewing_time"":1727.045000000042},{""page_index"":2,""viewing_time"":760.1449999999604}]","","","","","","",""
"","","","call-function","89","277361","0.0-89.0","ut2jqyy7","","","","","","","",""
"null","","","html-keyboard-response","90","278864","0.0-90.0","ut2jqyy7","","<span style=""color:Black; font-size:50px;"">Agent A","null","","","","",""
"null","","","video-keyboard-response","91","281642","0.0-91.0","ut2jqyy7","","","null","","Agent A","scrambled","FOR_REV_BLOBBY_STIM/713620.bmp_pp65_L3_V1.0_veridical_freeview_isoFalse_fps144_reversed_REAL.mp4",""
"null","","","html-keyboard-response","92","283148","0.0-92.0","ut2jqyy7","","<span style=""color:Black; font-size:50px;"">Agent B","null","","","","",""
"null","","","video-keyboard-response","93","285926","0.0-93.0","ut2jqyy7","","","null","","Agent B","veridical","FOR_REV_BLOBBY_STIM/713620.bmp_pp65_L3_V1.0_veridical_freeview_isoFalse_fps144.mp4",""
"","","","call-function","94","285927","0.0-94.0","ut2jqyy7","","","","","","","",""
"1661.045000000042","{""judgement"":1}","[0]","survey-likert","95","287589","0.0-95.0","ut2jqyy7","","","","","","","","1"
"1320.7600000000093","{""confidence"":1}","[0]","survey-likert","96","288911","0.0-96.0","ut2jqyy7","","","","","","","",""
"","","","call-function","97","288912","0.0-97.0","ut2jqyy7","","","","","","","",""
"null","","","html-keyboard-response","98","290413","0.0-98.0","ut2jqyy7","","<span style=""color:Black; font-size:50px;"">Agent A","null","","","","",""
"null","","","video-keyboard-response","99","293274","0.0-99.0","ut2jqyy7","","","null","","Agent A","scrambled","FOR_REV_BLOBBY_STIM/713089.bmp_pp60_L3_V1.0_veridical_freeview_isoFalse_fps144_reversed_REAL.mp4",""
"null","","","html-keyboard-response","100","294775","0.0-100.0","ut2jqyy7","","<span style=""color:Black; font-size:50px;"">Agent B","null","","","","",""
"null","","","video-keyboard-response","101","297657","0.0-101.0","ut2jqyy7","","","null","","Agent B","veridical","FOR_REV_BLOBBY_STIM/713089.bmp_pp60_L3_V1.0_veridical_freeview_isoFalse_fps144.mp4",""
"","","","call-function","102","297658","0.0-102.0","ut2jqyy7","","","","","","","",""
"1608.125","{""judgement"":1}","[0]","survey-likert","103","299267","0.0-103.0","ut2jqyy7","","","","","","","","1"
"8301.424999999988","{""confidence"":3}","[0]","survey-likert","104","307570","0.0-104.0","ut2jqyy7","","","","","","","",""
"","","","call-function","105","307570","0.0-105.0","ut2jqyy7","","","","","","","",""
"null","","","html-keyboard-response","106","309072","0.0-106.0","ut2jqyy7","","<span style=""color:Black; font-size:50px;"">Agent A","null","","","","",""
"null","","","video-keyboard-response","107","310689","0.0-107.0","ut2jqyy7","","","null","","Agent A","veridical","FOR_REV_BLOBBY_STIM/713684.bmp_pp85_L3_V1.0_veridical_freeview_isoFalse_fps144.mp4",""
"null","","","html-keyboard-response","108","312191","0.0-108.0","ut2jqyy7","","<span style=""color:Black; font-size:50px;"">Agent B","null","","","","",""
"null","","","video-keyboard-response","109","313793","0.0-109.0","ut2jqyy7","","","null","","Agent B","scrambled","FOR_REV_BLOBBY_STIM/713684.bmp_pp85_L3_V1.0_veridical_freeview_isoFalse_fps144_reversed_REAL.mp4",""
"","","","call-function","110","313793","0.0-110.0","ut2jqyy7","","","","","","","",""
"3982.1100000000442","{""judgement"":1}","[0]","survey-likert","111","317777","0.0-111.0","ut2jqyy7","","","","","","","","0"
"5903.075000000012","{""confidence"":0}","[0]","survey-likert","112","323682","0.0-112.0","ut2jqyy7","","","","","","","",""
"","","","call-function","113","323683","0.0-113.0","ut2jqyy7","","","","","","","",""
"null","","","html-keyboard-response","114","325188","0.0-114.0","ut2jqyy7","","<span style=""color:Black; font-size:50px;"">Agent A","null","","","","",""
"null","","","video-keyboard-response","115","327903","0.0-115.0","ut2jqyy7","","","null","","Agent A","scrambled","FOR_REV_BLOBBY_STIM/1592372.bmp_pp76_L1_V1.0_veridical_freeview_isoFalse_fps144_reversed_REAL.mp4",""
"null","","","html-keyboard-response","116","329409","0.0-116.0","ut2jqyy7","","<span style=""color:Black; font-size:50px;"">Agent B","null","","","","",""
"null","","","video-keyboard-response","117","332124","0.0-117.0","ut2jqyy7","","","null","","Agent B","veridical","FOR_REV_BLOBBY_STIM/1592372.bmp_pp76_L1_V1.0_veridical_freeview_isoFalse_fps144.mp4",""
"","","","call-function","118","332124","0.0-118.0","ut2jqyy7","","","","","","","",""
"3236.5999999999767","{""judgement"":0}","[0]","survey-likert","119","335361","0.0-119.0","ut2jqyy7","","","","","","","","1"
"2878.594999999972","{""confidence"":1}","[0]","survey-likert","120","338241","0.0-120.0","ut2jqyy7","","","","","","","",""
"","","","call-function","121","338242","0.0-121.0","ut2jqyy7","","","","","","","",""
"null","","","html-keyboard-response","122","339748","0.0-122.0","ut2jqyy7","","<span style=""color:Black; font-size:50px;"">Agent A","null","","","","",""
"null","","","video-keyboard-response","123","342498","0.0-123.0","ut2jqyy7","","","null","","Agent A","scrambled","FOR_REV_BLOBBY_STIM/713749.bmp_pp88_L2_V1.0_veridical_freeview_isoFalse_fps144_reversed_REAL.mp4",""
"null","","","html-keyboard-response","124","344000","0.0-124.0","ut2jqyy7","","<span style=""color:Black; font-size:50px;"">Agent B","null","","","","",""
"null","","","video-keyboard-response","125","346729","0.0-125.0","ut2jqyy7","","","null","","Agent B","veridical","FOR_REV_BLOBBY_STIM/713749.bmp_pp88_L2_V1.0_veridical_freeview_isoFalse_fps144.mp4",""
"","","","call-function","126","346729","0.0-126.0","ut2jqyy7","","","","","","","",""
"2846.9150000000373","{""judgement"":0}","[0]","survey-likert","127","349577","0.0-127.0","ut2jqyy7","","","","","","","","1"
"1798.6300000000047","{""confidence"":2}","[0]","survey-likert","128","351377","0.0-128.0","ut2jqyy7","","","","","","","",""
"","","","call-function","129","351378","0.0-129.0","ut2jqyy7","","","","","","","",""
"null","","","html-keyboard-response","130","352881","0.0-130.0","ut2jqyy7","","<span style=""color:Black; font-size:50px;"">Agent A","null","","","","",""
"null","","","video-keyboard-response","131","355735","0.0-131.0","ut2jqyy7","","","null","","Agent A","veridical","FOR_REV_BLOBBY_STIM/1159447.bmp_pp70_L2_V1.0_veridical_freeview_isoFalse_fps144.mp4",""
"null","","","html-keyboard-response","132","357237","0.0-132.0","ut2jqyy7","","<span style=""color:Black; font-size:50px;"">Agent B","null","","","","",""
"null","","","video-keyboard-response","133","360098","0.0-133.0","ut2jqyy7","","","null","","Agent B","scrambled","FOR_REV_BLOBBY_STIM/1159447.bmp_pp70_L2_V1.0_veridical_freeview_isoFalse_fps144_reversed_REAL.mp4",""
"","","","call-function","134","360098","0.0-134.0","ut2jqyy7","","","","","","","",""
"2367.0100000000093","{""judgement"":0}","[0]","survey-likert","135","362466","0.0-135.0","ut2jqyy7","","","","","","","","0"
"3382.0650000000023","{""confidence"":2}","[0]","survey-likert","136","365849","0.0-136.0","ut2jqyy7","","","","","","","",""
"","","","call-function","137","365850","0.0-137.0","ut2jqyy7","","","","","","","",""
"null","","","html-keyboard-response","138","367353","0.0-138.0","ut2jqyy7","","<span style=""color:Black; font-size:50px;"">Agent A","null","","","","",""
"null","","","video-keyboard-response","139","370068","0.0-139.0","ut2jqyy7","","","null","","Agent A","veridical","FOR_REV_BLOBBY_STIM/1592934.bmp_pp63_L1_V1.0_veridical_freeview_isoFalse_fps144.mp4",""
"null","","","html-keyboard-response","140","371573","0.0-140.0","ut2jqyy7","","<span style=""color:Black; font-size:50px;"">Agent B","null","","","","",""
"null","","","video-keyboard-response","141","374295","0.0-141.0","ut2jqyy7","","","null","","Agent B","scrambled","FOR_REV_BLOBBY_STIM/1592934.bmp_pp63_L1_V1.0_veridical_freeview_isoFalse_fps144_reversed_REAL.mp4",""
"","","","call-function","142","374295","0.0-142.0","ut2jqyy7","","","","","","","",""
"2345.2150000000256","{""judgement"":0}","[0]","survey-likert","143","376641","0.0-143.0","ut2jqyy7","","","","","","","","0"
"1894.8300000000163","{""confidence"":0}","[0]","survey-likert","144","378538","0.0-144.0","ut2jqyy7","","","","","","","",""
"","","","call-function","145","378538","0.0-145.0","ut2jqyy7","","","","","","","",""
"null","","","html-keyboard-response","146","380040","0.0-146.0","ut2jqyy7","","<span style=""color:Black; font-size:50px;"">Agent A","null","","","","",""
"null","","","video-keyboard-response","147","382825","0.0-147.0","ut2jqyy7","","","null","","Agent A","scrambled","FOR_REV_BLOBBY_STIM/1592499.bmp_pp96_L2_V1.0_veridical_freeview_isoFalse_fps144_reversed_REAL.mp4",""
"null","","","html-keyboard-response","148","384327","0.0-148.0","ut2jqyy7","","<span style=""color:Black; font-size:50px;"">Agent B","null","","","","",""
"null","","","video-keyboard-response","149","387109","0.0-149.0","ut2jqyy7","","","null","","Agent B","veridical","FOR_REV_BLOBBY_STIM/1592499.bmp_pp96_L2_V1.0_veridical_freeview_isoFalse_fps144.mp4",""
"","","","call-function","150","387110","0.0-150.0","ut2jqyy7","","","","","","","",""
"3834.6600000000326","{""judgement"":1}","[0]","survey-likert","151","390945","0.0-151.0","ut2jqyy7","","","","","","","","1"
"1990.570000000007","{""confidence"":1}","[0]","survey-likert","152","392937","0.0-152.0","ut2jqyy7","","","","","","","",""
"","","","call-function","153","392938","0.0-153.0","ut2jqyy7","","","","","","","",""
"null","","","html-keyboard-response","154","394439","0.0-154.0","ut2jqyy7","","<span style=""color:Black; font-size:50px;"">Agent A","null","","","","",""
"null","","","video-keyboard-response","155","397214","0.0-155.0","ut2jqyy7","","","null","","Agent A","scrambled","FOR_REV_BLOBBY_STIM/1592581.bmp_pp100_L3_V1.0_veridical_freeview_isoFalse_fps144_reversed_REAL.mp4",""
"null","","","html-keyboard-response","156","398719","0.0-156.0","ut2jqyy7","","<span style=""color:Black; font-size:50px;"">Agent B","null","","","","",""
"null","","","video-keyboard-response","157","401592","0.0-157.0","ut2jqyy7","","","null","","Agent B","veridical","FOR_REV_BLOBBY_STIM/1592581.bmp_pp100_L3_V1.0_veridical_freeview_isoFalse_fps144.mp4",""
"","","","call-function","158","401592","0.0-158.0","ut2jqyy7","","","","","","","",""
"2384.1500000000233","{""judgement"":1}","[0]","survey-likert","159","403977","0.0-159.0","ut2jqyy7","","","","","","","","1"
"1278.704999999958","{""confidence"":0}","[0]","survey-likert","160","405257","0.0-160.0","ut2jqyy7","","","","","","","",""
"","","","call-function","161","405258","0.0-161.0","ut2jqyy7","","","","","","","",""
"null","","","html-keyboard-response","162","406760","0.0-162.0","ut2jqyy7","","<span style=""color:Black; font-size:50px;"">Agent A","null","","","","",""
"null","","","video-keyboard-response","163","409484","0.0-163.0","ut2jqyy7","","","null","","Agent A","veridical","FOR_REV_BLOBBY_STIM/285933.bmp_pp81_L1_V1.0_veridical_freeview_isoFalse_fps144.mp4",""
"null","","","html-keyboard-response","164","410987","0.0-164.0","ut2jqyy7","","<span style=""color:Black; font-size:50px;"">Agent B","null","","","","",""
"null","","","video-keyboard-response","165","413732","0.0-165.0","ut2jqyy7","","","null","","Agent B","scrambled","FOR_REV_BLOBBY_STIM/285933.bmp_pp81_L1_V1.0_veridical_freeview_isoFalse_fps144_reversed_REAL.mp4",""
"","","","call-function","166","413733","0.0-166.0","ut2jqyy7","","","","","","","",""
"2987.9550000000163","{""judgement"":1}","[0]","survey-likert","167","416721","0.0-167.0","ut2jqyy7","","","","","","","","0"
"1934.6599999999744","{""confidence"":0}","[0]","survey-likert","168","418658","0.0-168.0","ut2jqyy7","","","","","","","",""
"4430.299999999988","","","instructions","169","423089","0.0-169.0","ut2jqyy7","[{""page_index"":0,""viewing_time"":1709.9649999999674},{""page_index"":1,""viewing_time"":1512.100000000035},{""page_index"":2,""viewing_time"":1207.9049999999697}]","","","","","","",""
"4463.15499999997","","","instructions","170","427552","0.0-170.0","ut2jqyy7","[{""page_index"":0,""viewing_time"":823.0349999999744},{""page_index"":1,""viewing_time"":2360.0050000000047},{""page_index"":2,""viewing_time"":1279.9650000000256}]","","","","","","",""
"","","","call-function","171","427553","0.0-171.0","ut2jqyy7","","","","","","","",""
"null","","","html-keyboard-response","172","429057","0.0-172.0","ut2jqyy7","","<span style=""color:Black; font-size:50px;"">Agent A","null","","","","",""
"null","","","video-keyboard-response","173","431862","0.0-173.0","ut2jqyy7","","","null","","Agent A","veridical","FOR_REV_BLOBBY_STIM/1159777.bmp_pp77_L3_V1.0_veridical_freeview_isoFalse_fps144.mp4",""
"null","","","html-keyboard-response","174","433367","0.0-174.0","ut2jqyy7","","<span style=""color:Black; font-size:50px;"">Agent B","null","","","","",""
"null","","","video-keyboard-response","175","436151","0.0-175.0","ut2jqyy7","","","null","","Agent B","scrambled","FOR_REV_BLOBBY_STIM/1159777.bmp_pp77_L3_V1.0_veridical_freeview_isoFalse_fps144_reversed_REAL.mp4",""
"","","","call-function","176","436151","0.0-176.0","ut2jqyy7","","","","","","","",""
"2065.9949999999953","{""judgement"":0}","[0]","survey-likert","177","438218","0.0-177.0","ut2jqyy7","","","","","","","","0"
"1422.179999999993","{""confidence"":3}","[0]","survey-likert","178","439641","0.0-178.0","ut2jqyy7","","","","","","","",""
"","","","call-function","179","439642","0.0-179.0","ut2jqyy7","","","","","","","",""
"null","","","html-keyboard-response","180","441143","0.0-180.0","ut2jqyy7","","<span style=""color:Black; font-size:50px;"">Agent A","null","","","","",""
"null","","","video-keyboard-response","181","444042","0.0-181.0","ut2jqyy7","","","null","","Agent A","scrambled","FOR_REV_BLOBBY_STIM/285905.bmp_pp57_L1_V1.0_veridical_freeview_isoFalse_fps144_reversed_REAL.mp4",""
"null","","","html-keyboard-response","182","445545","0.0-182.0","ut2jqyy7","","<span style=""color:Black; font-size:50px;"">Agent B","null","","","","",""
"null","","","video-keyboard-response","183","448443","0.0-183.0","ut2jqyy7","","","null","","Agent B","veridical","FOR_REV_BLOBBY_STIM/285905.bmp_pp57_L1_V1.0_veridical_freeview_isoFalse_fps144.mp4",""
"","","","call-function","184","448443","0.0-184.0","ut2jqyy7","","","","","","","",""
"1845.585000000021","{""judgement"":1}","[0]","survey-likert","185","450290","0.0-185.0","ut2jqyy7","","","","","","","","1"
"1246.625","{""confidence"":3}","[0]","survey-likert","186","451537","0.0-186.0","ut2jqyy7","","","","","","","",""
"","","","call-function","187","451538","0.0-187.0","ut2jqyy7","","","","","","","",""
"null","","","html-keyboard-response","188","453042","0.0-188.0","ut2jqyy7","","<span style=""color:Black; font-size:50px;"">Agent A","null","","","","",""
"null","","","video-keyboard-response","189","455889","0.0-189.0","ut2jqyy7","","","null","","Agent A","veridical","FOR_REV_BLOBBY_STIM/713403.bmp_pp80_L3_V1.0_veridical_freeview_isoFalse_fps144.mp4",""
"null","","","html-keyboard-response","190","457392","0.0-190.0","ut2jqyy7","","<span style=""color:Black; font-size:50px;"">Agent B","null","","","","",""
"null","","","video-keyboard-response","191","460231","0.0-191.0","ut2jqyy7","","","null","","Agent B","scrambled","FOR_REV_BLOBBY_STIM/713403.bmp_pp80_L3_V1.0_veridical_freeview_isoFalse_fps144_reversed_REAL.mp4",""
"","","","call-function","192","460231","0.0-192.0","ut2jqyy7","","","","","","","",""
"1769.5400000000373","{""judgement"":0}","[0]","survey-likert","193","462002","0.0-193.0","ut2jqyy7","","","","","","","","0"
"1246.890000000014","{""confidence"":2}","[0]","survey-likert","194","463250","0.0-194.0","ut2jqyy7","","","","","","","",""
"","","","call-function","195","463251","0.0-195.0","ut2jqyy7","","","","","","","",""
"null","","","html-keyboard-response","196","464752","0.0-196.0","ut2jqyy7","","<span style=""color:Black; font-size:50px;"">Agent A","null","","","","",""
"null","","","video-keyboard-response","197","467410","0.0-197.0","ut2jqyy7","","","null","","Agent A","veridical","FOR_REV_BLOBBY_STIM/713707.bmp_pp154_L1_V1.0_veridical_freeview_isoFalse_fps144.mp4",""
"null","","","html-keyboard-response","198","468914","0.0-198.0","ut2jqyy7","","<span style=""color:Black; font-size:50px;"">Agent B","null","","","","",""
"null","","","video-keyboard-response","199","471566","0.0-199.0","ut2jqyy7","","","null","","Agent B","scrambled","FOR_REV_BLOBBY_STIM/713707.bmp_pp154_L1_V1.0_veridical_freeview_isoFalse_fps144_reversed_REAL.mp4",""
"","","","call-function","200","471567","0.0-200.0","ut2jqyy7","","","","","","","",""
"3681.8499999999767","{""judgement"":1}","[0]","survey-likert","201","475249","0.0-201.0","ut2jqyy7","","","","","","","","0"
"2558.7999999999884","{""confidence"":0}","[0]","survey-likert","202","477810","0.0-202.0","ut2jqyy7","","","","","","","",""
"","","","call-function","203","477810","0.0-203.0","ut2jqyy7","","","","","","","",""
"null","","","html-keyboard-response","204","479312","0.0-204.0","ut2jqyy7","","<span style=""color:Black; font-size:50px;"">Agent A","null","","","","",""
"null","","","video-keyboard-response","205","482095","0.0-205.0","ut2jqyy7","","","null","","Agent A","veridical","FOR_REV_BLOBBY_STIM/1159621.bmp_pp92_L3_V1.0_veridical_freeview_isoFalse_fps144.mp4",""
"null","","","html-keyboard-response","206","483600","0.0-206.0","ut2jqyy7","","<span style=""color:Black; font-size:50px;"">Agent B","null","","","","",""
"null","","","video-keyboard-response","207","486392","0.0-207.0","ut2jqyy7","","","null","","Agent B","scrambled","FOR_REV_BLOBBY_STIM/1159621.bmp_pp92_L3_V1.0_veridical_freeview_isoFalse_fps144_reversed_REAL.mp4",""
"","","","call-function","208","486393","0.0-208.0","ut2jqyy7","","","","","","","",""
"1560.210000000021","{""judgement"":0}","[0]","survey-likert","209","487954","0.0-209.0","ut2jqyy7","","","","","","","","0"
"1230.679999999993","{""confidence"":2}","[0]","survey-likert","210","489186","0.0-210.0","ut2jqyy7","","","","","","","",""
"","","","call-function","211","489186","0.0-211.0","ut2jqyy7","","","","","","","",""
"null","","","html-keyboard-response","212","490692","0.0-212.0","ut2jqyy7","","<span style=""color:Black; font-size:50px;"">Agent A","null","","","","",""
"null","","","video-keyboard-response","213","493442","0.0-213.0","ut2jqyy7","","","null","","Agent A","veridical","FOR_REV_BLOBBY_STIM/1591954.bmp_pp62_L2_V1.0_veridical_freeview_isoFalse_fps144.mp4",""
"null","","","html-keyboard-response","214","494943","0.0-214.0","ut2jqyy7","","<span style=""color:Black; font-size:50px;"">Agent B","null","","","","",""
"null","","","video-keyboard-response","215","497671","0.0-215.0","ut2jqyy7","","","null","","Agent B","scrambled","FOR_REV_BLOBBY_STIM/1591954.bmp_pp62_L2_V1.0_veridical_freeview_isoFalse_fps144_reversed_REAL.mp4",""
"","","","call-function","216","497671","0.0-216.0","ut2jqyy7","","","","","","","",""
"1769.1849999999977","{""judgement"":0}","[0]","survey-likert","217","499442","0.0-217.0","ut2jqyy7","","","","","","","","0"
"1054.7649999999558","{""confidence"":1}","[0]","survey-likert","218","500498","0.0-218.0","ut2jqyy7","","","","","","","",""
"","","","call-function","219","500498","0.0-219.0","ut2jqyy7","","","","","","","",""
"null","","","html-keyboard-response","220","502004","0.0-220.0","ut2jqyy7","","<span style=""color:Black; font-size:50px;"">Agent A","null","","","","",""
"null","","","video-keyboard-response","221","504838","0.0-221.0","ut2jqyy7","","","null","","Agent A","veridical","FOR_REV_BLOBBY_STIM/713017.bmp_pp152_L2_V1.0_veridical_freeview_isoFalse_fps144.mp4",""
"null","","","html-keyboard-response","222","506343","0.0-222.0","ut2jqyy7","","<span style=""color:Black; font-size:50px;"">Agent B","null","","","","",""
"null","","","video-keyboard-response","223","509199","0.0-223.0","ut2jqyy7","","","null","","Agent B","scrambled","FOR_REV_BLOBBY_STIM/713017.bmp_pp152_L2_V1.0_veridical_freeview_isoFalse_fps144_reversed_REAL.mp4",""
"","","","call-function","224","509200","0.0-224.0","ut2jqyy7","","","","","","","",""
"4464.755000000005","{""judgement"":0}","[0]","survey-likert","225","513666","0.0-225.0","ut2jqyy7","","","","","","","","0"
"2614.5299999999697","{""confidence"":1}","[0]","survey-likert","226","516282","0.0-226.0","ut2jqyy7","","","","","","","",""
"","","","call-function","227","516282","0.0-227.0","ut2jqyy7","","","","","","","",""
"null","","","html-keyboard-response","228","517788","0.0-228.0","ut2jqyy7","","<span style=""color:Black; font-size:50px;"">Agent A","null","","","","",""
"null","","","video-keyboard-response","229","520539","0.0-229.0","ut2jqyy7","","","null","","Agent A","veridical","FOR_REV_BLOBBY_STIM/1592619.bmp_pp56_L3_V1.0_veridical_freeview_isoFalse_fps144.mp4",""
"null","","","html-keyboard-response","230","522045","0.0-230.0","ut2jqyy7","","<span style=""color:Black; font-size:50px;"">Agent B","null","","","","",""
"null","","","video-keyboard-response","231","524799","0.0-231.0","ut2jqyy7","","","null","","Agent B","scrambled","FOR_REV_BLOBBY_STIM/1592619.bmp_pp56_L3_V1.0_veridical_freeview_isoFalse_fps144_reversed_REAL.mp4",""
"","","","call-function","232","524800","0.0-232.0","ut2jqyy7","","","","","","","",""
"2689.5200000000186","{""judgement"":1}","[0]","survey-likert","233","527490","0.0-233.0","ut2jqyy7","","","","","","","","0"
"11500.130000000005","{""confidence"":0}","[0]","survey-likert","234","538992","0.0-234.0","ut2jqyy7","","","","","","","",""
"","","","call-function","235","538992","0.0-235.0","ut2jqyy7","","","","","","","",""
"null","","","html-keyboard-response","236","540495","0.0-236.0","ut2jqyy7","","<span style=""color:Black; font-size:50px;"">Agent A","null","","","","",""
"null","","","video-keyboard-response","237","543306","0.0-237.0","ut2jqyy7","","","null","","Agent A","veridical","FOR_REV_BLOBBY_STIM/1592351.bmp_pp51_L1_V1.0_veridical_freeview_isoFalse_fps144.mp4",""
"null","","","html-keyboard-response","238","544809","0.0-238.0","ut2jqyy7","","<span style=""color:Black; font-size:50px;"">Agent B","null","","","","",""
"null","","","video-keyboard-response","239","547600","0.0-239.0","ut2jqyy7","","","null","","Agent B","scrambled","FOR_REV_BLOBBY_STIM/1592351.bmp_pp51_L1_V1.0_veridical_freeview_isoFalse_fps144_reversed_REAL.mp4",""
"","","","call-function","240","547601","0.0-240.0","ut2jqyy7","","","","","","","",""
"3808.185000000056","{""judgement"":0}","[0]","survey-likert","241","551410","0.0-241.0","ut2jqyy7","","","","","","","","0"
"1398.6799999999348","{""confidence"":0}","[0]","survey-likert","242","552810","0.0-242.0","ut2jqyy7","","","","","","","",""
"","","","call-function","243","552810","0.0-243.0","ut2jqyy7","","","","","","","",""
"null","","","html-keyboard-response","244","554314","0.0-244.0","ut2jqyy7","","<span style=""color:Black; font-size:50px;"">Agent A","null","","","","",""
"null","","","video-keyboard-response","245","557156","0.0-245.0","ut2jqyy7","","","null","","Agent A","scrambled","FOR_REV_BLOBBY_STIM/713593.bmp_pp64_L1_V1.0_veridical_freeview_isoFalse_fps144_reversed_REAL.mp4",""
"null","","","html-keyboard-response","246","558661","0.0-246.0","ut2jqyy7","","<span style=""color:Black; font-size:50px;"">Agent B","null","","","","",""
"null","","","video-keyboard-response","247","561481","0.0-247.0","ut2jqyy7","","","null","","Agent B","veridical","FOR_REV_BLOBBY_STIM/713593.bmp_pp64_L1_V1.0_veridical_freeview_isoFalse_fps144.mp4",""
"","","","call-function","248","561481","0.0-248.0","ut2jqyy7","","","","","","","",""
"1631.6650000000373","{""judgement"":1}","[0]","survey-likert","249","563114","0.0-249.0","ut2jqyy7","","","","","","","","1"
"1254.8399999999674","{""confidence"":2}","[0]","survey-likert","250","564370","0.0-250.0","ut2jqyy7","","","","","","","",""
"5949.914999999921","","","instructions","251","570321","0.0-251.0","ut2jqyy7","[{""page_index"":0,""viewing_time"":3549.8099999999395},{""page_index"":1,""viewing_time"":1279.9649999999674},{""page_index"":2,""viewing_time"":1119.9850000001024}]","","","","","","",""
"3999.394999999902","","","instructions","252","574321","0.0-252.0","ut2jqyy7","[{""page_index"":0,""viewing_time"":967.1350000000093},{""page_index"":1,""viewing_time"":1600.1449999999022},{""page_index"":2,""viewing_time"":1431.9500000000698}]","","","","","","",""
"","","","call-function","253","574321","0.0-253.0","ut2jqyy7","","","","","","","",""
"null","","","html-keyboard-response","254","575823","0.0-254.0","ut2jqyy7","","<span style=""color:Black; font-size:50px;"">Agent A","null","","","","",""
"null","","","video-keyboard-response","255","579636","0.0-255.0","ut2jqyy7","","","null","","Agent A","veridical","FOR_REV_BLOBBY_STIM/1592804.bmp_pp91_L3_V1.0_veridical_freeview_isoFalse_fps144.mp4",""
"null","","","html-keyboard-response","256","581140","0.0-256.0","ut2jqyy7","","<span style=""color:Black; font-size:50px;"">Agent B","null","","","","",""
"null","","","video-keyboard-response","257","583921","0.0-257.0","ut2jqyy7","","","null","","Agent B","scrambled","FOR_REV_BLOBBY_STIM/1592804.bmp_pp91_L3_V1.0_veridical_freeview_isoFalse_fps144_reversed_REAL.mp4",""
"","","","call-function","258","583922","0.0-258.0","ut2jqyy7","","","","","","","",""
"2535.304999999935","{""judgement"":0}","[0]","survey-likert","259","586458","0.0-259.0","ut2jqyy7","","","","","","","","0"
"1861.829999999958","{""confidence"":1}","[0]","survey-likert","260","588322","0.0-260.0","ut2jqyy7","","","","","","","",""
"","","","call-function","261","588322","0.0-261.0","ut2jqyy7","","","","","","","",""
"null","","","html-keyboard-response","262","589827","0.0-262.0","ut2jqyy7","","<span style=""color:Black; font-size:50px;"">Agent A","null","","","","",""
"null","","","video-keyboard-response","263","592644","0.0-263.0","ut2jqyy7","","","null","","Agent A","scrambled","FOR_REV_BLOBBY_STIM/285751.bmp_pp55_L3_V1.0_veridical_freeview_isoFalse_fps144_reversed_REAL.mp4",""
"null","","","html-keyboard-response","264","594148","0.0-264.0","ut2jqyy7","","<span style=""color:Black; font-size:50px;"">Agent B","null","","","","",""
"null","","","video-keyboard-response","265","596968","0.0-265.0","ut2jqyy7","","","null","","Agent B","veridical","FOR_REV_BLOBBY_STIM/285751.bmp_pp55_L3_V1.0_veridical_freeview_isoFalse_fps144.mp4",""
"","","","call-function","266","596969","0.0-266.0","ut2jqyy7","","","","","","","",""
"1655.7849999999162","{""judgement"":0}","[0]","survey-likert","267","598626","0.0-267.0","ut2jqyy7","","","","","","","","1"
"2614.335000000079","{""confidence"":2}","[0]","survey-likert","268","601242","0.0-268.0","ut2jqyy7","","","","","","","",""
"","","","call-function","269","601243","0.0-269.0","ut2jqyy7","","","","","","","",""
"null","","","html-keyboard-response","270","602749","0.0-270.0","ut2jqyy7","","<span style=""color:Black; font-size:50px;"">Agent A","null","","","","",""
"null","","","video-keyboard-response","271","605539","0.0-271.0","ut2jqyy7","","","null","","Agent A","scrambled","FOR_REV_BLOBBY_STIM/713681.bmp_pp86_L2_V1.0_veridical_freeview_isoFalse_fps144_reversed_REAL.mp4",""
"null","","","html-keyboard-response","272","607040","0.0-272.0","ut2jqyy7","","<span style=""color:Black; font-size:50px;"">Agent B","null","","","","",""
"null","","","video-keyboard-response","273","609826","0.0-273.0","ut2jqyy7","","","null","","Agent B","veridical","FOR_REV_BLOBBY_STIM/713681.bmp_pp86_L2_V1.0_veridical_freeview_isoFalse_fps144.mp4",""
"","","","call-function","274","609827","0.0-274.0","ut2jqyy7","","","","","","","",""
"2093.9599999999627","{""judgement"":1}","[0]","survey-likert","275","611922","0.0-275.0","ut2jqyy7","","","","","","","","1"
"1190.3950000000186","{""confidence"":1}","[0]","survey-likert","276","613114","0.0-276.0","ut2jqyy7","","","","","","","",""
"","","","call-function","277","613115","0.0-277.0","ut2jqyy7","","","","","","","",""
"null","","","html-keyboard-response","278","614618","0.0-278.0","ut2jqyy7","","<span style=""color:Black; font-size:50px;"">Agent A","null","","","","",""
"null","","","video-keyboard-response","279","617145","0.0-279.0","ut2jqyy7","","","null","","Agent A","veridical","FOR_REV_BLOBBY_STIM/1159515.bmp_pp84_L3_V1.0_veridical_freeview_isoFalse_fps144.mp4",""
"null","","","html-keyboard-response","280","618648","0.0-280.0","ut2jqyy7","","<span style=""color:Black; font-size:50px;"">Agent B","null","","","","",""
"null","","","video-keyboard-response","281","621201","0.0-281.0","ut2jqyy7","","","null","","Agent B","scrambled","FOR_REV_BLOBBY_STIM/1159515.bmp_pp84_L3_V1.0_veridical_freeview_isoFalse_fps144_reversed_REAL.mp4",""
"","","","call-function","282","621201","0.0-282.0","ut2jqyy7","","","","","","","",""
"1807.7149999999674","{""judgement"":0}","[0]","survey-likert","283","623010","0.0-283.0","ut2jqyy7","","","","","","","","0"
"1534.625","{""confidence"":3}","[0]","survey-likert","284","624546","0.0-284.0","ut2jqyy7","","","","","","","",""
"","","","call-function","285","624547","0.0-285.0","ut2jqyy7","","","","","","","",""
"null","","","html-keyboard-response","286","626048","0.0-286.0","ut2jqyy7","","<span style=""color:Black; font-size:50px;"">Agent A","null","","","","",""
"null","","","video-keyboard-response","287","628588","0.0-287.0","ut2jqyy7","","","null","","Agent A","veridical","FOR_REV_BLOBBY_STIM/713796.bmp_pp84_L3_V1.0_veridical_freeview_isoFalse_fps144.mp4",""
"null","","","html-keyboard-response","288","630090","0.0-288.0","ut2jqyy7","","<span style=""color:Black; font-size:50px;"">Agent B","null","","","","",""
"null","","","video-keyboard-response","289","632634","0.0-289.0","ut2jqyy7","","","null","","Agent B","scrambled","FOR_REV_BLOBBY_STIM/713796.bmp_pp84_L3_V1.0_veridical_freeview_isoFalse_fps144_reversed_REAL.mp4",""
"","","","call-function","290","632634","0.0-290.0","ut2jqyy7","","","","","","","",""
"1463.2300000000978","{""judgement"":0}","[0]","survey-likert","291","634098","0.0-291.0","ut2jqyy7","","","","","","","","0"
"1374.7149999999674","{""confidence"":3}","[0]","survey-likert","292","635474","0.0-292.0","ut2jqyy7","","","","","","","",""
"","","","call-function","293","635475","0.0-293.0","ut2jqyy7","","","","","","","",""
"null","","","html-keyboard-response","294","636978","0.0-294.0","ut2jqyy7","","<span style=""color:Black; font-size:50px;"">Agent A","null","","","","",""
"null","","","video-keyboard-response","295","639662","0.0-295.0","ut2jqyy7","","","null","","Agent A","veridical","FOR_REV_BLOBBY_STIM/713211.bmp_pp100_L3_V1.0_veridical_freeview_isoFalse_fps144.mp4",""
"null","","","html-keyboard-response","296","641165","0.0-296.0","ut2jqyy7","","<span style=""color:Black; font-size:50px;"">Agent B","null","","","","",""
"null","","","video-keyboard-response","297","643853","0.0-297.0","ut2jqyy7","","","null","","Agent B","scrambled","FOR_REV_BLOBBY_STIM/713211.bmp_pp100_L3_V1.0_veridical_freeview_isoFalse_fps144_reversed_REAL.mp4",""
"","","","call-function","298","643853","0.0-298.0","ut2jqyy7","","","","","","","",""
"1587.704999999958","{""judgement"":0}","[0]","survey-likert","299","645442","0.0-299.0","ut2jqyy7","","","","","","","","0"
"1078.6100000001024","{""confidence"":1}","[0]","survey-likert","300","646522","0.0-300.0","ut2jqyy7","","","","","","","",""
"","","","call-function","301","646523","0.0-301.0","ut2jqyy7","","","","","","","",""
"null","","","html-keyboard-response","302","648025","0.0-302.0","ut2jqyy7","","<span style=""color:Black; font-size:50px;"">Agent A","null","","","","",""
"null","","","video-keyboard-response","303","650667","0.0-303.0","ut2jqyy7","","","null","","Agent A","veridical","FOR_REV_BLOBBY_STIM/61537.bmp_pp73_L3_V1.0_veridical_freeview_isoFalse_fps144.mp4",""
"null","","","html-keyboard-response","304","652170","0.0-304.0","ut2jqyy7","","<span style=""color:Black; font-size:50px;"">Agent B","null","","","","",""
"null","","","video-keyboard-response","305","654803","0.0-305.0","ut2jqyy7","","","null","","Agent B","scrambled","FOR_REV_BLOBBY_STIM/61537.bmp_pp73_L3_V1.0_veridical_freeview_isoFalse_fps144_reversed_REAL.mp4",""
"","","","call-function","306","654804","0.0-306.0","ut2jqyy7","","","","","","","",""
"1549.4150000000373","{""judgement"":0}","[0]","survey-likert","307","656354","0.0-307.0","ut2jqyy7","","","","","","","","0"
"2614.545000000042","{""confidence"":2}","[0]","survey-likert","308","658970","0.0-308.0","ut2jqyy7","","","","","","","",""
"","","","call-function","309","658971","0.0-309.0","ut2jqyy7","","","","","","","",""
"null","","","html-keyboard-response","310","660472","0.0-310.0","ut2jqyy7","","<span style=""color:Black; font-size:50px;"">Agent A","null","","","","",""
"null","","","video-keyboard-response","311","663125","0.0-311.0","ut2jqyy7","","","null","","Agent A","scrambled","FOR_REV_BLOBBY_STIM/498149.bmp_pp99_L2_V1.0_veridical_freeview_isoFalse_fps144_reversed_REAL.mp4",""
"null","","","html-keyboard-response","312","664629","0.0-312.0","ut2jqyy7","","<span style=""color:Black; font-size:50px;"">Agent B","null","","","","",""
"null","","","video-keyboard-response","313","667279","0.0-313.0","ut2jqyy7","","","null","","Agent B","veridical","FOR_REV_BLOBBY_STIM/498149.bmp_pp99_L2_V1.0_veridical_freeview_isoFalse_fps144.mp4",""
"","","","call-function","314","667279","0.0-314.0","ut2jqyy7","","","","","","","",""
"1946.3400000000838","{""judgement"":1}","[0]","survey-likert","315","669226","0.0-315.0","ut2jqyy7","","","","","","","","1"
"1421.9899999999907","{""confidence"":2}","[0]","survey-likert","316","670650","0.0-316.0","ut2jqyy7","","","","","","","",""
"","","","call-function","317","670651","0.0-317.0","ut2jqyy7","","","","","","","",""
"null","","","html-keyboard-response","318","672153","0.0-318.0","ut2jqyy7","","<span style=""color:Black; font-size:50px;"">Agent A","null","","","","",""
"null","","","video-keyboard-response","319","674990","0.0-319.0","ut2jqyy7","","","null","","Agent A","veridical","FOR_REV_BLOBBY_STIM/1160127.bmp_pp90_L2_V1.0_veridical_freeview_isoFalse_fps144.mp4",""
"null","","","html-keyboard-response","320","676493","0.0-320.0","ut2jqyy7","","<span style=""color:Black; font-size:50px;"">Agent B","null","","","","",""
"null","","","video-keyboard-response","321","679327","0.0-321.0","ut2jqyy7","","","null","","Agent B","scrambled","FOR_REV_BLOBBY_STIM/1160127.bmp_pp90_L2_V1.0_veridical_freeview_isoFalse_fps144_reversed_REAL.mp4",""
"","","","call-function","322","679327","0.0-322.0","ut2jqyy7","","","","","","","",""
"1785.8300000000745","{""judgement"":1}","[0]","survey-likert","323","681114","0.0-323.0","ut2jqyy7","","","","","","","","0"
"3142.625","{""confidence"":1}","[0]","survey-likert","324","684258","0.0-324.0","ut2jqyy7","","","","","","","",""
"","","","call-function","325","684259","0.0-325.0","ut2jqyy7","","","","","","","",""
"null","","","html-keyboard-response","326","685760","0.0-326.0","ut2jqyy7","","<span style=""color:Black; font-size:50px;"">Agent A","null","","","","",""
"null","","","video-keyboard-response","327","688562","0.0-327.0","ut2jqyy7","","","null","","Agent A","veridical","FOR_REV_BLOBBY_STIM/1159784.bmp_pp73_L3_V1.0_veridical_freeview_isoFalse_fps144.mp4",""
"null","","","html-keyboard-response","328","690065","0.0-328.0","ut2jqyy7","","<span style=""color:Black; font-size:50px;"">Agent B","null","","","","",""
"null","","","video-keyboard-response","329","692878","0.0-329.0","ut2jqyy7","","","null","","Agent B","scrambled","FOR_REV_BLOBBY_STIM/1159784.bmp_pp73_L3_V1.0_veridical_freeview_isoFalse_fps144_reversed_REAL.mp4",""
"","","","call-function","330","692878","0.0-330.0","ut2jqyy7","","","","","","","",""
"2898.7799999999115","{""judgement"":1}","[0]","survey-likert","331","695778","0.0-331.0","ut2jqyy7","","","","","","","","0"
"1806.6199999999953","{""confidence"":0}","[0]","survey-likert","332","697586","0.0-332.0","ut2jqyy7","","","","","","","",""
"62846.28000000003","","","instructions","333","760433","0.0-333.0","ut2jqyy7","[{""page_index"":0,""viewing_time"":6314.765000000014},{""page_index"":1,""viewing_time"":868.8399999999674},{""page_index"":2,""viewing_time"":55662.41500000004}]","","","","","","",""
"11006.675000000047","","","instructions","334","771441","0.0-334.0","ut2jqyy7","[{""page_index"":0,""viewing_time"":9081.094999999972},{""page_index"":1,""viewing_time"":941.4300000000512},{""page_index"":2,""viewing_time"":983.9350000000559}]","","","","","","",""
"","","","call-function","335","771442","0.0-335.0","ut2jqyy7","","","","","","","",""
"null","","","html-keyboard-response","336","772948","0.0-336.0","ut2jqyy7","","<span style=""color:Black; font-size:50px;"">Agent A","null","","","","",""
"null","","","video-keyboard-response","337","775533","0.0-337.0","ut2jqyy7","","","null","","Agent A","scrambled","FOR_REV_BLOBBY_STIM/1593146.bmp_pp93_L1_V1.0_veridical_freeview_isoFalse_fps144_reversed_REAL.mp4",""
"null","","","html-keyboard-response","338","777038","0.0-338.0","ut2jqyy7","","<span style=""color:Black; font-size:50px;"">Agent B","null","","","","",""
"null","","","video-keyboard-response","339","779624","0.0-339.0","ut2jqyy7","","","null","","Agent B","veridical","FOR_REV_BLOBBY_STIM/1593146.bmp_pp93_L1_V1.0_veridical_freeview_isoFalse_fps144.mp4",""
"","","","call-function","340","779625","0.0-340.0","ut2jqyy7","","","","","","","",""
"5240.539999999921","{""judgement"":0}","[0]","survey-likert","341","784866","0.0-341.0","ut2jqyy7","","","","","","","","1"
"1830.4000000000233","{""confidence"":0}","[0]","survey-likert","342","786698","0.0-342.0","ut2jqyy7","","","","","","","",""
"","","","call-function","343","786699","0.0-343.0","ut2jqyy7","","","","","","","",""
"null","","","html-keyboard-response","344","788205","0.0-344.0","ut2jqyy7","","<span style=""color:Black; font-size:50px;"">Agent A","null","","","","",""
"null","","","video-keyboard-response","345","790977","0.0-345.0","ut2jqyy7","","","null","","Agent A","scrambled","FOR_REV_BLOBBY_STIM/1159768.bmp_pp89_L1_V1.0_veridical_freeview_isoFalse_fps144_reversed_REAL.mp4",""
"null","","","html-keyboard-response","346","792479","0.0-346.0","ut2jqyy7","","<span style=""color:Black; font-size:50px;"">Agent B","null","","","","",""
"null","","","video-keyboard-response","347","795275","0.0-347.0","ut2jqyy7","","","null","","Agent B","veridical","FOR_REV_BLOBBY_STIM/1159768.bmp_pp89_L1_V1.0_veridical_freeview_isoFalse_fps144.mp4",""
"","","","call-function","348","795276","0.0-348.0","ut2jqyy7","","","","","","","",""
"1981.5550000000512","{""judgement"":0}","[0]","survey-likert","349","797258","0.0-349.0","ut2jqyy7","","","","","","","","1"
"1150.8450000000885","{""confidence"":0}","[0]","survey-likert","350","798410","0.0-350.0","ut2jqyy7","","","","","","","",""
"","","","call-function","351","798411","0.0-351.0","ut2jqyy7","","","","","","","",""
"null","","","html-keyboard-response","352","799914","0.0-352.0","ut2jqyy7","","<span style=""color:Black; font-size:50px;"">Agent A","null","","","","",""
"null","","","video-keyboard-response","353","802732","0.0-353.0","ut2jqyy7","","","null","","Agent A","veridical","FOR_REV_BLOBBY_STIM/1592362.bmp_pp95_L2_V1.0_veridical_freeview_isoFalse_fps144.mp4",""
"null","","","html-keyboard-response","354","804237","0.0-354.0","ut2jqyy7","","<span style=""color:Black; font-size:50px;"">Agent B","null","","","","",""
"null","","","video-keyboard-response","355","807054","0.0-355.0","ut2jqyy7","","","null","","Agent B","scrambled","FOR_REV_BLOBBY_STIM/1592362.bmp_pp95_L2_V1.0_veridical_freeview_isoFalse_fps144_reversed_REAL.mp4",""
"","","","call-function","356","807054","0.0-356.0","ut2jqyy7","","","","","","","",""
"1258.859999999986","{""judgement"":0}","[0]","survey-likert","357","808314","0.0-357.0","ut2jqyy7","","","","","","","","0"
"1886.5500000000466","{""confidence"":3}","[0]","survey-likert","358","810202","0.0-358.0","ut2jqyy7","","","","","","","",""
"","","","call-function","359","810203","0.0-359.0","ut2jqyy7","","","","","","","",""
"null","","","html-keyboard-response","360","811705","0.0-360.0","ut2jqyy7","","<span style=""color:Black; font-size:50px;"">Agent A","null","","","","",""
"null","","","video-keyboard-response","361","814503","0.0-361.0","ut2jqyy7","","","null","","Agent A","scrambled","FOR_REV_BLOBBY_STIM/1592890.bmp_pp82_L2_V1.0_veridical_freeview_isoFalse_fps144_reversed_REAL.mp4",""
"null","","","html-keyboard-response","362","816006","0.0-362.0","ut2jqyy7","","<span style=""color:Black; font-size:50px;"">Agent B","null","","","","",""
"null","","","video-keyboard-response","363","818809","0.0-363.0","ut2jqyy7","","","null","","Agent B","veridical","FOR_REV_BLOBBY_STIM/1592890.bmp_pp82_L2_V1.0_veridical_freeview_isoFalse_fps144.mp4",""
"","","","call-function","364","818809","0.0-364.0","ut2jqyy7","","","","","","","",""
"1472.890000000014","{""judgement"":1}","[0]","survey-likert","365","820283","0.0-365.0","ut2jqyy7","","","","","","","","1"
"1253.4099999999162","{""confidence"":2}","[0]","survey-likert","366","821538","0.0-366.0","ut2jqyy7","","","","","","","",""
"","","","call-function","367","821539","0.0-367.0","ut2jqyy7","","","","","","","",""
"null","","","html-keyboard-response","368","823041","0.0-368.0","ut2jqyy7","","<span style=""color:Black; font-size:50px;"">Agent A","null","","","","",""
"null","","","video-keyboard-response","369","825627","0.0-369.0","ut2jqyy7","","","null","","Agent A","scrambled","FOR_REV_BLOBBY_STIM/1592397.bmp_pp85_L3_V1.0_veridical_freeview_isoFalse_fps144_reversed_REAL.mp4",""
"null","","","html-keyboard-response","370","827134","0.0-370.0","ut2jqyy7","","<span style=""color:Black; font-size:50px;"">Agent B","null","","","","",""
"null","","","video-keyboard-response","371","829721","0.0-371.0","ut2jqyy7","","","null","","Agent B","veridical","FOR_REV_BLOBBY_STIM/1592397.bmp_pp85_L3_V1.0_veridical_freeview_isoFalse_fps144.mp4",""
"","","","call-function","372","829721","0.0-372.0","ut2jqyy7","","","","","","","",""
"1647.9899999999907","{""judgement"":0}","[0]","survey-likert","373","831370","0.0-373.0","ut2jqyy7","","","","","","","","1"
"1198.7550000000047","{""confidence"":2}","[0]","survey-likert","374","832570","0.0-374.0","ut2jqyy7","","","","","","","",""
"","","","call-function","375","832571","0.0-375.0","ut2jqyy7","","","","","","","",""
"null","","","html-keyboard-response","376","834077","0.0-376.0","ut2jqyy7","","<span style=""color:Black; font-size:50px;"">Agent A","null","","","","",""
"null","","","video-keyboard-response","377","836787","0.0-377.0","ut2jqyy7","","","null","","Agent A","scrambled","FOR_REV_BLOBBY_STIM/1592727.bmp_pp59_L3_V1.0_veridical_freeview_isoFalse_fps144_reversed_REAL.mp4",""
"null","","","html-keyboard-response","378","838290","0.0-378.0","ut2jqyy7","","<span style=""color:Black; font-size:50px;"">Agent B","null","","","","",""
"null","","","video-keyboard-response","379","840975","0.0-379.0","ut2jqyy7","","","null","","Agent B","veridical","FOR_REV_BLOBBY_STIM/1592727.bmp_pp59_L3_V1.0_veridical_freeview_isoFalse_fps144.mp4",""
"","","","call-function","380","840976","0.0-380.0","ut2jqyy7","","","","","","","",""
"1673.4449999999488","{""judgement"":0}","[0]","survey-likert","381","842650","0.0-381.0","ut2jqyy7","","","","","","","","1"
"1334.5050000000047","{""confidence"":1}","[0]","survey-likert","382","843986","0.0-382.0","ut2jqyy7","","","","","","","",""
"","","","call-function","383","843987","0.0-383.0","ut2jqyy7","","","","","","","",""
"null","","","html-keyboard-response","384","845490","0.0-384.0","ut2jqyy7","","<span style=""color:Black; font-size:50px;"">Agent A","null","","","","",""
"null","","","video-keyboard-response","385","848189","0.0-385.0","ut2jqyy7","","","null","","Agent A","scrambled","FOR_REV_BLOBBY_STIM/1592817.bmp_pp55_L3_V1.0_veridical_freeview_isoFalse_fps144_reversed_REAL.mp4",""
"null","","","html-keyboard-response","386","849694","0.0-386.0","ut2jqyy7","","<span style=""color:Black; font-size:50px;"">Agent B","null","","","","",""
"null","","","video-keyboard-response","387","852418","0.0-387.0","ut2jqyy7","","","null","","Agent B","veridical","FOR_REV_BLOBBY_STIM/1592817.bmp_pp55_L3_V1.0_veridical_freeview_isoFalse_fps144.mp4",""
"","","","call-function","388","852419","0.0-388.0","ut2jqyy7","","","","","","","",""
"1326.3100000000559","{""judgement"":1}","[0]","survey-likert","389","853746","0.0-389.0","ut2jqyy7","","","","","","","","1"
"1790.7799999999115","{""confidence"":2}","[0]","survey-likert","390","855539","0.0-390.0","ut2jqyy7","","","","","","","",""
"","","","call-function","391","855540","0.0-391.0","ut2jqyy7","","","","","","","",""
"null","","","html-keyboard-response","392","857043","0.0-392.0","ut2jqyy7","","<span style=""color:Black; font-size:50px;"">Agent A","null","","","","",""
"null","","","video-keyboard-response","393","859862","0.0-393.0","ut2jqyy7","","","null","","Agent A","veridical","FOR_REV_BLOBBY_STIM/1592807.bmp_pp68_L1_V1.0_veridical_freeview_isoFalse_fps144.mp4",""
"null","","","html-keyboard-response","394","861365","0.0-394.0","ut2jqyy7","","<span style=""color:Black; font-size:50px;"">Agent B","null","","","","",""
"null","","","video-keyboard-response","395","864208","0.0-395.0","ut2jqyy7","","","null","","Agent B","scrambled","FOR_REV_BLOBBY_STIM/1592807.bmp_pp68_L1_V1.0_veridical_freeview_isoFalse_fps144_reversed_REAL.mp4",""
"","","","call-function","396","864209","0.0-396.0","ut2jqyy7","","","","","","","",""
"1600.594999999972","{""judgement"":1}","[0]","survey-likert","397","865810","0.0-397.0","ut2jqyy7","","","","","","","","0"
"1255.0200000000186","{""confidence"":0}","[0]","survey-likert","398","867067","0.0-398.0","ut2jqyy7","","","","","","","",""
"","","","call-function","399","867067","0.0-399.0","ut2jqyy7","","","","","","","",""
"null","","","html-keyboard-response","400","868570","0.0-400.0","ut2jqyy7","","<span style=""color:Black; font-size:50px;"">Agent A","null","","","","",""
"null","","","video-keyboard-response","401","871430","0.0-401.0","ut2jqyy7","","","null","","Agent A","scrambled","FOR_REV_BLOBBY_STIM/1591961.bmp_pp67_L2_V1.0_veridical_freeview_isoFalse_fps144_reversed_REAL.mp4",""
"null","","","html-keyboard-response","402","872931","0.0-402.0","ut2jqyy7","","<span style=""color:Black; font-size:50px;"">Agent B","null","","","","",""
"null","","","video-keyboard-response","403","875771","0.0-403.0","ut2jqyy7","","","null","","Agent B","veridical","FOR_REV_BLOBBY_STIM/1591961.bmp_pp67_L2_V1.0_veridical_freeview_isoFalse_fps144.mp4",""
"","","","call-function","404","875772","0.0-404.0","ut2jqyy7","","","","","","","",""
"2013.7600000000093","{""judgement"":1}","[0]","survey-likert","405","877786","0.0-405.0","ut2jqyy7","","","","","","","","1"
"3206.6199999999953","{""confidence"":0}","[0]","survey-likert","406","880994","0.0-406.0","ut2jqyy7","","","","","","","",""
"","","","call-function","407","880995","0.0-407.0","ut2jqyy7","","","","","","","",""
"null","","","html-keyboard-response","408","882499","0.0-408.0","ut2jqyy7","","<span style=""color:Black; font-size:50px;"">Agent A","null","","","","",""
"null","","","video-keyboard-response","409","885369","0.0-409.0","ut2jqyy7","","","null","","Agent A","scrambled","FOR_REV_BLOBBY_STIM/1159572.bmp_pp71_L1_V1.0_veridical_freeview_isoFalse_fps144_reversed_REAL.mp4",""
"null","","","html-keyboard-response","410","886874","0.0-410.0","ut2jqyy7","","<span style=""color:Black; font-size:50px;"">Agent B","null","","","","",""
"null","","","video-keyboard-response","411","889743","0.0-411.0","ut2jqyy7","","","null","","Agent B","veridical","FOR_REV_BLOBBY_STIM/1159572.bmp_pp71_L1_V1.0_veridical_freeview_isoFalse_fps144.mp4",""
"","","","call-function","412","889743","0.0-412.0","ut2jqyy7","","","","","","","",""
"1242.2449999999953","{""judgement"":1}","[0]","survey-likert","413","890986","0.0-413.0","ut2jqyy7","","","","","","","","1"
"1654.7850000000326","{""confidence"":3}","[0]","survey-likert","414","892642","0.0-414.0","ut2jqyy7","","","","","","","",""
"7822.130000000005","","","instructions","415","900465","0.0-415.0","ut2jqyy7","[{""page_index"":0,""viewing_time"":2037.9899999999907},{""page_index"":1,""viewing_time"":4448.020000000019},{""page_index"":2,""viewing_time"":1335.9649999999674}]","","","","","","",""
"9623.150000000023","","","instructions","416","910089","0.0-416.0","ut2jqyy7","[{""page_index"":0,""viewing_time"":6095.035000000033},{""page_index"":1,""viewing_time"":2424.1199999999953},{""page_index"":2,""viewing_time"":1103.829999999958}]","","","","","","",""
"","","","call-function","417","910090","0.0-417.0","ut2jqyy7","","","","","","","",""
"null","","","html-keyboard-response","418","911592","0.0-418.0","ut2jqyy7","","<span style=""color:Black; font-size:50px;"">Agent A","null","","","","",""
"null","","","video-keyboard-response","419","914122","0.0-419.0","ut2jqyy7","","","null","","Agent A","scrambled","FOR_REV_BLOBBY_STIM/1591876.bmp_pp63_L1_V1.0_veridical_freeview_isoFalse_fps144_reversed_REAL.mp4",""
"null","","","html-keyboard-response","420","915623","0.0-420.0","ut2jqyy7","","<span style=""color:Black; font-size:50px;"">Agent B","null","","","","",""
"null","","","video-keyboard-response","421","918154","0.0-421.0","ut2jqyy7","","","null","","Agent B","veridical","FOR_REV_BLOBBY_STIM/1591876.bmp_pp63_L1_V1.0_veridical_freeview_isoFalse_fps144.mp4",""
"","","","call-function","422","918154","0.0-422.0","ut2jqyy7","","","","","","","",""
"1287.1500000000233","{""judgement"":1}","[0]","survey-likert","423","919442","0.0-423.0","ut2jqyy7","","","","","","","","1"
"1790.579999999958","{""confidence"":3}","[0]","survey-likert","424","921234","0.0-424.0","ut2jqyy7","","","","","","","",""
"","","","call-function","425","921235","0.0-425.0","ut2jqyy7","","","","","","","",""
"null","","","html-keyboard-response","426","922741","0.0-426.0","ut2jqyy7","","<span style=""color:Black; font-size:50px;"">Agent A","null","","","","",""
"null","","","video-keyboard-response","427","925553","0.0-427.0","ut2jqyy7","","","null","","Agent A","scrambled","FOR_REV_BLOBBY_STIM/712977.bmp_pp51_L1_V1.0_veridical_freeview_isoFalse_fps144_reversed_REAL.mp4",""
"null","","","html-keyboard-response","428","927059","0.0-428.0","ut2jqyy7","","<span style=""color:Black; font-size:50px;"">Agent B","null","","","","",""
"null","","","video-keyboard-response","429","929891","0.0-429.0","ut2jqyy7","","","null","","Agent B","veridical","FOR_REV_BLOBBY_STIM/712977.bmp_pp51_L1_V1.0_veridical_freeview_isoFalse_fps144.mp4",""
"","","","call-function","430","929891","0.0-430.0","ut2jqyy7","","","","","","","",""
"1157.9949999999953","{""judgement"":1}","[0]","survey-likert","431","931050","0.0-431.0","ut2jqyy7","","","","","","","","1"
"1526.9299999999348","{""confidence"":2}","[0]","survey-likert","432","932579","0.0-432.0","ut2jqyy7","","","","","","","",""
"","","","call-function","433","932579","0.0-433.0","ut2jqyy7","","","","","","","",""
"null","","","html-keyboard-response","434","934080","0.0-434.0","ut2jqyy7","","<span style=""color:Black; font-size:50px;"">Agent A","null","","","","",""
"null","","","video-keyboard-response","435","936916","0.0-435.0","ut2jqyy7","","","null","","Agent A","veridical","FOR_REV_BLOBBY_STIM/713371.bmp_pp68_L1_V1.0_veridical_freeview_isoFalse_fps144.mp4",""
"null","","","html-keyboard-response","436","938421","0.0-436.0","ut2jqyy7","","<span style=""color:Black; font-size:50px;"">Agent B","null","","","","",""
"null","","","video-keyboard-response","437","941259","0.0-437.0","ut2jqyy7","","","null","","Agent B","scrambled","FOR_REV_BLOBBY_STIM/713371.bmp_pp68_L1_V1.0_veridical_freeview_isoFalse_fps144_reversed_REAL.mp4",""
"","","","call-function","438","941259","0.0-438.0","ut2jqyy7","","","","","","","",""
"1590.170000000042","{""judgement"":0}","[0]","survey-likert","439","942850","0.0-439.0","ut2jqyy7","","","","","","","","0"
"1526.6450000000186","{""confidence"":2}","[0]","survey-likert","440","944379","0.0-440.0","ut2jqyy7","","","","","","","",""
"","","","call-function","441","944379","0.0-441.0","ut2jqyy7","","","","","","","",""
"null","","","html-keyboard-response","442","945884","0.0-442.0","ut2jqyy7","","<span style=""color:Black; font-size:50px;"">Agent A","null","","","","",""
"null","","","video-keyboard-response","443","948575","0.0-443.0","ut2jqyy7","","","null","","Agent A","scrambled","FOR_REV_BLOBBY_STIM/1592133.bmp_pp75_L1_V1.0_veridical_freeview_isoFalse_fps144_reversed_REAL.mp4",""
"null","","","html-keyboard-response","444","950080","0.0-444.0","ut2jqyy7","","<span style=""color:Black; font-size:50px;"">Agent B","null","","","","",""
"null","","","video-keyboard-response","445","952771","0.0-445.0","ut2jqyy7","","","null","","Agent B","veridical","FOR_REV_BLOBBY_STIM/1592133.bmp_pp75_L1_V1.0_veridical_freeview_isoFalse_fps144.mp4",""
"","","","call-function","446","952771","0.0-446.0","ut2jqyy7","","","","","","","",""
"3902.2600000000093","{""judgement"":0}","[0]","survey-likert","447","956674","0.0-447.0","ut2jqyy7","","","","","","","","1"
"1214.5499999999302","{""confidence"":0}","[0]","survey-likert","448","957890","0.0-448.0","ut2jqyy7","","","","","","","",""
"","","","call-function","449","957891","0.0-449.0","ut2jqyy7","","","","","","","",""
"null","","","html-keyboard-response","450","959392","0.0-450.0","ut2jqyy7","","<span style=""color:Black; font-size:50px;"">Agent A","null","","","","",""
"null","","","video-keyboard-response","451","962225","0.0-451.0","ut2jqyy7","","","null","","Agent A","veridical","FOR_REV_BLOBBY_STIM/1159882.bmp_pp61_L2_V1.0_veridical_freeview_isoFalse_fps144.mp4",""
"null","","","html-keyboard-response","452","963730","0.0-452.0","ut2jqyy7","","<span style=""color:Black; font-size:50px;"">Agent B","null","","","","",""
"null","","","video-keyboard-response","453","966571","0.0-453.0","ut2jqyy7","","","null","","Agent B","scrambled","FOR_REV_BLOBBY_STIM/1159882.bmp_pp61_L2_V1.0_veridical_freeview_isoFalse_fps144_reversed_REAL.mp4",""
"","","","call-function","454","966572","0.0-454.0","ut2jqyy7","","","","","","","",""
"1845.9799999999814","{""judgement"":0}","[0]","survey-likert","455","968418","0.0-455.0","ut2jqyy7","","","","","","","","0"
"1030.5350000000326","{""confidence"":1}","[0]","survey-likert","456","969450","0.0-456.0","ut2jqyy7","","","","","","","",""
"","","","call-function","457","969452","0.0-457.0","ut2jqyy7","","","","","","","",""
"null","","","html-keyboard-response","458","970954","0.0-458.0","ut2jqyy7","","<span style=""color:Black; font-size:50px;"">Agent A","null","","","","",""
"null","","","video-keyboard-response","459","973758","0.0-459.0","ut2jqyy7","","","null","","Agent A","veridical","FOR_REV_BLOBBY_STIM/713135.bmp_pp54_L2_V1.0_veridical_freeview_isoFalse_fps144.mp4",""
"null","","","html-keyboard-response","460","975264","0.0-460.0","ut2jqyy7","","<span style=""color:Black; font-size:50px;"">Agent B","null","","","","",""
"null","","","video-keyboard-response","461","978037","0.0-461.0","ut2jqyy7","","","null","","Agent B","scrambled","FOR_REV_BLOBBY_STIM/713135.bmp_pp54_L2_V1.0_veridical_freeview_isoFalse_fps144_reversed_REAL.mp4",""
"","","","call-function","462","978037","0.0-462.0","ut2jqyy7","","","","","","","",""
"1836.359999999986","{""judgement"":0}","[0]","survey-likert","463","979874","0.0-463.0","ut2jqyy7","","","","","","","","0"
"1206.5899999999674","{""confidence"":2}","[0]","survey-likert","464","981082","0.0-464.0","ut2jqyy7","","","","","","","",""
"","","","call-function","465","981083","0.0-465.0","ut2jqyy7","","","","","","","",""
"null","","","html-keyboard-response","466","982584","0.0-466.0","ut2jqyy7","","<span style=""color:Black; font-size:50px;"">Agent A","null","","","","",""
"null","","","video-keyboard-response","467","985124","0.0-467.0","ut2jqyy7","","","null","","Agent A","veridical","FOR_REV_BLOBBY_STIM/713760.bmp_pp81_L1_V1.0_veridical_freeview_isoFalse_fps144.mp4",""
"null","","","html-keyboard-response","468","986626","0.0-468.0","ut2jqyy7","","<span style=""color:Black; font-size:50px;"">Agent B","null","","","","",""
"null","","","video-keyboard-response","469","989207","0.0-469.0","ut2jqyy7","","","null","","Agent B","scrambled","FOR_REV_BLOBBY_STIM/713760.bmp_pp81_L1_V1.0_veridical_freeview_isoFalse_fps144_reversed_REAL.mp4",""
"","","","call-function","470","989208","0.0-470.0","ut2jqyy7","","","","","","","",""
"1457.9000000000233","{""judgement"":0}","[0]","survey-likert","471","990667","0.0-471.0","ut2jqyy7","","","","","","","","0"
"1190.2300000000978","{""confidence"":2}","[0]","survey-likert","472","991858","0.0-472.0","ut2jqyy7","","","","","","","",""
"","","","call-function","473","991859","0.0-473.0","ut2jqyy7","","","","","","","",""
"null","","","html-keyboard-response","474","993361","0.0-474.0","ut2jqyy7","","<span style=""color:Black; font-size:50px;"">Agent A","null","","","","",""
"null","","","video-keyboard-response","475","996180","0.0-475.0","ut2jqyy7","","","null","","Agent A","veridical","FOR_REV_BLOBBY_STIM/1159440.bmp_pp98_L1_V1.0_veridical_freeview_isoFalse_fps144.mp4",""
"null","","","html-keyboard-response","476","997681","0.0-476.0","ut2jqyy7","","<span style=""color:Black; font-size:50px;"">Agent B","null","","","","",""
"null","","","video-keyboard-response","477","1000500","0.0-477.0","ut2jqyy7","","","null","","Agent B","scrambled","FOR_REV_BLOBBY_STIM/1159440.bmp_pp98_L1_V1.0_veridical_freeview_isoFalse_fps144_reversed_REAL.mp4",""
"","","","call-function","478","1000500","0.0-478.0","ut2jqyy7","","","","","","","",""
"1501.0500000000466","{""judgement"":0}","[0]","survey-likert","479","1002002","0.0-479.0","ut2jqyy7","","","","","","","","0"
"1143.0250000000233","{""confidence"":1}","[0]","survey-likert","480","1003147","0.0-480.0","ut2jqyy7","","","","","","","",""
"","","","call-function","481","1003147","0.0-481.0","ut2jqyy7","","","","","","","",""
"null","","","html-keyboard-response","482","1004650","0.0-482.0","ut2jqyy7","","<span style=""color:Black; font-size:50px;"">Agent A","null","","","","",""
"null","","","video-keyboard-response","483","1007444","0.0-483.0","ut2jqyy7","","","null","","Agent A","scrambled","FOR_REV_BLOBBY_STIM/1159855.bmp_pp99_L2_V1.0_veridical_freeview_isoFalse_fps144_reversed_REAL.mp4",""
"null","","","html-keyboard-response","484","1008947","0.0-484.0","ut2jqyy7","","<span style=""color:Black; font-size:50px;"">Agent B","null","","","","",""
"null","","","video-keyboard-response","485","1011738","0.0-485.0","ut2jqyy7","","","null","","Agent B","veridical","FOR_REV_BLOBBY_STIM/1159855.bmp_pp99_L2_V1.0_veridical_freeview_isoFalse_fps144.mp4",""
"","","","call-function","486","1011738","0.0-486.0","ut2jqyy7","","","","","","","",""
"2679","{""judgement"":1}","[0]","survey-likert","487","1014419","0.0-487.0","ut2jqyy7","","","","","","","","1"
"1046.3400000000838","{""confidence"":0}","[0]","survey-likert","488","1015466","0.0-488.0","ut2jqyy7","","","","","","","",""
"","","","call-function","489","1015467","0.0-489.0","ut2jqyy7","","","","","","","",""
"null","","","html-keyboard-response","490","1016968","0.0-490.0","ut2jqyy7","","<span style=""color:Black; font-size:50px;"">Agent A","null","","","","",""
"null","","","video-keyboard-response","491","1019743","0.0-491.0","ut2jqyy7","","","null","","Agent A","scrambled","FOR_REV_BLOBBY_STIM/498155.bmp_pp61_L2_V1.0_veridical_freeview_isoFalse_fps144_reversed_REAL.mp4",""
"null","","","html-keyboard-response","492","1021244","0.0-492.0","ut2jqyy7","","<span style=""color:Black; font-size:50px;"">Agent B","null","","","","",""
"null","","","video-keyboard-response","493","1024017","0.0-493.0","ut2jqyy7","","","null","","Agent B","veridical","FOR_REV_BLOBBY_STIM/498155.bmp_pp61_L2_V1.0_veridical_freeview_isoFalse_fps144.mp4",""
"","","","call-function","494","1024017","0.0-494.0","ut2jqyy7","","","","","","","",""
"1736.3950000000186","{""judgement"":1}","[0]","survey-likert","495","1025755","0.0-495.0","ut2jqyy7","","","","","","","","1"
"1326.6199999999953","{""confidence"":3}","[0]","survey-likert","496","1027082","0.0-496.0","ut2jqyy7","","","","","","","",""
"55518.34499999997","","","instructions","497","1082602","0.0-497.0","ut2jqyy7","[{""page_index"":0,""viewing_time"":1038.0500000000466},{""page_index"":1,""viewing_time"":52736.205000000075},{""page_index"":2,""viewing_time"":1743.8349999999627}]","","","","","","",""
"7301.540000000037","","","instructions","498","1089906","0.0-498.0","ut2jqyy7","[{""page_index"":0,""viewing_time"":1045.6599999999162},{""page_index"":1,""viewing_time"":5175.810000000056},{""page_index"":2,""viewing_time"":1079.9250000000466}]","","","","","","",""
"","","","call-function","499","1089907","0.0-499.0","ut2jqyy7","","","","","","","",""
"null","","","html-keyboard-response","500","1091411","0.0-500.0","ut2jqyy7","","<span style=""color:Black; font-size:50px;"">Agent A","null","","","","",""
"null","","","video-keyboard-response","501","1094132","0.0-501.0","ut2jqyy7","","","null","","Agent A","veridical","FOR_REV_BLOBBY_STIM/1159446.bmp_pp60_L3_V1.0_veridical_freeview_isoFalse_fps144.mp4",""
"null","","","html-keyboard-response","502","1095633","0.0-502.0","ut2jqyy7","","<span style=""color:Black; font-size:50px;"">Agent B","null","","","","",""
"null","","","video-keyboard-response","503","1098350","0.0-503.0","ut2jqyy7","","","null","","Agent B","scrambled","FOR_REV_BLOBBY_STIM/1159446.bmp_pp60_L3_V1.0_veridical_freeview_isoFalse_fps144_reversed_REAL.mp4",""
"","","","call-function","504","1098351","0.0-504.0","ut2jqyy7","","","","","","","",""
"6812.84999999986","{""judgement"":0}","[0]","survey-likert","505","1105165","0.0-505.0","ut2jqyy7","","","","","","","","0"
"2004.969999999972","{""confidence"":1}","[0]","survey-likert","506","1107171","0.0-506.0","ut2jqyy7","","","","","","","",""
"","","","call-function","507","1107172","0.0-507.0","ut2jqyy7","","","","","","","",""
"null","","","html-keyboard-response","508","1108673","0.0-508.0","ut2jqyy7","","<span style=""color:Black; font-size:50px;"">Agent A","null","","","","",""
"null","","","video-keyboard-response","509","1111475","0.0-509.0","ut2jqyy7","","","null","","Agent A","veridical","FOR_REV_BLOBBY_STIM/498175.bmp_pp154_L1_V1.0_veridical_freeview_isoFalse_fps144.mp4",""
"null","","","html-keyboard-response","510","1112977","0.0-510.0","ut2jqyy7","","<span style=""color:Black; font-size:50px;"">Agent B","null","","","","",""
"null","","","video-keyboard-response","511","1115793","0.0-511.0","ut2jqyy7","","","null","","Agent B","scrambled","FOR_REV_BLOBBY_STIM/498175.bmp_pp154_L1_V1.0_veridical_freeview_isoFalse_fps144_reversed_REAL.mp4",""
"","","","call-function","512","1115793","0.0-512.0","ut2jqyy7","","","","","","","",""
"1225.0049999998882","{""judgement"":0}","[0]","survey-likert","513","1117019","0.0-513.0","ut2jqyy7","","","","","","","","0"
"1814.2600000000093","{""confidence"":3}","[0]","survey-likert","514","1118835","0.0-514.0","ut2jqyy7","","","","","","","",""
"","","","call-function","515","1118836","0.0-515.0","ut2jqyy7","","","","","","","",""
"null","","","html-keyboard-response","516","1120338","0.0-516.0","ut2jqyy7","","<span style=""color:Black; font-size:50px;"">Agent A","null","","","","",""
"null","","","video-keyboard-response","517","1122884","0.0-517.0","ut2jqyy7","","","null","","Agent A","veridical","FOR_REV_BLOBBY_STIM/1159813.bmp_pp79_L2_V1.0_veridical_freeview_isoFalse_fps144.mp4",""
"null","","","html-keyboard-response","518","1124387","0.0-518.0","ut2jqyy7","","<span style=""color:Black; font-size:50px;"">Agent B","null","","","","",""
"null","","","video-keyboard-response","519","1126932","0.0-519.0","ut2jqyy7","","","null","","Agent B","scrambled","FOR_REV_BLOBBY_STIM/1159813.bmp_pp79_L2_V1.0_veridical_freeview_isoFalse_fps144_reversed_REAL.mp4",""
"","","","call-function","520","1126932","0.0-520.0","ut2jqyy7","","","","","","","",""
"2677.1200000001118","{""judgement"":1}","[0]","survey-likert","521","1129611","0.0-521.0","ut2jqyy7","","","","","","","","0"
"1695.0349999999162","{""confidence"":2}","[0]","survey-likert","522","1131307","0.0-522.0","ut2jqyy7","","","","","","","",""
"","","","call-function","523","1131308","0.0-523.0","ut2jqyy7","","","","","","","",""
"null","","","html-keyboard-response","524","1132813","0.0-524.0","ut2jqyy7","","<span style=""color:Black; font-size:50px;"">Agent A","null","","","","",""
"null","","","video-keyboard-response","525","1135647","0.0-525.0","ut2jqyy7","","","null","","Agent A","scrambled","FOR_REV_BLOBBY_STIM/1159675.bmp_pp77_L3_V1.0_veridical_freeview_isoFalse_fps144_reversed_REAL.mp4",""
"null","","","html-keyboard-response","526","1137150","0.0-526.0","ut2jqyy7","","<span style=""color:Black; font-size:50px;"">Agent B","null","","","","",""
"null","","","video-keyboard-response","527","1139983","0.0-527.0","ut2jqyy7","","","null","","Agent B","veridical","FOR_REV_BLOBBY_STIM/1159675.bmp_pp77_L3_V1.0_veridical_freeview_isoFalse_fps144.mp4",""
"","","","call-function","528","1139983","0.0-528.0","ut2jqyy7","","","","","","","",""
"3314.784999999916","{""judgement"":1}","[0]","survey-likert","529","1143299","0.0-529.0","ut2jqyy7","","","","","","","","1"
"1046.0400000000373","{""confidence"":0}","[0]","survey-likert","530","1144347","0.0-530.0","ut2jqyy7","","","","","","","",""
"","","","call-function","531","1144348","0.0-531.0","ut2jqyy7","","","","","","","",""
"null","","","html-keyboard-response","532","1145850","0.0-532.0","ut2jqyy7","","<span style=""color:Black; font-size:50px;"">Agent A","null","","","","",""
"null","","","video-keyboard-response","533","1148708","0.0-533.0","ut2jqyy7","","","null","","Agent A","veridical","FOR_REV_BLOBBY_STIM/498253.bmp_pp67_L2_V1.0_veridical_freeview_isoFalse_fps144.mp4",""
"null","","","html-keyboard-response","534","1150213","0.0-534.0","ut2jqyy7","","<span style=""color:Black; font-size:50px;"">Agent B","null","","","","",""
"null","","","video-keyboard-response","535","1153068","0.0-535.0","ut2jqyy7","","","null","","Agent B","scrambled","FOR_REV_BLOBBY_STIM/498253.bmp_pp67_L2_V1.0_veridical_freeview_isoFalse_fps144_reversed_REAL.mp4",""
"","","","call-function","536","1153068","0.0-536.0","ut2jqyy7","","","","","","","",""
"3053.594999999972","{""judgement"":0}","[0]","survey-likert","537","1156123","0.0-537.0","ut2jqyy7","","","","","","","","0"
"1918.3999999999069","{""confidence"":1}","[0]","survey-likert","538","1158043","0.0-538.0","ut2jqyy7","","","","","","","",""
"","","","call-function","539","1158043","0.0-539.0","ut2jqyy7","","","","","","","",""
"null","","","html-keyboard-response","540","1159548","0.0-540.0","ut2jqyy7","","<span style=""color:Black; font-size:50px;"">Agent A","null","","","","",""
"null","","","video-keyboard-response","541","1162410","0.0-541.0","ut2jqyy7","","","null","","Agent A","scrambled","FOR_REV_BLOBBY_STIM/1593035.bmp_pp94_L2_V1.0_veridical_freeview_isoFalse_fps144_reversed_REAL.mp4",""
"null","","","html-keyboard-response","542","1163913","0.0-542.0","ut2jqyy7","","<span style=""color:Black; font-size:50px;"">Agent B","null","","","","",""
"null","","","video-keyboard-response","543","1166776","0.0-543.0","ut2jqyy7","","","null","","Agent B","veridical","FOR_REV_BLOBBY_STIM/1593035.bmp_pp94_L2_V1.0_veridical_freeview_isoFalse_fps144.mp4",""
"","","","call-function","544","1166776","0.0-544.0","ut2jqyy7","","","","","","","",""
"3945.844999999972","{""judgement"":0}","[0]","survey-likert","545","1170723","0.0-545.0","ut2jqyy7","","","","","","","","1"
"1206.1500000001397","{""confidence"":0}","[0]","survey-likert","546","1171931","0.0-546.0","ut2jqyy7","","","","","","","",""
"","","","call-function","547","1171931","0.0-547.0","ut2jqyy7","","","","","","","",""
"null","","","html-keyboard-response","548","1173436","0.0-548.0","ut2jqyy7","","<span style=""color:Black; font-size:50px;"">Agent A","null","","","","",""
"null","","","video-keyboard-response","549","1176122","0.0-549.0","ut2jqyy7","","","null","","Agent A","scrambled","FOR_REV_BLOBBY_STIM/285994.bmp_pp92_L3_V1.0_veridical_freeview_isoFalse_fps144_reversed_REAL.mp4",""
"null","","","html-keyboard-response","550","1177623","0.0-550.0","ut2jqyy7","","<span style=""color:Black; font-size:50px;"">Agent B","null","","","","",""
"null","","","video-keyboard-response","551","1180325","0.0-551.0","ut2jqyy7","","","null","","Agent B","veridical","FOR_REV_BLOBBY_STIM/285994.bmp_pp92_L3_V1.0_veridical_freeview_isoFalse_fps144.mp4",""
"","","","call-function","552","1180325","0.0-552.0","ut2jqyy7","","","","","","","",""
"2028.280000000028","{""judgement"":1}","[0]","survey-likert","553","1182355","0.0-553.0","ut2jqyy7","","","","","","","","1"
"1302.8649999999907","{""confidence"":2}","[0]","survey-likert","554","1183659","0.0-554.0","ut2jqyy7","","","","","","","",""
"","","","call-function","555","1183660","0.0-555.0","ut2jqyy7","","","","","","","",""
"null","","","html-keyboard-response","556","1185165","0.0-556.0","ut2jqyy7","","<span style=""color:Black; font-size:50px;"">Agent A","null","","","","",""
"null","","","video-keyboard-response","557","1187693","0.0-557.0","ut2jqyy7","","","null","","Agent A","scrambled","FOR_REV_BLOBBY_STIM/713513.bmp_pp62_L2_V1.0_veridical_freeview_isoFalse_fps144_reversed_REAL.mp4",""
"null","","","html-keyboard-response","558","1189197","0.0-558.0","ut2jqyy7","","<span style=""color:Black; font-size:50px;"">Agent B","null","","","","",""
"null","","","video-keyboard-response","559","1191723","0.0-559.0","ut2jqyy7","","","null","","Agent B","veridical","FOR_REV_BLOBBY_STIM/713513.bmp_pp62_L2_V1.0_veridical_freeview_isoFalse_fps144.mp4",""
"","","","call-function","560","1191725","0.0-560.0","ut2jqyy7","","","","","","","",""
"2636.9749999998603","{""judgement"":1}","[0]","survey-likert","561","1194363","0.0-561.0","ut2jqyy7","","","","","","","","1"
"1598.6949999998324","{""confidence"":1}","[0]","survey-likert","562","1195963","0.0-562.0","ut2jqyy7","","","","","","","",""
"","","","call-function","563","1195964","0.0-563.0","ut2jqyy7","","","","","","","",""
"null","","","html-keyboard-response","564","1197465","0.0-564.0","ut2jqyy7","","<span style=""color:Black; font-size:50px;"">Agent A","null","","","","",""
"null","","","video-keyboard-response","565","1200104","0.0-565.0","ut2jqyy7","","","null","","Agent A","scrambled","FOR_REV_BLOBBY_STIM/713779.bmp_pp152_L2_V1.0_veridical_freeview_isoFalse_fps144_reversed_REAL.mp4",""
"null","","","html-keyboard-response","566","1201605","0.0-566.0","ut2jqyy7","","<span style=""color:Black; font-size:50px;"">Agent B","null","","","","",""
"null","","","video-keyboard-response","567","1204247","0.0-567.0","ut2jqyy7","","","null","","Agent B","veridical","FOR_REV_BLOBBY_STIM/713779.bmp_pp152_L2_V1.0_veridical_freeview_isoFalse_fps144.mp4",""
"","","","call-function","568","1204248","0.0-568.0","ut2jqyy7","","","","","","","",""
"1657.7600000000093","{""judgement"":0}","[0]","survey-likert","569","1205907","0.0-569.0","ut2jqyy7","","","","","","","","1"
"1494.719999999972","{""confidence"":2}","[0]","survey-likert","570","1207403","0.0-570.0","ut2jqyy7","","","","","","","",""
"","","","call-function","571","1207403","0.0-571.0","ut2jqyy7","","","","","","","",""
"null","","","html-keyboard-response","572","1208907","0.0-572.0","ut2jqyy7","","<span style=""color:Black; font-size:50px;"">Agent A","null","","","","",""
"null","","","video-keyboard-response","573","1211643","0.0-573.0","ut2jqyy7","","","null","","Agent A","veridical","FOR_REV_BLOBBY_STIM/498170.bmp_pp153_L3_V1.0_veridical_freeview_isoFalse_fps144.mp4",""
"null","","","html-keyboard-response","574","1213148","0.0-574.0","ut2jqyy7","","<span style=""color:Black; font-size:50px;"">Agent B","null","","","","",""
"null","","","video-keyboard-response","575","1215885","0.0-575.0","ut2jqyy7","","","null","","Agent B","scrambled","FOR_REV_BLOBBY_STIM/498170.bmp_pp153_L3_V1.0_veridical_freeview_isoFalse_fps144_reversed_REAL.mp4",""
"","","","call-function","576","1215885","0.0-576.0","ut2jqyy7","","","","","","","",""
"1956.2600000000093","{""judgement"":1}","[0]","survey-likert","577","1217843","0.0-577.0","ut2jqyy7","","","","","","","","0"
"1534.7350000001024","{""confidence"":2}","[0]","survey-likert","578","1219379","0.0-578.0","ut2jqyy7","","","","","","","",""
"2477.965000000084","","","instructions","579","1221858","0.0-579.0","ut2jqyy7","[{""page_index"":0,""viewing_time"":2477.804999999935}]","","","","","","",""
"2247.215000000084","","","instructions","580","1224106","0.0-580.0","ut2jqyy7","[{""page_index"":0,""viewing_time"":2247.070000000065}]","","","","","","",""
"16063.645000000019","{""post-1"":0}","[0]","survey-likert","581","1240171","0.0-581.0","ut2jqyy7","","","","","","","",""
"15747.76000000001","{""post-1"":0}","[0]","survey-likert","582","1255921","0.0-582.0","ut2jqyy7","","","","","","","",""
"12760.915000000037","{""post-2"":0}","[0]","survey-likert","583","1268683","0.0-583.0","ut2jqyy7","","","","","","","",""
"1990.6350000000093","{""post-2"":0}","[0]","survey-likert","584","1270675","0.0-584.0","ut2jqyy7","","","","","","","",""
"11774.715000000084","{""post-3"":2}","[0]","survey-likert","585","1282451","0.0-585.0","ut2jqyy7","","","","","","","",""
"7269.755000000121","{""post-3"":1}","[0]","survey-likert","586","1289723","0.0-586.0","ut2jqyy7","","","","","","","",""
"6726.619999999879","{""post-4"":1}","[0]","survey-likert","587","1296451","0.0-587.0","ut2jqyy7","","","","","","","",""
"2638.5400000000373","{""post-4"":1}","[0]","survey-likert","588","1299091","0.0-588.0","ut2jqyy7","","","","","","","",""
"13704.179999999935","{""post-5"":0}","[0]","survey-likert","589","1312797","0.0-589.0","ut2jqyy7","","","","","","","",""
"3317.1699999999255","{""post-5"":1}","[0]","survey-likert","590","1316115","0.0-590.0","ut2jqyy7","","","","","","","",""
"150610.52000000002","{""Q0"":""When judging the ones I deemed to be more human, I focused on whether the pattern could reasonably resemble my own and whether it exhibited human nature (e.g. attention to faces). Sometimes it was really hard to tell two patterns apart, especially when the focus was on the same couple of objects but in slightly different order and with slightly different duration.""}","","survey-text","591","1466732","0.0-591.0","ut2jqyy7","","","","","","","",""
"278187.66000000015","{""Q0"":""Perhaps I got them all wrong, but I found it easiest when humans were in the pictures as I think humans attend more to other human faces (especially when placed more forward in the picture / when zoomed in). I also found it easiest when there was a \""main attraction\"", for example a tower, a computer screen, the skater doing a trick, etc.\n\nIt was particularly hard when the picture was \""uninteresting\"" (for example, the shot from the car with a simple view) or \""uniform\"" (I can't think of an example), or when the two patterns were very similar in attending, for example, faces, but were different in the duration to which they were attending them / the precise order (there was one with a couple holding hands in the foreground, with some other people in the background). It was hard to pick up on that.""}","","survey-text","592","1744924","0.0-592.0","ut2jqyy7","","","","","","","",""
"68172.32999999984","{""Q0"":""Distinguishing who was the human and who was not when the picture was \""uninteresting\"", \""uniform\"", or when the patterns were very similar in the object of focus but not in the order / duration of the attention.""}","","survey-text","593","1813101","0.0-593.0","ut2jqyy7","","","","","","","",""
"1932.1650000000373","","","instructions","594","1815035","0.0-594.0","ut2jqyy7","[{""page_index"":0,""viewing_time"":1931.8600000001024}]","","","","","","",""
"355556.07999999984","{""Experimenter_end"":[""Printed ID# ut2jqyy7 on consent form"",""Given subject SONA credit or payment"",""Given the subject debrief form""]}","[0]","survey-multi-select","595","2170595","0.0-595.0","ut2jqyy7","","","","","","","",""
