"rt","responses","question_order","trial_type","trial_index","time_elapsed","internal_node_id","ID","view_history","stimulus","key_press","value","agent","condition","image","correct_answer"
"13600.94","{""Experimenter"":[""Confirmed subject's identity (ID card)"",""Confirmed normal or corrected-to-normal vision"",""Obtained consent (signature and date)"",""Checked the test room lighting"",""Checked computer screen lighting"",""Checked distance from screen to chin rest (50cm)"",""Cleaned and adjusted chin rest"",""Counterbalanced the order of the tasks"",""Opened the experiment in Firefox"",""Made the experiment full screen"",""Encouraged subject to silence phone, put away distractors, etc.""]}","[0]","survey-multi-select","0","13609","0.0-0.0","v8fotb86","","","","","","","",""
"101621.375","","","instructions","1","115232","0.0-1.0","v8fotb86","[{""page_index"":0,""viewing_time"":101621.23000000001}]","","","","","","",""
"10588.429999999993","","","instructions","2","125821","0.0-2.0","v8fotb86","[{""page_index"":0,""viewing_time"":998.2549999999901},{""page_index"":1,""viewing_time"":4584.805000000008},{""page_index"":2,""viewing_time"":5005.25}]","","","","","","",""
"3080.3150000000023","","","instructions","3","128902","0.0-3.0","v8fotb86","[{""page_index"":0,""viewing_time"":3080.2100000000064}]","","","","","","",""
"null","","","video-keyboard-response","4","131976","0.0-4.0","v8fotb86","","","null","","","","",""
"15713.51000000001","","","instructions","5","147690","0.0-5.0","v8fotb86","[{""page_index"":0,""viewing_time"":2745.3399999999965},{""page_index"":1,""viewing_time"":1797.0450000000128},{""page_index"":2,""viewing_time"":1352.9799999999814},{""page_index"":3,""viewing_time"":4595.015000000014},{""page_index"":4,""viewing_time"":5222.994999999995}]","","","","","","",""
"4857.609999999986","","","instructions","6","152548","0.0-6.0","v8fotb86","[{""page_index"":0,""viewing_time"":4857.479999999981}]","","","","","","",""
"","","","call-function","7","152549","0.0-7.0","v8fotb86","","","","","","","",""
"null","","","html-keyboard-response","8","154052","0.0-8.0","v8fotb86","","<span style=""color:Black; font-size:50px;"">Agent A","null","","","","",""
"null","","","video-keyboard-response","9","157134","0.0-9.0","v8fotb86","","","null","","Agent A","scrambled","STIM_SET_1/713371.bmp_pp68_L1_V1.0_scrambled_freeview_isoFalse.mp4",""
"null","","","html-keyboard-response","10","158641","0.0-10.0","v8fotb86","","<span style=""color:Black; font-size:50px;"">Agent B","null","","","","",""
"null","","","video-keyboard-response","11","161726","0.0-11.0","v8fotb86","","","null","","Agent B","veridical","STIM_SET_1/713371.bmp_pp68_L1_V1.0_veridical_freeview_isoFalse.mp4",""
"","","","call-function","12","161726","0.0-12.0","v8fotb86","","","","","","","",""
"2604.625","{""judgement"":0}","[0]","survey-likert","13","164332","0.0-13.0","v8fotb86","","","","","","","","1"
"2995.9100000000035","{""confidence"":2}","[0]","survey-likert","14","167329","0.0-14.0","v8fotb86","","","","","","","",""
"","","","call-function","15","167330","0.0-15.0","v8fotb86","","","","","","","",""
"null","","","html-keyboard-response","16","168834","0.0-16.0","v8fotb86","","<span style=""color:Black; font-size:50px;"">Agent A","null","","","","",""
"null","","","video-keyboard-response","17","171904","0.0-17.0","v8fotb86","","","null","","Agent A","scrambled","STIM_SET_1/498170.bmp_pp153_L3_V1.0_scrambled_freeview_isoFalse.mp4",""
"null","","","html-keyboard-response","18","173411","0.0-18.0","v8fotb86","","<span style=""color:Black; font-size:50px;"">Agent B","null","","","","",""
"null","","","video-keyboard-response","19","176484","0.0-19.0","v8fotb86","","","null","","Agent B","veridical","STIM_SET_1/498170.bmp_pp153_L3_V1.0_veridical_freeview_isoFalse.mp4",""
"","","","call-function","20","176485","0.0-20.0","v8fotb86","","","","","","","",""
"3934.975000000006","{""judgement"":1}","[0]","survey-likert","21","180422","0.0-21.0","v8fotb86","","","","","","","","1"
"1577.9249999999884","{""confidence"":0}","[0]","survey-likert","22","182001","0.0-22.0","v8fotb86","","","","","","","",""
"","","","call-function","23","182001","0.0-23.0","v8fotb86","","","","","","","",""
"null","","","html-keyboard-response","24","183504","0.0-24.0","v8fotb86","","<span style=""color:Black; font-size:50px;"">Agent A","null","","","","",""
"null","","","video-keyboard-response","25","186590","0.0-25.0","v8fotb86","","","null","","Agent A","veridical","STIM_SET_1/1593041.bmp_pp58_L1_V1.0_veridical_freeview_isoFalse.mp4",""
"null","","","html-keyboard-response","26","188092","0.0-26.0","v8fotb86","","<span style=""color:Black; font-size:50px;"">Agent B","null","","","","",""
"null","","","video-keyboard-response","27","191177","0.0-27.0","v8fotb86","","","null","","Agent B","scrambled","STIM_SET_1/1593041.bmp_pp58_L1_V1.0_scrambled_freeview_isoFalse.mp4",""
"","","","call-function","28","191177","0.0-28.0","v8fotb86","","","","","","","",""
"3702.579999999987","{""judgement"":1}","[0]","survey-likert","29","194881","0.0-29.0","v8fotb86","","","","","","","","0"
"5999.545000000013","{""confidence"":0}","[0]","survey-likert","30","200881","0.0-30.0","v8fotb86","","","","","","","",""
"","","","call-function","31","200883","0.0-31.0","v8fotb86","","","","","","","",""
"null","","","html-keyboard-response","32","202388","0.0-32.0","v8fotb86","","<span style=""color:Black; font-size:50px;"">Agent A","null","","","","",""
"null","","","video-keyboard-response","33","205458","0.0-33.0","v8fotb86","","","null","","Agent A","scrambled","STIM_SET_1/285994.bmp_pp92_L3_V1.0_scrambled_freeview_isoFalse.mp4",""
"null","","","html-keyboard-response","34","206960","0.0-34.0","v8fotb86","","<span style=""color:Black; font-size:50px;"">Agent B","null","","","","",""
"null","","","video-keyboard-response","35","210030","0.0-35.0","v8fotb86","","","null","","Agent B","veridical","STIM_SET_1/285994.bmp_pp92_L3_V1.0_veridical_freeview_isoFalse.mp4",""
"","","","call-function","36","210031","0.0-36.0","v8fotb86","","","","","","","",""
"2464.7999999999884","{""judgement"":0}","[0]","survey-likert","37","212496","0.0-37.0","v8fotb86","","","","","","","","1"
"1822.6499999999942","{""confidence"":1}","[0]","survey-likert","38","214320","0.0-38.0","v8fotb86","","","","","","","",""
"","","","call-function","39","214321","0.0-39.0","v8fotb86","","","","","","","",""
"null","","","html-keyboard-response","40","215826","0.0-40.0","v8fotb86","","<span style=""color:Black; font-size:50px;"">Agent A","null","","","","",""
"null","","","video-keyboard-response","41","218904","0.0-41.0","v8fotb86","","","null","","Agent A","scrambled","STIM_SET_1/1160127.bmp_pp90_L2_V1.0_scrambled_freeview_isoFalse.mp4",""
"null","","","html-keyboard-response","42","220408","0.0-42.0","v8fotb86","","<span style=""color:Black; font-size:50px;"">Agent B","null","","","","",""
"null","","","video-keyboard-response","43","223485","0.0-43.0","v8fotb86","","","null","","Agent B","veridical","STIM_SET_1/1160127.bmp_pp90_L2_V1.0_veridical_freeview_isoFalse.mp4",""
"","","","call-function","44","223486","0.0-44.0","v8fotb86","","","","","","","",""
"3286.420000000013","{""judgement"":0}","[0]","survey-likert","45","226773","0.0-45.0","v8fotb86","","","","","","","","1"
"1935.5900000000256","{""confidence"":1}","[0]","survey-likert","46","228710","0.0-46.0","v8fotb86","","","","","","","",""
"","","","call-function","47","228710","0.0-47.0","v8fotb86","","","","","","","",""
"null","","","html-keyboard-response","48","230213","0.0-48.0","v8fotb86","","<span style=""color:Black; font-size:50px;"">Agent A","null","","","","",""
"null","","","video-keyboard-response","49","233295","0.0-49.0","v8fotb86","","","null","","Agent A","veridical","STIM_SET_1/498175.bmp_pp154_L1_V1.0_veridical_freeview_isoFalse.mp4",""
"null","","","html-keyboard-response","50","234798","0.0-50.0","v8fotb86","","<span style=""color:Black; font-size:50px;"">Agent B","null","","","","",""
"null","","","video-keyboard-response","51","237914","0.0-51.0","v8fotb86","","","null","","Agent B","scrambled","STIM_SET_1/498175.bmp_pp154_L1_V1.0_scrambled_freeview_isoFalse.mp4",""
"","","","call-function","52","237915","0.0-52.0","v8fotb86","","","","","","","",""
"1911.3250000000116","{""judgement"":0}","[0]","survey-likert","53","239827","0.0-53.0","v8fotb86","","","","","","","","0"
"2358.7000000000116","{""confidence"":2}","[0]","survey-likert","54","242186","0.0-54.0","v8fotb86","","","","","","","",""
"","","","call-function","55","242187","0.0-55.0","v8fotb86","","","","","","","",""
"null","","","html-keyboard-response","56","243693","0.0-56.0","v8fotb86","","<span style=""color:Black; font-size:50px;"">Agent A","null","","","","",""
"null","","","video-keyboard-response","57","246796","0.0-57.0","v8fotb86","","","null","","Agent A","scrambled","STIM_SET_1/1159446.bmp_pp60_L3_V1.0_scrambled_freeview_isoFalse.mp4",""
"null","","","html-keyboard-response","58","248302","0.0-58.0","v8fotb86","","<span style=""color:Black; font-size:50px;"">Agent B","null","","","","",""
"null","","","video-keyboard-response","59","251403","0.0-59.0","v8fotb86","","","null","","Agent B","veridical","STIM_SET_1/1159446.bmp_pp60_L3_V1.0_veridical_freeview_isoFalse.mp4",""
"","","","call-function","60","251404","0.0-60.0","v8fotb86","","","","","","","",""
"2802.889999999985","{""judgement"":1}","[0]","survey-likert","61","254207","0.0-61.0","v8fotb86","","","","","","","","1"
"2301.0250000000233","{""confidence"":0}","[0]","survey-likert","62","256509","0.0-62.0","v8fotb86","","","","","","","",""
"","","","call-function","63","256510","0.0-63.0","v8fotb86","","","","","","","",""
"null","","","html-keyboard-response","64","258015","0.0-64.0","v8fotb86","","<span style=""color:Black; font-size:50px;"">Agent A","null","","","","",""
"null","","","video-keyboard-response","65","261132","0.0-65.0","v8fotb86","","","null","","Agent A","scrambled","STIM_SET_1/1592804.bmp_pp91_L3_V1.0_scrambled_freeview_isoFalse.mp4",""
"null","","","html-keyboard-response","66","262636","0.0-66.0","v8fotb86","","<span style=""color:Black; font-size:50px;"">Agent B","null","","","","",""
"null","","","video-keyboard-response","67","265754","0.0-67.0","v8fotb86","","","null","","Agent B","veridical","STIM_SET_1/1592804.bmp_pp91_L3_V1.0_veridical_freeview_isoFalse.mp4",""
"","","","call-function","68","265754","0.0-68.0","v8fotb86","","","","","","","",""
"2494.515000000014","{""judgement"":0}","[0]","survey-likert","69","268249","0.0-69.0","v8fotb86","","","","","","","","1"
"1703.5449999999837","{""confidence"":1}","[0]","survey-likert","70","269954","0.0-70.0","v8fotb86","","","","","","","",""
"","","","call-function","71","269955","0.0-71.0","v8fotb86","","","","","","","",""
"null","","","html-keyboard-response","72","271459","0.0-72.0","v8fotb86","","<span style=""color:Black; font-size:50px;"">Agent A","null","","","","",""
"null","","","video-keyboard-response","73","274526","0.0-73.0","v8fotb86","","","null","","Agent A","scrambled","STIM_SET_1/1592133.bmp_pp75_L1_V1.0_scrambled_freeview_isoFalse.mp4",""
"null","","","html-keyboard-response","74","276032","0.0-74.0","v8fotb86","","<span style=""color:Black; font-size:50px;"">Agent B","null","","","","",""
"null","","","video-keyboard-response","75","279141","0.0-75.0","v8fotb86","","","null","","Agent B","veridical","STIM_SET_1/1592133.bmp_pp75_L1_V1.0_veridical_freeview_isoFalse.mp4",""
"","","","call-function","76","279141","0.0-76.0","v8fotb86","","","","","","","",""
"2333.125","{""judgement"":0}","[0]","survey-likert","77","281475","0.0-77.0","v8fotb86","","","","","","","","1"
"2837.429999999993","{""confidence"":0}","[0]","survey-likert","78","284313","0.0-78.0","v8fotb86","","","","","","","",""
"","","","call-function","79","284314","0.0-79.0","v8fotb86","","","","","","","",""
"null","","","html-keyboard-response","80","285815","0.0-80.0","v8fotb86","","<span style=""color:Black; font-size:50px;"">Agent A","null","","","","",""
"null","","","video-keyboard-response","81","288888","0.0-81.0","v8fotb86","","","null","","Agent A","veridical","STIM_SET_1/1159829.bmp_pp91_L3_V1.0_veridical_freeview_isoFalse.mp4",""
"null","","","html-keyboard-response","82","290393","0.0-82.0","v8fotb86","","<span style=""color:Black; font-size:50px;"">Agent B","null","","","","",""
"null","","","video-keyboard-response","83","293465","0.0-83.0","v8fotb86","","","null","","Agent B","scrambled","STIM_SET_1/1159829.bmp_pp91_L3_V1.0_scrambled_freeview_isoFalse.mp4",""
"","","","call-function","84","293465","0.0-84.0","v8fotb86","","","","","","","",""
"2414.4150000000373","{""judgement"":1}","[0]","survey-likert","85","295881","0.0-85.0","v8fotb86","","","","","","","","0"
"1712.3699999999953","{""confidence"":0}","[0]","survey-likert","86","297594","0.0-86.0","v8fotb86","","","","","","","",""
"21650.81999999995","","","instructions","87","319246","0.0-87.0","v8fotb86","[{""page_index"":0,""viewing_time"":1503.6149999999907},{""page_index"":1,""viewing_time"":1629.8800000000047},{""page_index"":2,""viewing_time"":18517.11499999999}]","","","","","","",""
"5026.085000000021","","","instructions","88","324273","0.0-88.0","v8fotb86","[{""page_index"":0,""viewing_time"":4928.940000000002},{""page_index"":1,""viewing_time"":44.98499999998603},{""page_index"":2,""viewing_time"":52.054999999993015}]","","","","","","",""
"","","","call-function","89","324274","0.0-89.0","v8fotb86","","","","","","","",""
"null","","","html-keyboard-response","90","325775","0.0-90.0","v8fotb86","","<span style=""color:Black; font-size:50px;"">Agent A","null","","","","",""
"null","","","video-keyboard-response","91","328845","0.0-91.0","v8fotb86","","","null","","Agent A","scrambled","STIM_SET_1/497950.bmp_pp151_L1_V1.0_scrambled_freeview_isoFalse.mp4",""
"null","","","html-keyboard-response","92","330348","0.0-92.0","v8fotb86","","<span style=""color:Black; font-size:50px;"">Agent B","null","","","","",""
"null","","","video-keyboard-response","93","333417","0.0-93.0","v8fotb86","","","null","","Agent B","veridical","STIM_SET_1/497950.bmp_pp151_L1_V1.0_veridical_freeview_isoFalse.mp4",""
"","","","call-function","94","333417","0.0-94.0","v8fotb86","","","","","","","",""
"2550.7649999999558","{""judgement"":1}","[0]","survey-likert","95","335969","0.0-95.0","v8fotb86","","","","","","","","1"
"2124.1100000000442","{""confidence"":1}","[0]","survey-likert","96","338094","0.0-96.0","v8fotb86","","","","","","","",""
"","","","call-function","97","338095","0.0-97.0","v8fotb86","","","","","","","",""
"null","","","html-keyboard-response","98","339598","0.0-98.0","v8fotb86","","<span style=""color:Black; font-size:50px;"">Agent A","null","","","","",""
"null","","","video-keyboard-response","99","342675","0.0-99.0","v8fotb86","","","null","","Agent A","veridical","STIM_SET_1/498111.bmp_pp88_L2_V1.0_veridical_freeview_isoFalse.mp4",""
"null","","","html-keyboard-response","100","344176","0.0-100.0","v8fotb86","","<span style=""color:Black; font-size:50px;"">Agent B","null","","","","",""
"null","","","video-keyboard-response","101","347252","0.0-101.0","v8fotb86","","","null","","Agent B","scrambled","STIM_SET_1/498111.bmp_pp88_L2_V1.0_scrambled_freeview_isoFalse.mp4",""
"","","","call-function","102","347252","0.0-102.0","v8fotb86","","","","","","","",""
"2575.8300000000163","{""judgement"":0}","[0]","survey-likert","103","349829","0.0-103.0","v8fotb86","","","","","","","","0"
"2245.5299999999697","{""confidence"":0}","[0]","survey-likert","104","352075","0.0-104.0","v8fotb86","","","","","","","",""
"","","","call-function","105","352076","0.0-105.0","v8fotb86","","","","","","","",""
"null","","","html-keyboard-response","106","353579","0.0-106.0","v8fotb86","","<span style=""color:Black; font-size:50px;"">Agent A","null","","","","",""
"null","","","video-keyboard-response","107","356696","0.0-107.0","v8fotb86","","","null","","Agent A","scrambled","STIM_SET_1/1159784.bmp_pp73_L3_V1.0_scrambled_freeview_isoFalse.mp4",""
"null","","","html-keyboard-response","108","358200","0.0-108.0","v8fotb86","","<span style=""color:Black; font-size:50px;"">Agent B","null","","","","",""
"null","","","video-keyboard-response","109","361313","0.0-109.0","v8fotb86","","","null","","Agent B","veridical","STIM_SET_1/1159784.bmp_pp73_L3_V1.0_veridical_freeview_isoFalse.mp4",""
"","","","call-function","110","361314","0.0-110.0","v8fotb86","","","","","","","",""
"2822.304999999993","{""judgement"":1}","[0]","survey-likert","111","364137","0.0-111.0","v8fotb86","","","","","","","","1"
"1641.2299999999814","{""confidence"":0}","[0]","survey-likert","112","365779","0.0-112.0","v8fotb86","","","","","","","",""
"","","","call-function","113","365779","0.0-113.0","v8fotb86","","","","","","","",""
"null","","","html-keyboard-response","114","367282","0.0-114.0","v8fotb86","","<span style=""color:Black; font-size:50px;"">Agent A","null","","","","",""
"null","","","video-keyboard-response","115","370385","0.0-115.0","v8fotb86","","","null","","Agent A","veridical","STIM_SET_1/1592817.bmp_pp55_L3_V1.0_veridical_freeview_isoFalse.mp4",""
"null","","","html-keyboard-response","116","371888","0.0-116.0","v8fotb86","","<span style=""color:Black; font-size:50px;"">Agent B","null","","","","",""
"null","","","video-keyboard-response","117","374992","0.0-117.0","v8fotb86","","","null","","Agent B","scrambled","STIM_SET_1/1592817.bmp_pp55_L3_V1.0_scrambled_freeview_isoFalse.mp4",""
"","","","call-function","118","374993","0.0-118.0","v8fotb86","","","","","","","",""
"2905.0900000000256","{""judgement"":0}","[0]","survey-likert","119","377899","0.0-119.0","v8fotb86","","","","","","","","0"
"3142.710000000021","{""confidence"":0}","[0]","survey-likert","120","381042","0.0-120.0","v8fotb86","","","","","","","",""
"","","","call-function","121","381043","0.0-121.0","v8fotb86","","","","","","","",""
"null","","","html-keyboard-response","122","382546","0.0-122.0","v8fotb86","","<span style=""color:Black; font-size:50px;"">Agent A","null","","","","",""
"null","","","video-keyboard-response","123","385664","0.0-123.0","v8fotb86","","","null","","Agent A","veridical","STIM_SET_1/713620.bmp_pp65_L3_V1.0_veridical_freeview_isoFalse.mp4",""
"null","","","html-keyboard-response","124","387167","0.0-124.0","v8fotb86","","<span style=""color:Black; font-size:50px;"">Agent B","null","","","","",""
"null","","","video-keyboard-response","125","390286","0.0-125.0","v8fotb86","","","null","","Agent B","scrambled","STIM_SET_1/713620.bmp_pp65_L3_V1.0_scrambled_freeview_isoFalse.mp4",""
"","","","call-function","126","390286","0.0-126.0","v8fotb86","","","","","","","",""
"2194.7399999999907","{""judgement"":0}","[0]","survey-likert","127","392482","0.0-127.0","v8fotb86","","","","","","","","0"
"2522.7850000000326","{""confidence"":0}","[0]","survey-likert","128","395006","0.0-128.0","v8fotb86","","","","","","","",""
"","","","call-function","129","395007","0.0-129.0","v8fotb86","","","","","","","",""
"null","","","html-keyboard-response","130","396509","0.0-130.0","v8fotb86","","<span style=""color:Black; font-size:50px;"">Agent A","null","","","","",""
"null","","","video-keyboard-response","131","399574","0.0-131.0","v8fotb86","","","null","","Agent A","veridical","STIM_SET_1/498149.bmp_pp99_L2_V1.0_veridical_freeview_isoFalse.mp4",""
"null","","","html-keyboard-response","132","401080","0.0-132.0","v8fotb86","","<span style=""color:Black; font-size:50px;"">Agent B","null","","","","",""
"null","","","video-keyboard-response","133","404149","0.0-133.0","v8fotb86","","","null","","Agent B","scrambled","STIM_SET_1/498149.bmp_pp99_L2_V1.0_scrambled_freeview_isoFalse.mp4",""
"","","","call-function","134","404149","0.0-134.0","v8fotb86","","","","","","","",""
"3039.9799999999814","{""judgement"":1}","[0]","survey-likert","135","407190","0.0-135.0","v8fotb86","","","","","","","","0"
"2291.4499999999534","{""confidence"":0}","[0]","survey-likert","136","409483","0.0-136.0","v8fotb86","","","","","","","",""
"","","","call-function","137","409483","0.0-137.0","v8fotb86","","","","","","","",""
"null","","","html-keyboard-response","138","410989","0.0-138.0","v8fotb86","","<span style=""color:Black; font-size:50px;"">Agent A","null","","","","",""
"null","","","video-keyboard-response","139","414053","0.0-139.0","v8fotb86","","","null","","Agent A","veridical","STIM_SET_1/286001.bmp_pp54_L2_V1.0_veridical_freeview_isoFalse.mp4",""
"null","","","html-keyboard-response","140","415559","0.0-140.0","v8fotb86","","<span style=""color:Black; font-size:50px;"">Agent B","null","","","","",""
"null","","","video-keyboard-response","141","418628","0.0-141.0","v8fotb86","","","null","","Agent B","scrambled","STIM_SET_1/286001.bmp_pp54_L2_V1.0_scrambled_freeview_isoFalse.mp4",""
"","","","call-function","142","418629","0.0-142.0","v8fotb86","","","","","","","",""
"3739.710000000021","{""judgement"":0}","[0]","survey-likert","143","422370","0.0-143.0","v8fotb86","","","","","","","","0"
"1773.3300000000163","{""confidence"":0}","[0]","survey-likert","144","424145","0.0-144.0","v8fotb86","","","","","","","",""
"","","","call-function","145","424146","0.0-145.0","v8fotb86","","","","","","","",""
"null","","","html-keyboard-response","146","425647","0.0-146.0","v8fotb86","","<span style=""color:Black; font-size:50px;"">Agent A","null","","","","",""
"null","","","video-keyboard-response","147","428717","0.0-147.0","v8fotb86","","","null","","Agent A","scrambled","STIM_SET_1/713135.bmp_pp54_L2_V1.0_scrambled_freeview_isoFalse.mp4",""
"null","","","html-keyboard-response","148","430219","0.0-148.0","v8fotb86","","<span style=""color:Black; font-size:50px;"">Agent B","null","","","","",""
"null","","","video-keyboard-response","149","433288","0.0-149.0","v8fotb86","","","null","","Agent B","veridical","STIM_SET_1/713135.bmp_pp54_L2_V1.0_veridical_freeview_isoFalse.mp4",""
"","","","call-function","150","433289","0.0-150.0","v8fotb86","","","","","","","",""
"2138.2550000000047","{""judgement"":1}","[0]","survey-likert","151","435428","0.0-151.0","v8fotb86","","","","","","","","1"
"2228.914999999979","{""confidence"":0}","[0]","survey-likert","152","437658","0.0-152.0","v8fotb86","","","","","","","",""
"","","","call-function","153","437658","0.0-153.0","v8fotb86","","","","","","","",""
"null","","","html-keyboard-response","154","439160","0.0-154.0","v8fotb86","","<span style=""color:Black; font-size:50px;"">Agent A","null","","","","",""
"null","","","video-keyboard-response","155","442233","0.0-155.0","v8fotb86","","","null","","Agent A","scrambled","STIM_SET_1/1592581.bmp_pp100_L3_V1.0_scrambled_freeview_isoFalse.mp4",""
"null","","","html-keyboard-response","156","443737","0.0-156.0","v8fotb86","","<span style=""color:Black; font-size:50px;"">Agent B","null","","","","",""
"null","","","video-keyboard-response","157","446810","0.0-157.0","v8fotb86","","","null","","Agent B","veridical","STIM_SET_1/1592581.bmp_pp100_L3_V1.0_veridical_freeview_isoFalse.mp4",""
"","","","call-function","158","446811","0.0-158.0","v8fotb86","","","","","","","",""
"1974.6199999999953","{""judgement"":1}","[0]","survey-likert","159","448787","0.0-159.0","v8fotb86","","","","","","","","1"
"2681.320000000007","{""confidence"":0}","[0]","survey-likert","160","451469","0.0-160.0","v8fotb86","","","","","","","",""
"","","","call-function","161","451469","0.0-161.0","v8fotb86","","","","","","","",""
"null","","","html-keyboard-response","162","452974","0.0-162.0","v8fotb86","","<span style=""color:Black; font-size:50px;"">Agent A","null","","","","",""
"null","","","video-keyboard-response","163","456084","0.0-163.0","v8fotb86","","","null","","Agent A","scrambled","STIM_SET_1/713089.bmp_pp60_L3_V1.0_scrambled_freeview_isoFalse.mp4",""
"null","","","html-keyboard-response","164","457588","0.0-164.0","v8fotb86","","<span style=""color:Black; font-size:50px;"">Agent B","null","","","","",""
"null","","","video-keyboard-response","165","460697","0.0-165.0","v8fotb86","","","null","","Agent B","veridical","STIM_SET_1/713089.bmp_pp60_L3_V1.0_veridical_freeview_isoFalse.mp4",""
"","","","call-function","166","460697","0.0-166.0","v8fotb86","","","","","","","",""
"1657.9749999999767","{""judgement"":0}","[0]","survey-likert","167","462356","0.0-167.0","v8fotb86","","","","","","","","1"
"1607.6599999999744","{""confidence"":0}","[0]","survey-likert","168","463965","0.0-168.0","v8fotb86","","","","","","","",""
"25150.054999999993","","","instructions","169","489116","0.0-169.0","v8fotb86","[{""page_index"":0,""viewing_time"":22490.82500000001},{""page_index"":1,""viewing_time"":1292.109999999986},{""page_index"":2,""viewing_time"":1366.9099999999744}]","","","","","","",""
"5335.885000000009","","","instructions","170","494452","0.0-170.0","v8fotb86","[{""page_index"":0,""viewing_time"":1371.5349999999744},{""page_index"":1,""viewing_time"":2635.9500000000116},{""page_index"":2,""viewing_time"":1328.2949999999837}]","","","","","","",""
"","","","call-function","171","494452","0.0-171.0","v8fotb86","","","","","","","",""
"null","","","html-keyboard-response","172","495954","0.0-172.0","v8fotb86","","<span style=""color:Black; font-size:50px;"">Agent A","null","","","","",""
"null","","","video-keyboard-response","173","499030","0.0-173.0","v8fotb86","","","null","","Agent A","scrambled","STIM_SET_1/713513.bmp_pp62_L2_V1.0_scrambled_freeview_isoFalse.mp4",""
"null","","","html-keyboard-response","174","500534","0.0-174.0","v8fotb86","","<span style=""color:Black; font-size:50px;"">Agent B","null","","","","",""
"null","","","video-keyboard-response","175","503606","0.0-175.0","v8fotb86","","","null","","Agent B","veridical","STIM_SET_1/713513.bmp_pp62_L2_V1.0_veridical_freeview_isoFalse.mp4",""
"","","","call-function","176","503607","0.0-176.0","v8fotb86","","","","","","","",""
"3012.8150000000023","{""judgement"":0}","[0]","survey-likert","177","506621","0.0-177.0","v8fotb86","","","","","","","","1"
"2186.905000000028","{""confidence"":0}","[0]","survey-likert","178","508809","0.0-178.0","v8fotb86","","","","","","","",""
"","","","call-function","179","508809","0.0-179.0","v8fotb86","","","","","","","",""
"null","","","html-keyboard-response","180","510311","0.0-180.0","v8fotb86","","<span style=""color:Black; font-size:50px;"">Agent A","null","","","","",""
"null","","","video-keyboard-response","181","513392","0.0-181.0","v8fotb86","","","null","","Agent A","veridical","STIM_SET_1/61537.bmp_pp73_L3_V1.0_veridical_freeview_isoFalse.mp4",""
"null","","","html-keyboard-response","182","514894","0.0-182.0","v8fotb86","","<span style=""color:Black; font-size:50px;"">Agent B","null","","","","",""
"null","","","video-keyboard-response","183","517972","0.0-183.0","v8fotb86","","","null","","Agent B","scrambled","STIM_SET_1/61537.bmp_pp73_L3_V1.0_scrambled_freeview_isoFalse.mp4",""
"","","","call-function","184","517973","0.0-184.0","v8fotb86","","","","","","","",""
"3314.5800000000163","{""judgement"":0}","[0]","survey-likert","185","521288","0.0-185.0","v8fotb86","","","","","","","","0"
"1865.0400000000373","{""confidence"":0}","[0]","survey-likert","186","523154","0.0-186.0","v8fotb86","","","","","","","",""
"","","","call-function","187","523155","0.0-187.0","v8fotb86","","","","","","","",""
"null","","","html-keyboard-response","188","524657","0.0-188.0","v8fotb86","","<span style=""color:Black; font-size:50px;"">Agent A","null","","","","",""
"null","","","video-keyboard-response","189","527779","0.0-189.0","v8fotb86","","","null","","Agent A","scrambled","STIM_SET_1/1592807.bmp_pp68_L1_V1.0_scrambled_freeview_isoFalse.mp4",""
"null","","","html-keyboard-response","190","529281","0.0-190.0","v8fotb86","","<span style=""color:Black; font-size:50px;"">Agent B","null","","","","",""
"null","","","video-keyboard-response","191","532400","0.0-191.0","v8fotb86","","","null","","Agent B","veridical","STIM_SET_1/1592807.bmp_pp68_L1_V1.0_veridical_freeview_isoFalse.mp4",""
"","","","call-function","192","532401","0.0-192.0","v8fotb86","","","","","","","",""
"2239.6500000000233","{""judgement"":0}","[0]","survey-likert","193","534641","0.0-193.0","v8fotb86","","","","","","","","1"
"2907.25","{""confidence"":0}","[0]","survey-likert","194","537550","0.0-194.0","v8fotb86","","","","","","","",""
"","","","call-function","195","537550","0.0-195.0","v8fotb86","","","","","","","",""
"null","","","html-keyboard-response","196","539052","0.0-196.0","v8fotb86","","<span style=""color:Black; font-size:50px;"">Agent A","null","","","","",""
"null","","","video-keyboard-response","197","542163","0.0-197.0","v8fotb86","","","null","","Agent A","scrambled","STIM_SET_1/1592499.bmp_pp96_L2_V1.0_scrambled_freeview_isoFalse.mp4",""
"null","","","html-keyboard-response","198","543670","0.0-198.0","v8fotb86","","<span style=""color:Black; font-size:50px;"">Agent B","null","","","","",""
"null","","","video-keyboard-response","199","546748","0.0-199.0","v8fotb86","","","null","","Agent B","veridical","STIM_SET_1/1592499.bmp_pp96_L2_V1.0_veridical_freeview_isoFalse.mp4",""
"","","","call-function","200","546748","0.0-200.0","v8fotb86","","","","","","","",""
"3118.054999999935","{""judgement"":1}","[0]","survey-likert","201","549868","0.0-201.0","v8fotb86","","","","","","","","1"
"1825.8049999999348","{""confidence"":0}","[0]","survey-likert","202","551695","0.0-202.0","v8fotb86","","","","","","","",""
"","","","call-function","203","551696","0.0-203.0","v8fotb86","","","","","","","",""
"null","","","html-keyboard-response","204","553198","0.0-204.0","v8fotb86","","<span style=""color:Black; font-size:50px;"">Agent A","null","","","","",""
"null","","","video-keyboard-response","205","556272","0.0-205.0","v8fotb86","","","null","","Agent A","scrambled","STIM_SET_1/713017.bmp_pp152_L2_V1.0_scrambled_freeview_isoFalse.mp4",""
"null","","","html-keyboard-response","206","557773","0.0-206.0","v8fotb86","","<span style=""color:Black; font-size:50px;"">Agent B","null","","","","",""
"null","","","video-keyboard-response","207","560848","0.0-207.0","v8fotb86","","","null","","Agent B","veridical","STIM_SET_1/713017.bmp_pp152_L2_V1.0_veridical_freeview_isoFalse.mp4",""
"","","","call-function","208","560849","0.0-208.0","v8fotb86","","","","","","","",""
"2746.185000000056","{""judgement"":0}","[0]","survey-likert","209","563596","0.0-209.0","v8fotb86","","","","","","","","1"
"2416.064999999944","{""confidence"":0}","[0]","survey-likert","210","566013","0.0-210.0","v8fotb86","","","","","","","",""
"","","","call-function","211","566014","0.0-211.0","v8fotb86","","","","","","","",""
"null","","","html-keyboard-response","212","567516","0.0-212.0","v8fotb86","","<span style=""color:Black; font-size:50px;"">Agent A","null","","","","",""
"null","","","video-keyboard-response","213","570598","0.0-213.0","v8fotb86","","","null","","Agent A","scrambled","STIM_SET_1/1159855.bmp_pp99_L2_V1.0_scrambled_freeview_isoFalse.mp4",""
"null","","","html-keyboard-response","214","572099","0.0-214.0","v8fotb86","","<span style=""color:Black; font-size:50px;"">Agent B","null","","","","",""
"null","","","video-keyboard-response","215","575179","0.0-215.0","v8fotb86","","","null","","Agent B","veridical","STIM_SET_1/1159855.bmp_pp99_L2_V1.0_veridical_freeview_isoFalse.mp4",""
"","","","call-function","216","575180","0.0-216.0","v8fotb86","","","","","","","",""
"2111.3349999999627","{""judgement"":1}","[0]","survey-likert","217","577292","0.0-217.0","v8fotb86","","","","","","","","1"
"1517.8099999999395","{""confidence"":0}","[0]","survey-likert","218","578811","0.0-218.0","v8fotb86","","","","","","","",""
"","","","call-function","219","578811","0.0-219.0","v8fotb86","","","","","","","",""
"null","","","html-keyboard-response","220","580314","0.0-220.0","v8fotb86","","<span style=""color:Black; font-size:50px;"">Agent A","null","","","","",""
"null","","","video-keyboard-response","221","583440","0.0-221.0","v8fotb86","","","null","","Agent A","veridical","STIM_SET_1/1591954.bmp_pp62_L2_V1.0_veridical_freeview_isoFalse.mp4",""
"null","","","html-keyboard-response","222","584946","0.0-222.0","v8fotb86","","<span style=""color:Black; font-size:50px;"">Agent B","null","","","","",""
"null","","","video-keyboard-response","223","588069","0.0-223.0","v8fotb86","","","null","","Agent B","scrambled","STIM_SET_1/1591954.bmp_pp62_L2_V1.0_scrambled_freeview_isoFalse.mp4",""
"","","","call-function","224","588069","0.0-224.0","v8fotb86","","","","","","","",""
"4117.180000000051","{""judgement"":1}","[0]","survey-likert","225","592187","0.0-225.0","v8fotb86","","","","","","","","0"
"2668.625","{""confidence"":0}","[0]","survey-likert","226","594857","0.0-226.0","v8fotb86","","","","","","","",""
"","","","call-function","227","594857","0.0-227.0","v8fotb86","","","","","","","",""
"null","","","html-keyboard-response","228","596360","0.0-228.0","v8fotb86","","<span style=""color:Black; font-size:50px;"">Agent A","null","","","","",""
"null","","","video-keyboard-response","229","599485","0.0-229.0","v8fotb86","","","null","","Agent A","veridical","STIM_SET_1/285905.bmp_pp57_L1_V1.0_veridical_freeview_isoFalse.mp4",""
"null","","","html-keyboard-response","230","600987","0.0-230.0","v8fotb86","","<span style=""color:Black; font-size:50px;"">Agent B","null","","","","",""
"null","","","video-keyboard-response","231","604107","0.0-231.0","v8fotb86","","","null","","Agent B","scrambled","STIM_SET_1/285905.bmp_pp57_L1_V1.0_scrambled_freeview_isoFalse.mp4",""
"","","","call-function","232","604107","0.0-232.0","v8fotb86","","","","","","","",""
"2111.3399999999674","{""judgement"":0}","[0]","survey-likert","233","606219","0.0-233.0","v8fotb86","","","","","","","","0"
"2550.1350000000093","{""confidence"":0}","[0]","survey-likert","234","608770","0.0-234.0","v8fotb86","","","","","","","",""
"","","","call-function","235","608771","0.0-235.0","v8fotb86","","","","","","","",""
"null","","","html-keyboard-response","236","610274","0.0-236.0","v8fotb86","","<span style=""color:Black; font-size:50px;"">Agent A","null","","","","",""
"null","","","video-keyboard-response","237","613391","0.0-237.0","v8fotb86","","","null","","Agent A","scrambled","STIM_SET_1/1591876.bmp_pp63_L1_V1.0_scrambled_freeview_isoFalse.mp4",""
"null","","","html-keyboard-response","238","614896","0.0-238.0","v8fotb86","","<span style=""color:Black; font-size:50px;"">Agent B","null","","","","",""
"null","","","video-keyboard-response","239","618013","0.0-239.0","v8fotb86","","","null","","Agent B","veridical","STIM_SET_1/1591876.bmp_pp63_L1_V1.0_veridical_freeview_isoFalse.mp4",""
"","","","call-function","240","618014","0.0-240.0","v8fotb86","","","","","","","",""
"2071.9799999999814","{""judgement"":1}","[0]","survey-likert","241","620086","0.0-241.0","v8fotb86","","","","","","","","1"
"1471.6650000000373","{""confidence"":0}","[0]","survey-likert","242","621559","0.0-242.0","v8fotb86","","","","","","","",""
"","","","call-function","243","621560","0.0-243.0","v8fotb86","","","","","","","",""
"null","","","html-keyboard-response","244","623062","0.0-244.0","v8fotb86","","<span style=""color:Black; font-size:50px;"">Agent A","null","","","","",""
"null","","","video-keyboard-response","245","626135","0.0-245.0","v8fotb86","","","null","","Agent A","veridical","STIM_SET_1/285933.bmp_pp81_L1_V1.0_veridical_freeview_isoFalse.mp4",""
"null","","","html-keyboard-response","246","627637","0.0-246.0","v8fotb86","","<span style=""color:Black; font-size:50px;"">Agent B","null","","","","",""
"null","","","video-keyboard-response","247","630710","0.0-247.0","v8fotb86","","","null","","Agent B","scrambled","STIM_SET_1/285933.bmp_pp81_L1_V1.0_scrambled_freeview_isoFalse.mp4",""
"","","","call-function","248","630711","0.0-248.0","v8fotb86","","","","","","","",""
"1785.9550000000745","{""judgement"":0}","[0]","survey-likert","249","632497","0.0-249.0","v8fotb86","","","","","","","","0"
"1854.0350000000326","{""confidence"":0}","[0]","survey-likert","250","634353","0.0-250.0","v8fotb86","","","","","","","",""
"18979.285000000033","","","instructions","251","653332","0.0-251.0","v8fotb86","[{""page_index"":0,""viewing_time"":11038.929999999935},{""page_index"":1,""viewing_time"":6643.890000000014},{""page_index"":2,""viewing_time"":1296.2600000000093}]","","","","","","",""
"2687.295000000042","","","instructions","252","656020","0.0-252.0","v8fotb86","[{""page_index"":0,""viewing_time"":728.2750000000233},{""page_index"":1,""viewing_time"":1304.3400000000838},{""page_index"":2,""viewing_time"":654.5749999999534}]","","","","","","",""
"","","","call-function","253","656020","0.0-253.0","v8fotb86","","","","","","","",""
"null","","","html-keyboard-response","254","657523","0.0-254.0","v8fotb86","","<span style=""color:Black; font-size:50px;"">Agent A","null","","","","",""
"null","","","video-keyboard-response","255","660593","0.0-255.0","v8fotb86","","","null","","Agent A","veridical","STIM_SET_1/713681.bmp_pp86_L2_V1.0_veridical_freeview_isoFalse.mp4",""
"null","","","html-keyboard-response","256","662097","0.0-256.0","v8fotb86","","<span style=""color:Black; font-size:50px;"">Agent B","null","","","","",""
"null","","","video-keyboard-response","257","665171","0.0-257.0","v8fotb86","","","null","","Agent B","scrambled","STIM_SET_1/713681.bmp_pp86_L2_V1.0_scrambled_freeview_isoFalse.mp4",""
"","","","call-function","258","665171","0.0-258.0","v8fotb86","","","","","","","",""
"3304.4349999999395","{""judgement"":0}","[0]","survey-likert","259","668477","0.0-259.0","v8fotb86","","","","","","","","0"
"2036.9249999999302","{""confidence"":0}","[0]","survey-likert","260","670516","0.0-260.0","v8fotb86","","","","","","","",""
"","","","call-function","261","670517","0.0-261.0","v8fotb86","","","","","","","",""
"null","","","html-keyboard-response","262","672022","0.0-262.0","v8fotb86","","<span style=""color:Black; font-size:50px;"">Agent A","null","","","","",""
"null","","","video-keyboard-response","263","675090","0.0-263.0","v8fotb86","","","null","","Agent A","scrambled","STIM_SET_1/713403.bmp_pp80_L3_V1.0_scrambled_freeview_isoFalse.mp4",""
"null","","","html-keyboard-response","264","676594","0.0-264.0","v8fotb86","","<span style=""color:Black; font-size:50px;"">Agent B","null","","","","",""
"null","","","video-keyboard-response","265","679660","0.0-265.0","v8fotb86","","","null","","Agent B","veridical","STIM_SET_1/713403.bmp_pp80_L3_V1.0_veridical_freeview_isoFalse.mp4",""
"","","","call-function","266","679661","0.0-266.0","v8fotb86","","","","","","","",""
"2374.7750000000233","{""judgement"":1}","[0]","survey-likert","267","682037","0.0-267.0","v8fotb86","","","","","","","","1"
"1863.4000000000233","{""confidence"":0}","[0]","survey-likert","268","683902","0.0-268.0","v8fotb86","","","","","","","",""
"","","","call-function","269","683902","0.0-269.0","v8fotb86","","","","","","","",""
"null","","","html-keyboard-response","270","685406","0.0-270.0","v8fotb86","","<span style=""color:Black; font-size:50px;"">Agent A","null","","","","",""
"null","","","video-keyboard-response","271","688476","0.0-271.0","v8fotb86","","","null","","Agent A","scrambled","STIM_SET_1/1592727.bmp_pp59_L3_V1.0_scrambled_freeview_isoFalse.mp4",""
"null","","","html-keyboard-response","272","689977","0.0-272.0","v8fotb86","","<span style=""color:Black; font-size:50px;"">Agent B","null","","","","",""
"null","","","video-keyboard-response","273","693046","0.0-273.0","v8fotb86","","","null","","Agent B","veridical","STIM_SET_1/1592727.bmp_pp59_L3_V1.0_veridical_freeview_isoFalse.mp4",""
"","","","call-function","274","693046","0.0-274.0","v8fotb86","","","","","","","",""
"5261.390000000014","{""judgement"":1}","[0]","survey-likert","275","698309","0.0-275.0","v8fotb86","","","","","","","","1"
"2082.7249999999767","{""confidence"":0}","[0]","survey-likert","276","700392","0.0-276.0","v8fotb86","","","","","","","",""
"","","","call-function","277","700393","0.0-277.0","v8fotb86","","","","","","","",""
"null","","","html-keyboard-response","278","701897","0.0-278.0","v8fotb86","","<span style=""color:Black; font-size:50px;"">Agent A","null","","","","",""
"null","","","video-keyboard-response","279","705021","0.0-279.0","v8fotb86","","","null","","Agent A","scrambled","STIM_SET_1/285751.bmp_pp55_L3_V1.0_scrambled_freeview_isoFalse.mp4",""
"null","","","html-keyboard-response","280","706528","0.0-280.0","v8fotb86","","<span style=""color:Black; font-size:50px;"">Agent B","null","","","","",""
"null","","","video-keyboard-response","281","709647","0.0-281.0","v8fotb86","","","null","","Agent B","veridical","STIM_SET_1/285751.bmp_pp55_L3_V1.0_veridical_freeview_isoFalse.mp4",""
"","","","call-function","282","709648","0.0-282.0","v8fotb86","","","","","","","",""
"4716.644999999902","{""judgement"":1}","[0]","survey-likert","283","714365","0.0-283.0","v8fotb86","","","","","","","","1"
"5033.104999999981","{""confidence"":0}","[0]","survey-likert","284","719399","0.0-284.0","v8fotb86","","","","","","","",""
"","","","call-function","285","719400","0.0-285.0","v8fotb86","","","","","","","",""
"null","","","html-keyboard-response","286","720904","0.0-286.0","v8fotb86","","<span style=""color:Black; font-size:50px;"">Agent A","null","","","","",""
"null","","","video-keyboard-response","287","724015","0.0-287.0","v8fotb86","","","null","","Agent A","veridical","STIM_SET_1/1159515.bmp_pp84_L3_V1.0_veridical_freeview_isoFalse.mp4",""
"null","","","html-keyboard-response","288","725519","0.0-288.0","v8fotb86","","<span style=""color:Black; font-size:50px;"">Agent B","null","","","","",""
"null","","","video-keyboard-response","289","728628","0.0-289.0","v8fotb86","","","null","","Agent B","scrambled","STIM_SET_1/1159515.bmp_pp84_L3_V1.0_scrambled_freeview_isoFalse.mp4",""
"","","","call-function","290","728628","0.0-290.0","v8fotb86","","","","","","","",""
"2219.180000000051","{""judgement"":0}","[0]","survey-likert","291","730849","0.0-291.0","v8fotb86","","","","","","","","0"
"3055.7600000000093","{""confidence"":0}","[0]","survey-likert","292","733905","0.0-292.0","v8fotb86","","","","","","","",""
"","","","call-function","293","733906","0.0-293.0","v8fotb86","","","","","","","",""
"null","","","html-keyboard-response","294","735410","0.0-294.0","v8fotb86","","<span style=""color:Black; font-size:50px;"">Agent A","null","","","","",""
"null","","","video-keyboard-response","295","738471","0.0-295.0","v8fotb86","","","null","","Agent A","veridical","STIM_SET_1/713760.bmp_pp81_L1_V1.0_veridical_freeview_isoFalse.mp4",""
"null","","","html-keyboard-response","296","739973","0.0-296.0","v8fotb86","","<span style=""color:Black; font-size:50px;"">Agent B","null","","","","",""
"null","","","video-keyboard-response","297","743034","0.0-297.0","v8fotb86","","","null","","Agent B","scrambled","STIM_SET_1/713760.bmp_pp81_L1_V1.0_scrambled_freeview_isoFalse.mp4",""
"","","","call-function","298","743034","0.0-298.0","v8fotb86","","","","","","","",""
"3536.2550000000047","{""judgement"":0}","[0]","survey-likert","299","746571","0.0-299.0","v8fotb86","","","","","","","","0"
"3087.405000000028","{""confidence"":0}","[0]","survey-likert","300","749659","0.0-300.0","v8fotb86","","","","","","","",""
"","","","call-function","301","749660","0.0-301.0","v8fotb86","","","","","","","",""
"null","","","html-keyboard-response","302","751166","0.0-302.0","v8fotb86","","<span style=""color:Black; font-size:50px;"">Agent A","null","","","","",""
"null","","","video-keyboard-response","303","754235","0.0-303.0","v8fotb86","","","null","","Agent A","scrambled","STIM_SET_1/1592619.bmp_pp56_L3_V1.0_scrambled_freeview_isoFalse.mp4",""
"null","","","html-keyboard-response","304","755742","0.0-304.0","v8fotb86","","<span style=""color:Black; font-size:50px;"">Agent B","null","","","","",""
"null","","","video-keyboard-response","305","758810","0.0-305.0","v8fotb86","","","null","","Agent B","veridical","STIM_SET_1/1592619.bmp_pp56_L3_V1.0_veridical_freeview_isoFalse.mp4",""
"","","","call-function","306","758811","0.0-306.0","v8fotb86","","","","","","","",""
"3167.0250000000233","{""judgement"":1}","[0]","survey-likert","307","761979","0.0-307.0","v8fotb86","","","","","","","","1"
"1898.2149999999674","{""confidence"":0}","[0]","survey-likert","308","763878","0.0-308.0","v8fotb86","","","","","","","",""
"","","","call-function","309","763879","0.0-309.0","v8fotb86","","","","","","","",""
"null","","","html-keyboard-response","310","765381","0.0-310.0","v8fotb86","","<span style=""color:Black; font-size:50px;"">Agent A","null","","","","",""
"null","","","video-keyboard-response","311","768462","0.0-311.0","v8fotb86","","","null","","Agent A","scrambled","STIM_SET_1/1592372.bmp_pp76_L1_V1.0_scrambled_freeview_isoFalse.mp4",""
"null","","","html-keyboard-response","312","769964","0.0-312.0","v8fotb86","","<span style=""color:Black; font-size:50px;"">Agent B","null","","","","",""
"null","","","video-keyboard-response","313","773045","0.0-313.0","v8fotb86","","","null","","Agent B","veridical","STIM_SET_1/1592372.bmp_pp76_L1_V1.0_veridical_freeview_isoFalse.mp4",""
"","","","call-function","314","773045","0.0-314.0","v8fotb86","","","","","","","",""
"2505.4599999999627","{""judgement"":0}","[0]","survey-likert","315","775551","0.0-315.0","v8fotb86","","","","","","","","1"
"1848.2099999999627","{""confidence"":0}","[0]","survey-likert","316","777401","0.0-316.0","v8fotb86","","","","","","","",""
"","","","call-function","317","777401","0.0-317.0","v8fotb86","","","","","","","",""
"null","","","html-keyboard-response","318","778903","0.0-318.0","v8fotb86","","<span style=""color:Black; font-size:50px;"">Agent A","null","","","","",""
"null","","","video-keyboard-response","319","781989","0.0-319.0","v8fotb86","","","null","","Agent A","veridical","STIM_SET_1/713707.bmp_pp154_L1_V1.0_veridical_freeview_isoFalse.mp4",""
"null","","","html-keyboard-response","320","783491","0.0-320.0","v8fotb86","","<span style=""color:Black; font-size:50px;"">Agent B","null","","","","",""
"null","","","video-keyboard-response","321","786615","0.0-321.0","v8fotb86","","","null","","Agent B","scrambled","STIM_SET_1/713707.bmp_pp154_L1_V1.0_scrambled_freeview_isoFalse.mp4",""
"","","","call-function","322","786616","0.0-322.0","v8fotb86","","","","","","","",""
"2017.7300000000978","{""judgement"":1}","[0]","survey-likert","323","788635","0.0-323.0","v8fotb86","","","","","","","","0"
"2825.9150000000373","{""confidence"":0}","[0]","survey-likert","324","791462","0.0-324.0","v8fotb86","","","","","","","",""
"","","","call-function","325","791462","0.0-325.0","v8fotb86","","","","","","","",""
"null","","","html-keyboard-response","326","792964","0.0-326.0","v8fotb86","","<span style=""color:Black; font-size:50px;"">Agent A","null","","","","",""
"null","","","video-keyboard-response","327","796038","0.0-327.0","v8fotb86","","","null","","Agent A","veridical","STIM_SET_1/1159621.bmp_pp92_L3_V1.0_veridical_freeview_isoFalse.mp4",""
"null","","","html-keyboard-response","328","797539","0.0-328.0","v8fotb86","","<span style=""color:Black; font-size:50px;"">Agent B","null","","","","",""
"null","","","video-keyboard-response","329","800654","0.0-329.0","v8fotb86","","","null","","Agent B","scrambled","STIM_SET_1/1159621.bmp_pp92_L3_V1.0_scrambled_freeview_isoFalse.mp4",""
"","","","call-function","330","800654","0.0-330.0","v8fotb86","","","","","","","",""
"2501.944999999949","{""judgement"":1}","[0]","survey-likert","331","803157","0.0-331.0","v8fotb86","","","","","","","","0"
"2434.5200000000186","{""confidence"":0}","[0]","survey-likert","332","805593","0.0-332.0","v8fotb86","","","","","","","",""
"37534.47999999998","","","instructions","333","843128","0.0-333.0","v8fotb86","[{""page_index"":0,""viewing_time"":35155.36499999999},{""page_index"":1,""viewing_time"":1515.0600000000559},{""page_index"":2,""viewing_time"":863.8449999999721}]","","","","","","",""
"15955.650000000023","","","instructions","334","859084","0.0-334.0","v8fotb86","[{""page_index"":0,""viewing_time"":718.3699999999953},{""page_index"":1,""viewing_time"":1533.0600000000559},{""page_index"":2,""viewing_time"":13704.109999999986}]","","","","","","",""
"","","","call-function","335","859084","0.0-335.0","v8fotb86","","","","","","","",""
"null","","","html-keyboard-response","336","860586","0.0-336.0","v8fotb86","","<span style=""color:Black; font-size:50px;"">Agent A","null","","","","",""
"null","","","video-keyboard-response","337","863665","0.0-337.0","v8fotb86","","","null","","Agent A","veridical","STIM_SET_1/1159675.bmp_pp77_L3_V1.0_veridical_freeview_isoFalse.mp4",""
"null","","","html-keyboard-response","338","865167","0.0-338.0","v8fotb86","","<span style=""color:Black; font-size:50px;"">Agent B","null","","","","",""
"null","","","video-keyboard-response","339","868246","0.0-339.0","v8fotb86","","","null","","Agent B","scrambled","STIM_SET_1/1159675.bmp_pp77_L3_V1.0_scrambled_freeview_isoFalse.mp4",""
"","","","call-function","340","868246","0.0-340.0","v8fotb86","","","","","","","",""
"1962.625","{""judgement"":0}","[0]","survey-likert","341","870210","0.0-341.0","v8fotb86","","","","","","","","0"
"3765.1300000000047","{""confidence"":0}","[0]","survey-likert","342","873976","0.0-342.0","v8fotb86","","","","","","","",""
"","","","call-function","343","873976","0.0-343.0","v8fotb86","","","","","","","",""
"null","","","html-keyboard-response","344","875480","0.0-344.0","v8fotb86","","<span style=""color:Black; font-size:50px;"">Agent A","null","","","","",""
"null","","","video-keyboard-response","345","878559","0.0-345.0","v8fotb86","","","null","","Agent A","scrambled","STIM_SET_1/1591961.bmp_pp67_L2_V1.0_scrambled_freeview_isoFalse.mp4",""
"null","","","html-keyboard-response","346","880063","0.0-346.0","v8fotb86","","<span style=""color:Black; font-size:50px;"">Agent B","null","","","","",""
"null","","","video-keyboard-response","347","883135","0.0-347.0","v8fotb86","","","null","","Agent B","veridical","STIM_SET_1/1591961.bmp_pp67_L2_V1.0_veridical_freeview_isoFalse.mp4",""
"","","","call-function","348","883136","0.0-348.0","v8fotb86","","","","","","","",""
"2245.6100000001024","{""judgement"":0}","[0]","survey-likert","349","885382","0.0-349.0","v8fotb86","","","","","","","","1"
"2977.664999999921","{""confidence"":0}","[0]","survey-likert","350","888361","0.0-350.0","v8fotb86","","","","","","","",""
"","","","call-function","351","888361","0.0-351.0","v8fotb86","","","","","","","",""
"null","","","html-keyboard-response","352","889863","0.0-352.0","v8fotb86","","<span style=""color:Black; font-size:50px;"">Agent A","null","","","","",""
"null","","","video-keyboard-response","353","892964","0.0-353.0","v8fotb86","","","null","","Agent A","veridical","STIM_SET_1/1159813.bmp_pp79_L2_V1.0_veridical_freeview_isoFalse.mp4",""
"null","","","html-keyboard-response","354","894465","0.0-354.0","v8fotb86","","<span style=""color:Black; font-size:50px;"">Agent B","null","","","","",""
"null","","","video-keyboard-response","355","897568","0.0-355.0","v8fotb86","","","null","","Agent B","scrambled","STIM_SET_1/1159813.bmp_pp79_L2_V1.0_scrambled_freeview_isoFalse.mp4",""
"","","","call-function","356","897570","0.0-356.0","v8fotb86","","","","","","","",""
"4366.839999999967","{""judgement"":1}","[0]","survey-likert","357","901938","0.0-357.0","v8fotb86","","","","","","","","0"
"2181.7550000000047","{""confidence"":0}","[0]","survey-likert","358","904121","0.0-358.0","v8fotb86","","","","","","","",""
"","","","call-function","359","904122","0.0-359.0","v8fotb86","","","","","","","",""
"null","","","html-keyboard-response","360","905627","0.0-360.0","v8fotb86","","<span style=""color:Black; font-size:50px;"">Agent A","null","","","","",""
"null","","","video-keyboard-response","361","908693","0.0-361.0","v8fotb86","","","null","","Agent A","veridical","STIM_SET_1/1159882.bmp_pp61_L2_V1.0_veridical_freeview_isoFalse.mp4",""
"null","","","html-keyboard-response","362","910197","0.0-362.0","v8fotb86","","<span style=""color:Black; font-size:50px;"">Agent B","null","","","","",""
"null","","","video-keyboard-response","363","913269","0.0-363.0","v8fotb86","","","null","","Agent B","scrambled","STIM_SET_1/1159882.bmp_pp61_L2_V1.0_scrambled_freeview_isoFalse.mp4",""
"","","","call-function","364","913269","0.0-364.0","v8fotb86","","","","","","","",""
"5870.570000000065","{""judgement"":1}","[0]","survey-likert","365","919141","0.0-365.0","v8fotb86","","","","","","","","0"
"3402.1600000000326","{""confidence"":0}","[0]","survey-likert","366","922544","0.0-366.0","v8fotb86","","","","","","","",""
"","","","call-function","367","922545","0.0-367.0","v8fotb86","","","","","","","",""
"null","","","html-keyboard-response","368","924047","0.0-368.0","v8fotb86","","<span style=""color:Black; font-size:50px;"">Agent A","null","","","","",""
"null","","","video-keyboard-response","369","927115","0.0-369.0","v8fotb86","","","null","","Agent A","veridical","STIM_SET_1/1159572.bmp_pp71_L1_V1.0_veridical_freeview_isoFalse.mp4",""
"null","","","html-keyboard-response","370","928617","0.0-370.0","v8fotb86","","<span style=""color:Black; font-size:50px;"">Agent B","null","","","","",""
"null","","","video-keyboard-response","371","931686","0.0-371.0","v8fotb86","","","null","","Agent B","scrambled","STIM_SET_1/1159572.bmp_pp71_L1_V1.0_scrambled_freeview_isoFalse.mp4",""
"","","","call-function","372","931687","0.0-372.0","v8fotb86","","","","","","","",""
"2125.454999999958","{""judgement"":1}","[0]","survey-likert","373","933813","0.0-373.0","v8fotb86","","","","","","","","0"
"3387.975000000093","{""confidence"":0}","[0]","survey-likert","374","937202","0.0-374.0","v8fotb86","","","","","","","",""
"","","","call-function","375","937203","0.0-375.0","v8fotb86","","","","","","","",""
"null","","","html-keyboard-response","376","938704","0.0-376.0","v8fotb86","","<span style=""color:Black; font-size:50px;"">Agent A","null","","","","",""
"null","","","video-keyboard-response","377","941821","0.0-377.0","v8fotb86","","","null","","Agent A","scrambled","STIM_SET_1/1593146.bmp_pp93_L1_V1.0_scrambled_freeview_isoFalse.mp4",""
"null","","","html-keyboard-response","378","943325","0.0-378.0","v8fotb86","","<span style=""color:Black; font-size:50px;"">Agent B","null","","","","",""
"null","","","video-keyboard-response","379","946436","0.0-379.0","v8fotb86","","","null","","Agent B","veridical","STIM_SET_1/1593146.bmp_pp93_L1_V1.0_veridical_freeview_isoFalse.mp4",""
"","","","call-function","380","946437","0.0-380.0","v8fotb86","","","","","","","",""
"2257.5050000000047","{""judgement"":0}","[0]","survey-likert","381","948695","0.0-381.0","v8fotb86","","","","","","","","1"
"2263.2399999999907","{""confidence"":0}","[0]","survey-likert","382","950959","0.0-382.0","v8fotb86","","","","","","","",""
"","","","call-function","383","950960","0.0-383.0","v8fotb86","","","","","","","",""
"null","","","html-keyboard-response","384","952461","0.0-384.0","v8fotb86","","<span style=""color:Black; font-size:50px;"">Agent A","null","","","","",""
"null","","","video-keyboard-response","385","955579","0.0-385.0","v8fotb86","","","null","","Agent A","scrambled","STIM_SET_1/498155.bmp_pp61_L2_V1.0_scrambled_freeview_isoFalse.mp4",""
"null","","","html-keyboard-response","386","957086","0.0-386.0","v8fotb86","","<span style=""color:Black; font-size:50px;"">Agent B","null","","","","",""
"null","","","video-keyboard-response","387","960204","0.0-387.0","v8fotb86","","","null","","Agent B","veridical","STIM_SET_1/498155.bmp_pp61_L2_V1.0_veridical_freeview_isoFalse.mp4",""
"","","","call-function","388","960204","0.0-388.0","v8fotb86","","","","","","","",""
"3431.3699999999953","{""judgement"":1}","[0]","survey-likert","389","963636","0.0-389.0","v8fotb86","","","","","","","","1"
"3464.1849999999395","{""confidence"":0}","[0]","survey-likert","390","967101","0.0-390.0","v8fotb86","","","","","","","",""
"","","","call-function","391","967102","0.0-391.0","v8fotb86","","","","","","","",""
"null","","","html-keyboard-response","392","968603","0.0-392.0","v8fotb86","","<span style=""color:Black; font-size:50px;"">Agent A","null","","","","",""
"null","","","video-keyboard-response","393","971724","0.0-393.0","v8fotb86","","","null","","Agent A","scrambled","STIM_SET_1/713593.bmp_pp64_L1_V1.0_scrambled_freeview_isoFalse.mp4",""
"null","","","html-keyboard-response","394","973225","0.0-394.0","v8fotb86","","<span style=""color:Black; font-size:50px;"">Agent B","null","","","","",""
"null","","","video-keyboard-response","395","976302","0.0-395.0","v8fotb86","","","null","","Agent B","veridical","STIM_SET_1/713593.bmp_pp64_L1_V1.0_veridical_freeview_isoFalse.mp4",""
"","","","call-function","396","976302","0.0-396.0","v8fotb86","","","","","","","",""
"2169.045000000042","{""judgement"":0}","[0]","survey-likert","397","978472","0.0-397.0","v8fotb86","","","","","","","","1"
"2666.829999999958","{""confidence"":0}","[0]","survey-likert","398","981140","0.0-398.0","v8fotb86","","","","","","","",""
"","","","call-function","399","981141","0.0-399.0","v8fotb86","","","","","","","",""
"null","","","html-keyboard-response","400","982647","0.0-400.0","v8fotb86","","<span style=""color:Black; font-size:50px;"">Agent A","null","","","","",""
"null","","","video-keyboard-response","401","985720","0.0-401.0","v8fotb86","","","null","","Agent A","veridical","STIM_SET_1/1159768.bmp_pp89_L1_V1.0_veridical_freeview_isoFalse.mp4",""
"null","","","html-keyboard-response","402","987224","0.0-402.0","v8fotb86","","<span style=""color:Black; font-size:50px;"">Agent B","null","","","","",""
"null","","","video-keyboard-response","403","990293","0.0-403.0","v8fotb86","","","null","","Agent B","scrambled","STIM_SET_1/1159768.bmp_pp89_L1_V1.0_scrambled_freeview_isoFalse.mp4",""
"","","","call-function","404","990295","0.0-404.0","v8fotb86","","","","","","","",""
"2447.9349999999395","{""judgement"":0}","[0]","survey-likert","405","992744","0.0-405.0","v8fotb86","","","","","","","","0"
"2176.469999999972","{""confidence"":0}","[0]","survey-likert","406","994923","0.0-406.0","v8fotb86","","","","","","","",""
"","","","call-function","407","994923","0.0-407.0","v8fotb86","","","","","","","",""
"null","","","html-keyboard-response","408","996424","0.0-408.0","v8fotb86","","<span style=""color:Black; font-size:50px;"">Agent A","null","","","","",""
"null","","","video-keyboard-response","409","999502","0.0-409.0","v8fotb86","","","null","","Agent A","veridical","STIM_SET_1/713211.bmp_pp100_L3_V1.0_veridical_freeview_isoFalse.mp4",""
"null","","","html-keyboard-response","410","1001005","0.0-410.0","v8fotb86","","<span style=""color:Black; font-size:50px;"">Agent B","null","","","","",""
"null","","","video-keyboard-response","411","1004083","0.0-411.0","v8fotb86","","","null","","Agent B","scrambled","STIM_SET_1/713211.bmp_pp100_L3_V1.0_scrambled_freeview_isoFalse.mp4",""
"","","","call-function","412","1004084","0.0-412.0","v8fotb86","","","","","","","",""
"2105.7750000000233","{""judgement"":0}","[0]","survey-likert","413","1006191","0.0-413.0","v8fotb86","","","","","","","","0"
"2725.0200000000186","{""confidence"":0}","[0]","survey-likert","414","1008918","0.0-414.0","v8fotb86","","","","","","","",""
"51682.15500000003","","","instructions","415","1060600","0.0-415.0","v8fotb86","[{""page_index"":0,""viewing_time"":51082.98999999999},{""page_index"":1,""viewing_time"":555.9450000000652},{""page_index"":2,""viewing_time"":43.00499999988824}]","","","","","","",""
"1479.8050000001676","","","instructions","416","1062081","0.0-416.0","v8fotb86","[{""page_index"":0,""viewing_time"":552.1000000000931},{""page_index"":1,""viewing_time"":431.10000000009313},{""page_index"":2,""viewing_time"":496.42499999981374}]","","","","","","",""
"","","","call-function","417","1062081","0.0-417.0","v8fotb86","","","","","","","",""
"null","","","html-keyboard-response","418","1063585","0.0-418.0","v8fotb86","","<span style=""color:Black; font-size:50px;"">Agent A","null","","","","",""
"null","","","video-keyboard-response","419","1066652","0.0-419.0","v8fotb86","","","null","","Agent A","veridical","STIM_SET_1/1593035.bmp_pp94_L2_V1.0_veridical_freeview_isoFalse.mp4",""
"null","","","html-keyboard-response","420","1068156","0.0-420.0","v8fotb86","","<span style=""color:Black; font-size:50px;"">Agent B","null","","","","",""
"null","","","video-keyboard-response","421","1071224","0.0-421.0","v8fotb86","","","null","","Agent B","scrambled","STIM_SET_1/1593035.bmp_pp94_L2_V1.0_scrambled_freeview_isoFalse.mp4",""
"","","","call-function","422","1071224","0.0-422.0","v8fotb86","","","","","","","",""
"1867.3999999999069","{""judgement"":1}","[0]","survey-likert","423","1073092","0.0-423.0","v8fotb86","","","","","","","","0"
"1577.9850000001024","{""confidence"":0}","[0]","survey-likert","424","1074671","0.0-424.0","v8fotb86","","","","","","","",""
"","","","call-function","425","1074672","0.0-425.0","v8fotb86","","","","","","","",""
"null","","","html-keyboard-response","426","1076175","0.0-426.0","v8fotb86","","<span style=""color:Black; font-size:50px;"">Agent A","null","","","","",""
"null","","","video-keyboard-response","427","1079251","0.0-427.0","v8fotb86","","","null","","Agent A","scrambled","STIM_SET_1/1592286.bmp_pp52_L1_V1.0_scrambled_freeview_isoFalse.mp4",""
"null","","","html-keyboard-response","428","1080753","0.0-428.0","v8fotb86","","<span style=""color:Black; font-size:50px;"">Agent B","null","","","","",""
"null","","","video-keyboard-response","429","1083825","0.0-429.0","v8fotb86","","","null","","Agent B","veridical","STIM_SET_1/1592286.bmp_pp52_L1_V1.0_veridical_freeview_isoFalse.mp4",""
"","","","call-function","430","1083825","0.0-430.0","v8fotb86","","","","","","","",""
"3287.559999999823","{""judgement"":0}","[0]","survey-likert","431","1087113","0.0-431.0","v8fotb86","","","","","","","","1"
"4192.774999999907","{""confidence"":0}","[0]","survey-likert","432","1091308","0.0-432.0","v8fotb86","","","","","","","",""
"","","","call-function","433","1091308","0.0-433.0","v8fotb86","","","","","","","",""
"null","","","html-keyboard-response","434","1092814","0.0-434.0","v8fotb86","","<span style=""color:Black; font-size:50px;"">Agent A","null","","","","",""
"null","","","video-keyboard-response","435","1095900","0.0-435.0","v8fotb86","","","null","","Agent A","veridical","STIM_SET_1/1591994.bmp_pp69_L3_V1.0_veridical_freeview_isoFalse.mp4",""
"null","","","html-keyboard-response","436","1097405","0.0-436.0","v8fotb86","","<span style=""color:Black; font-size:50px;"">Agent B","null","","","","",""
"null","","","video-keyboard-response","437","1100491","0.0-437.0","v8fotb86","","","null","","Agent B","scrambled","STIM_SET_1/1591994.bmp_pp69_L3_V1.0_scrambled_freeview_isoFalse.mp4",""
"","","","call-function","438","1100491","0.0-438.0","v8fotb86","","","","","","","",""
"3098.125","{""judgement"":1}","[0]","survey-likert","439","1103590","0.0-439.0","v8fotb86","","","","","","","","0"
"3779.1350000000093","{""confidence"":0}","[0]","survey-likert","440","1107370","0.0-440.0","v8fotb86","","","","","","","",""
"","","","call-function","441","1107371","0.0-441.0","v8fotb86","","","","","","","",""
"null","","","html-keyboard-response","442","1108873","0.0-442.0","v8fotb86","","<span style=""color:Black; font-size:50px;"">Agent A","null","","","","",""
"null","","","video-keyboard-response","443","1111994","0.0-443.0","v8fotb86","","","null","","Agent A","scrambled","STIM_SET_1/713749.bmp_pp88_L2_V1.0_scrambled_freeview_isoFalse.mp4",""
"null","","","html-keyboard-response","444","1113497","0.0-444.0","v8fotb86","","<span style=""color:Black; font-size:50px;"">Agent B","null","","","","",""
"null","","","video-keyboard-response","445","1116612","0.0-445.0","v8fotb86","","","null","","Agent B","veridical","STIM_SET_1/713749.bmp_pp88_L2_V1.0_veridical_freeview_isoFalse.mp4",""
"","","","call-function","446","1116613","0.0-446.0","v8fotb86","","","","","","","",""
"2486.090000000084","{""judgement"":0}","[0]","survey-likert","447","1119100","0.0-447.0","v8fotb86","","","","","","","","1"
"3646.9150000000373","{""confidence"":0}","[0]","survey-likert","448","1122750","0.0-448.0","v8fotb86","","","","","","","",""
"","","","call-function","449","1122751","0.0-449.0","v8fotb86","","","","","","","",""
"null","","","html-keyboard-response","450","1124259","0.0-450.0","v8fotb86","","<span style=""color:Black; font-size:50px;"">Agent A","null","","","","",""
"null","","","video-keyboard-response","451","1127320","0.0-451.0","v8fotb86","","","null","","Agent A","scrambled","STIM_SET_1/713779.bmp_pp152_L2_V1.0_scrambled_freeview_isoFalse.mp4",""
"null","","","html-keyboard-response","452","1128827","0.0-452.0","v8fotb86","","<span style=""color:Black; font-size:50px;"">Agent B","null","","","","",""
"null","","","video-keyboard-response","453","1131889","0.0-453.0","v8fotb86","","","null","","Agent B","veridical","STIM_SET_1/713779.bmp_pp152_L2_V1.0_veridical_freeview_isoFalse.mp4",""
"","","","call-function","454","1131890","0.0-454.0","v8fotb86","","","","","","","",""
"3770.4200000001583","{""judgement"":1}","[0]","survey-likert","455","1135662","0.0-455.0","v8fotb86","","","","","","","","1"
"2784.7900000000373","{""confidence"":0}","[0]","survey-likert","456","1138448","0.0-456.0","v8fotb86","","","","","","","",""
"","","","call-function","457","1138448","0.0-457.0","v8fotb86","","","","","","","",""
"null","","","html-keyboard-response","458","1139952","0.0-458.0","v8fotb86","","<span style=""color:Black; font-size:50px;"">Agent A","null","","","","",""
"null","","","video-keyboard-response","459","1143021","0.0-459.0","v8fotb86","","","null","","Agent A","veridical","STIM_SET_1/1159447.bmp_pp70_L2_V1.0_veridical_freeview_isoFalse.mp4",""
"null","","","html-keyboard-response","460","1144528","0.0-460.0","v8fotb86","","<span style=""color:Black; font-size:50px;"">Agent B","null","","","","",""
"null","","","video-keyboard-response","461","1147597","0.0-461.0","v8fotb86","","","null","","Agent B","scrambled","STIM_SET_1/1159447.bmp_pp70_L2_V1.0_scrambled_freeview_isoFalse.mp4",""
"","","","call-function","462","1147597","0.0-462.0","v8fotb86","","","","","","","",""
"3812.2299999999814","{""judgement"":0}","[0]","survey-likert","463","1151410","0.0-463.0","v8fotb86","","","","","","","","0"
"3758.695000000065","{""confidence"":0}","[0]","survey-likert","464","1155170","0.0-464.0","v8fotb86","","","","","","","",""
"","","","call-function","465","1155171","0.0-465.0","v8fotb86","","","","","","","",""
"null","","","html-keyboard-response","466","1156672","0.0-466.0","v8fotb86","","<span style=""color:Black; font-size:50px;"">Agent A","null","","","","",""
"null","","","video-keyboard-response","467","1159797","0.0-467.0","v8fotb86","","","null","","Agent A","scrambled","STIM_SET_1/713666.bmp_pp97_L3_V1.0_scrambled_freeview_isoFalse.mp4",""
"null","","","html-keyboard-response","468","1161303","0.0-468.0","v8fotb86","","<span style=""color:Black; font-size:50px;"">Agent B","null","","","","",""
"null","","","video-keyboard-response","469","1164430","0.0-469.0","v8fotb86","","","null","","Agent B","veridical","STIM_SET_1/713666.bmp_pp97_L3_V1.0_veridical_freeview_isoFalse.mp4",""
"","","","call-function","470","1164431","0.0-470.0","v8fotb86","","","","","","","",""
"2800.215000000084","{""judgement"":1}","[0]","survey-likert","471","1167232","0.0-471.0","v8fotb86","","","","","","","","1"
"2390.6049999999814","{""confidence"":0}","[0]","survey-likert","472","1169624","0.0-472.0","v8fotb86","","","","","","","",""
"","","","call-function","473","1169624","0.0-473.0","v8fotb86","","","","","","","",""
"null","","","html-keyboard-response","474","1171129","0.0-474.0","v8fotb86","","<span style=""color:Black; font-size:50px;"">Agent A","null","","","","",""
"null","","","video-keyboard-response","475","1174245","0.0-475.0","v8fotb86","","","null","","Agent A","scrambled","STIM_SET_1/1592397.bmp_pp85_L3_V1.0_scrambled_freeview_isoFalse.mp4",""
"null","","","html-keyboard-response","476","1175749","0.0-476.0","v8fotb86","","<span style=""color:Black; font-size:50px;"">Agent B","null","","","","",""
"null","","","video-keyboard-response","477","1178861","0.0-477.0","v8fotb86","","","null","","Agent B","veridical","STIM_SET_1/1592397.bmp_pp85_L3_V1.0_veridical_freeview_isoFalse.mp4",""
"","","","call-function","478","1178862","0.0-478.0","v8fotb86","","","","","","","",""
"2846.600000000093","{""judgement"":0}","[0]","survey-likert","479","1181709","0.0-479.0","v8fotb86","","","","","","","","1"
"2993.3850000000093","{""confidence"":0}","[0]","survey-likert","480","1184704","0.0-480.0","v8fotb86","","","","","","","",""
"","","","call-function","481","1184704","0.0-481.0","v8fotb86","","","","","","","",""
"null","","","html-keyboard-response","482","1186206","0.0-482.0","v8fotb86","","<span style=""color:Black; font-size:50px;"">Agent A","null","","","","",""
"null","","","video-keyboard-response","483","1189324","0.0-483.0","v8fotb86","","","null","","Agent A","scrambled","STIM_SET_1/1592657.bmp_pp98_L1_V1.0_scrambled_freeview_isoFalse.mp4",""
"null","","","html-keyboard-response","484","1190830","0.0-484.0","v8fotb86","","<span style=""color:Black; font-size:50px;"">Agent B","null","","","","",""
"null","","","video-keyboard-response","485","1193908","0.0-485.0","v8fotb86","","","null","","Agent B","veridical","STIM_SET_1/1592657.bmp_pp98_L1_V1.0_veridical_freeview_isoFalse.mp4",""
"","","","call-function","486","1193909","0.0-486.0","v8fotb86","","","","","","","",""
"3011.785000000149","{""judgement"":0}","[0]","survey-likert","487","1196922","0.0-487.0","v8fotb86","","","","","","","","1"
"1506.7700000000186","{""confidence"":0}","[0]","survey-likert","488","1198430","0.0-488.0","v8fotb86","","","","","","","",""
"","","","call-function","489","1198430","0.0-489.0","v8fotb86","","","","","","","",""
"null","","","html-keyboard-response","490","1199935","0.0-490.0","v8fotb86","","<span style=""color:Black; font-size:50px;"">Agent A","null","","","","",""
"null","","","video-keyboard-response","491","1203011","0.0-491.0","v8fotb86","","","null","","Agent A","scrambled","STIM_SET_1/1160168.bmp_pp53_L2_V1.0_scrambled_freeview_isoFalse.mp4",""
"null","","","html-keyboard-response","492","1204517","0.0-492.0","v8fotb86","","<span style=""color:Black; font-size:50px;"">Agent B","null","","","","",""
"null","","","video-keyboard-response","493","1207596","0.0-493.0","v8fotb86","","","null","","Agent B","veridical","STIM_SET_1/1160168.bmp_pp53_L2_V1.0_veridical_freeview_isoFalse.mp4",""
"","","","call-function","494","1207597","0.0-494.0","v8fotb86","","","","","","","",""
"2014.9950000001118","{""judgement"":0}","[0]","survey-likert","495","1209613","0.0-495.0","v8fotb86","","","","","","","","1"
"1971.2399999999907","{""confidence"":0}","[0]","survey-likert","496","1211585","0.0-496.0","v8fotb86","","","","","","","",""
"29212.439999999944","","","instructions","497","1240798","0.0-497.0","v8fotb86","[{""page_index"":0,""viewing_time"":27525.310000000056},{""page_index"":1,""viewing_time"":870.9099999999162},{""page_index"":2,""viewing_time"":816.0649999999441}]","","","","","","",""
"1480.6650000000373","","","instructions","498","1242280","0.0-498.0","v8fotb86","[{""page_index"":0,""viewing_time"":412.42500000004657},{""page_index"":1,""viewing_time"":503.09499999997206},{""page_index"":2,""viewing_time"":565.0400000000373}]","","","","","","",""
"","","","call-function","499","1242280","0.0-499.0","v8fotb86","","","","","","","",""
"null","","","html-keyboard-response","500","1243782","0.0-500.0","v8fotb86","","<span style=""color:Black; font-size:50px;"">Agent A","null","","","","",""
"null","","","video-keyboard-response","501","1246855","0.0-501.0","v8fotb86","","","null","","Agent A","veridical","STIM_SET_1/1159440.bmp_pp98_L1_V1.0_veridical_freeview_isoFalse.mp4",""
"null","","","html-keyboard-response","502","1248358","0.0-502.0","v8fotb86","","<span style=""color:Black; font-size:50px;"">Agent B","null","","","","",""
"null","","","video-keyboard-response","503","1251487","0.0-503.0","v8fotb86","","","null","","Agent B","scrambled","STIM_SET_1/1159440.bmp_pp98_L1_V1.0_scrambled_freeview_isoFalse.mp4",""
"","","","call-function","504","1251488","0.0-504.0","v8fotb86","","","","","","","",""
"2118.820000000065","{""judgement"":0}","[0]","survey-likert","505","1253609","0.0-505.0","v8fotb86","","","","","","","","0"
"3483.1350000000093","{""confidence"":0}","[0]","survey-likert","506","1257093","0.0-506.0","v8fotb86","","","","","","","",""
"","","","call-function","507","1257093","0.0-507.0","v8fotb86","","","","","","","",""
"null","","","html-keyboard-response","508","1258599","0.0-508.0","v8fotb86","","<span style=""color:Black; font-size:50px;"">Agent A","null","","","","",""
"null","","","video-keyboard-response","509","1261690","0.0-509.0","v8fotb86","","","null","","Agent A","veridical","STIM_SET_1/1592351.bmp_pp51_L1_V1.0_veridical_freeview_isoFalse.mp4",""
"null","","","html-keyboard-response","510","1263192","0.0-510.0","v8fotb86","","<span style=""color:Black; font-size:50px;"">Agent B","null","","","","",""
"null","","","video-keyboard-response","511","1266262","0.0-511.0","v8fotb86","","","null","","Agent B","scrambled","STIM_SET_1/1592351.bmp_pp51_L1_V1.0_scrambled_freeview_isoFalse.mp4",""
"","","","call-function","512","1266263","0.0-512.0","v8fotb86","","","","","","","",""
"2848.219999999972","{""judgement"":0}","[0]","survey-likert","513","1269113","0.0-513.0","v8fotb86","","","","","","","","0"
"3972.75","{""confidence"":0}","[0]","survey-likert","514","1273087","0.0-514.0","v8fotb86","","","","","","","",""
"","","","call-function","515","1273087","0.0-515.0","v8fotb86","","","","","","","",""
"null","","","html-keyboard-response","516","1274591","0.0-516.0","v8fotb86","","<span style=""color:Black; font-size:50px;"">Agent A","null","","","","",""
"null","","","video-keyboard-response","517","1277663","0.0-517.0","v8fotb86","","","null","","Agent A","scrambled","STIM_SET_1/1592934.bmp_pp63_L1_V1.0_scrambled_freeview_isoFalse.mp4",""
"null","","","html-keyboard-response","518","1279167","0.0-518.0","v8fotb86","","<span style=""color:Black; font-size:50px;"">Agent B","null","","","","",""
"null","","","video-keyboard-response","519","1282239","0.0-519.0","v8fotb86","","","null","","Agent B","veridical","STIM_SET_1/1592934.bmp_pp63_L1_V1.0_veridical_freeview_isoFalse.mp4",""
"","","","call-function","520","1282240","0.0-520.0","v8fotb86","","","","","","","",""
"3211.9950000001118","{""judgement"":0}","[0]","survey-likert","521","1285453","0.0-521.0","v8fotb86","","","","","","","","1"
"1534.1899999999441","{""confidence"":0}","[0]","survey-likert","522","1286988","0.0-522.0","v8fotb86","","","","","","","",""
"","","","call-function","523","1286989","0.0-523.0","v8fotb86","","","","","","","",""
"null","","","html-keyboard-response","524","1288492","0.0-524.0","v8fotb86","","<span style=""color:Black; font-size:50px;"">Agent A","null","","","","",""
"null","","","video-keyboard-response","525","1291573","0.0-525.0","v8fotb86","","","null","","Agent A","veridical","STIM_SET_1/498253.bmp_pp67_L2_V1.0_veridical_freeview_isoFalse.mp4",""
"null","","","html-keyboard-response","526","1293076","0.0-526.0","v8fotb86","","<span style=""color:Black; font-size:50px;"">Agent B","null","","","","",""
"null","","","video-keyboard-response","527","1296191","0.0-527.0","v8fotb86","","","null","","Agent B","scrambled","STIM_SET_1/498253.bmp_pp67_L2_V1.0_scrambled_freeview_isoFalse.mp4",""
"","","","call-function","528","1296191","0.0-528.0","v8fotb86","","","","","","","",""
"2936.369999999879","{""judgement"":1}","[0]","survey-likert","529","1299129","0.0-529.0","v8fotb86","","","","","","","","0"
"2176.0200000000186","{""confidence"":0}","[0]","survey-likert","530","1301306","0.0-530.0","v8fotb86","","","","","","","",""
"","","","call-function","531","1301306","0.0-531.0","v8fotb86","","","","","","","",""
"null","","","html-keyboard-response","532","1302808","0.0-532.0","v8fotb86","","<span style=""color:Black; font-size:50px;"">Agent A","null","","","","",""
"null","","","video-keyboard-response","533","1305889","0.0-533.0","v8fotb86","","","null","","Agent A","veridical","STIM_SET_1/1159777.bmp_pp77_L3_V1.0_veridical_freeview_isoFalse.mp4",""
"null","","","html-keyboard-response","534","1307392","0.0-534.0","v8fotb86","","<span style=""color:Black; font-size:50px;"">Agent B","null","","","","",""
"null","","","video-keyboard-response","535","1310472","0.0-535.0","v8fotb86","","","null","","Agent B","scrambled","STIM_SET_1/1159777.bmp_pp77_L3_V1.0_scrambled_freeview_isoFalse.mp4",""
"","","","call-function","536","1310472","0.0-536.0","v8fotb86","","","","","","","",""
"4610.39000000013","{""judgement"":1}","[0]","survey-likert","537","1315084","0.0-537.0","v8fotb86","","","","","","","","0"
"1466.0999999998603","{""confidence"":0}","[0]","survey-likert","538","1316551","0.0-538.0","v8fotb86","","","","","","","",""
"","","","call-function","539","1316551","0.0-539.0","v8fotb86","","","","","","","",""
"null","","","html-keyboard-response","540","1318053","0.0-540.0","v8fotb86","","<span style=""color:Black; font-size:50px;"">Agent A","null","","","","",""
"null","","","video-keyboard-response","541","1321165","0.0-541.0","v8fotb86","","","null","","Agent A","scrambled","STIM_SET_1/1592362.bmp_pp95_L2_V1.0_scrambled_freeview_isoFalse.mp4",""
"null","","","html-keyboard-response","542","1322667","0.0-542.0","v8fotb86","","<span style=""color:Black; font-size:50px;"">Agent B","null","","","","",""
"null","","","video-keyboard-response","543","1325774","0.0-543.0","v8fotb86","","","null","","Agent B","veridical","STIM_SET_1/1592362.bmp_pp95_L2_V1.0_veridical_freeview_isoFalse.mp4",""
"","","","call-function","544","1325775","0.0-544.0","v8fotb86","","","","","","","",""
"1958.9899999999907","{""judgement"":0}","[0]","survey-likert","545","1327735","0.0-545.0","v8fotb86","","","","","","","","1"
"2430.0799999998417","{""confidence"":0}","[0]","survey-likert","546","1330166","0.0-546.0","v8fotb86","","","","","","","",""
"","","","call-function","547","1330167","0.0-547.0","v8fotb86","","","","","","","",""
"null","","","html-keyboard-response","548","1331671","0.0-548.0","v8fotb86","","<span style=""color:Black; font-size:50px;"">Agent A","null","","","","",""
"null","","","video-keyboard-response","549","1334734","0.0-549.0","v8fotb86","","","null","","Agent A","veridical","STIM_SET_1/713684.bmp_pp85_L3_V1.0_veridical_freeview_isoFalse.mp4",""
"null","","","html-keyboard-response","550","1336236","0.0-550.0","v8fotb86","","<span style=""color:Black; font-size:50px;"">Agent B","null","","","","",""
"null","","","video-keyboard-response","551","1339328","0.0-551.0","v8fotb86","","","null","","Agent B","scrambled","STIM_SET_1/713684.bmp_pp85_L3_V1.0_scrambled_freeview_isoFalse.mp4",""
"","","","call-function","552","1339328","0.0-552.0","v8fotb86","","","","","","","",""
"4384.199999999953","{""judgement"":0}","[0]","survey-likert","553","1343713","0.0-553.0","v8fotb86","","","","","","","","0"
"3735.2399999999907","{""confidence"":0}","[0]","survey-likert","554","1347450","0.0-554.0","v8fotb86","","","","","","","",""
"","","","call-function","555","1347450","0.0-555.0","v8fotb86","","","","","","","",""
"null","","","html-keyboard-response","556","1348952","0.0-556.0","v8fotb86","","<span style=""color:Black; font-size:50px;"">Agent A","null","","","","",""
"null","","","video-keyboard-response","557","1352030","0.0-557.0","v8fotb86","","","null","","Agent A","veridical","STIM_SET_1/712977.bmp_pp51_L1_V1.0_veridical_freeview_isoFalse.mp4",""
"null","","","html-keyboard-response","558","1353537","0.0-558.0","v8fotb86","","<span style=""color:Black; font-size:50px;"">Agent B","null","","","","",""
"null","","","video-keyboard-response","559","1356619","0.0-559.0","v8fotb86","","","null","","Agent B","scrambled","STIM_SET_1/712977.bmp_pp51_L1_V1.0_scrambled_freeview_isoFalse.mp4",""
"","","","call-function","560","1356620","0.0-560.0","v8fotb86","","","","","","","",""
"3092.1750000000466","{""judgement"":1}","[0]","survey-likert","561","1359714","0.0-561.0","v8fotb86","","","","","","","","0"
"5117.790000000037","{""confidence"":0}","[0]","survey-likert","562","1364834","0.0-562.0","v8fotb86","","","","","","","",""
"","","","call-function","563","1364835","0.0-563.0","v8fotb86","","","","","","","",""
"null","","","html-keyboard-response","564","1366341","0.0-564.0","v8fotb86","","<span style=""color:Black; font-size:50px;"">Agent A","null","","","","",""
"null","","","video-keyboard-response","565","1369411","0.0-565.0","v8fotb86","","","null","","Agent A","veridical","STIM_SET_1/713796.bmp_pp84_L3_V1.0_veridical_freeview_isoFalse.mp4",""
"null","","","html-keyboard-response","566","1370918","0.0-566.0","v8fotb86","","<span style=""color:Black; font-size:50px;"">Agent B","null","","","","",""
"null","","","video-keyboard-response","567","1373992","0.0-567.0","v8fotb86","","","null","","Agent B","scrambled","STIM_SET_1/713796.bmp_pp84_L3_V1.0_scrambled_freeview_isoFalse.mp4",""
"","","","call-function","568","1373993","0.0-568.0","v8fotb86","","","","","","","",""
"4978.225000000093","{""judgement"":0}","[0]","survey-likert","569","1378972","0.0-569.0","v8fotb86","","","","","","","","0"
"2016.8799999998882","{""confidence"":0}","[0]","survey-likert","570","1380990","0.0-570.0","v8fotb86","","","","","","","",""
"","","","call-function","571","1380991","0.0-571.0","v8fotb86","","","","","","","",""
"null","","","html-keyboard-response","572","1382495","0.0-572.0","v8fotb86","","<span style=""color:Black; font-size:50px;"">Agent A","null","","","","",""
"null","","","video-keyboard-response","573","1385565","0.0-573.0","v8fotb86","","","null","","Agent A","veridical","STIM_SET_1/1592890.bmp_pp82_L2_V1.0_veridical_freeview_isoFalse.mp4",""
"null","","","html-keyboard-response","574","1387071","0.0-574.0","v8fotb86","","<span style=""color:Black; font-size:50px;"">Agent B","null","","","","",""
"null","","","video-keyboard-response","575","1390140","0.0-575.0","v8fotb86","","","null","","Agent B","scrambled","STIM_SET_1/1592890.bmp_pp82_L2_V1.0_scrambled_freeview_isoFalse.mp4",""
"","","","call-function","576","1390140","0.0-576.0","v8fotb86","","","","","","","",""
"2009.3950000000186","{""judgement"":0}","[0]","survey-likert","577","1392150","0.0-577.0","v8fotb86","","","","","","","","0"
"2197.4950000001118","{""confidence"":0}","[0]","survey-likert","578","1394349","0.0-578.0","v8fotb86","","","","","","","",""
"2714.3600000001024","","","instructions","579","1397064","0.0-579.0","v8fotb86","[{""page_index"":0,""viewing_time"":2714.225000000093}]","","","","","","",""
"4248.679999999935","","","instructions","580","1401313","0.0-580.0","v8fotb86","[{""page_index"":0,""viewing_time"":4248.464999999851}]","","","","","","",""
"14078.25","{""post-1"":2}","[0]","survey-likert","581","1415392","0.0-581.0","v8fotb86","","","","","","","",""
"7116.744999999879","{""post-1"":0}","[0]","survey-likert","582","1422510","0.0-582.0","v8fotb86","","","","","","","",""
"5256.329999999842","{""post-2"":2}","[0]","survey-likert","583","1427768","0.0-583.0","v8fotb86","","","","","","","",""
"10734.280000000028","{""post-2"":1}","[0]","survey-likert","584","1438504","0.0-584.0","v8fotb86","","","","","","","",""
"4437.405000000028","{""post-3"":1}","[0]","survey-likert","585","1442944","0.0-585.0","v8fotb86","","","","","","","",""
"9826.15000000014","{""post-3"":1}","[0]","survey-likert","586","1452772","0.0-586.0","v8fotb86","","","","","","","",""
"7689.735000000102","{""post-4"":2}","[0]","survey-likert","587","1460463","0.0-587.0","v8fotb86","","","","","","","",""
"5173.339999999851","{""post-4"":1}","[0]","survey-likert","588","1465637","0.0-588.0","v8fotb86","","","","","","","",""
"6928.52500000014","{""post-5"":1}","[0]","survey-likert","589","1472567","0.0-589.0","v8fotb86","","","","","","","",""
"2818.8799999998882","{""post-5"":2}","[0]","survey-likert","590","1475387","0.0-590.0","v8fotb86","","","","","","","",""
"50560.78000000003","{""Q0"":""It was very early in the morning, so my eyes kind of started blurring especially with all of the moving pictures.""}","","survey-text","591","1525953","0.0-591.0","v8fotb86","","","","","","","",""
"28517.905000000028","{""Q0"":""I tried to focus on the hotspots looking at faces""}","","survey-text","592","1554475","0.0-592.0","v8fotb86","","","","","","","",""
"19189.344999999972","{""Q0"":""I not have a miniheadache""}","","survey-text","593","1573668","0.0-593.0","v8fotb86","","","","","","","",""
"95064.875","","","instructions","594","1668733","0.0-594.0","v8fotb86","[{""page_index"":0,""viewing_time"":95064.7350000001}]","","","","","","",""
"19912.600000000093","{""Experimenter_end"":[""Printed ID# v8fotb86 on consent form"",""Given subject SONA credit or payment"",""Given the subject debrief form""]}","[0]","survey-multi-select","595","1688648","0.0-595.0","v8fotb86","","","","","","","",""
