"rt","responses","question_order","trial_type","trial_index","time_elapsed","internal_node_id","ID","view_history","stimulus","key_press","value","agent","condition","image","correct_answer"
"90845.08","{""Experimenter"":[""Confirmed subject's identity (ID card)"",""Confirmed normal or corrected-to-normal vision"",""Obtained consent (signature and date)"",""Checked the test room lighting"",""Checked computer screen lighting"",""Checked distance from screen to chin rest (50cm)"",""Cleaned and adjusted chin rest"",""Counterbalanced the order of the tasks"",""Opened the experiment in Firefox"",""Made the experiment full screen"",""Encouraged subject to silence phone, put away distractors, etc.""]}","[0]","survey-multi-select","0","90853","0.0-0.0","vat48sj1","","","","","","","",""
"44863.53999999999","","","instructions","1","135718","0.0-1.0","vat48sj1","[{""page_index"":0,""viewing_time"":44863.39}]","","","","","","",""
"11599.945000000007","","","instructions","2","147319","0.0-2.0","vat48sj1","[{""page_index"":0,""viewing_time"":2481.8850000000093},{""page_index"":1,""viewing_time"":4327.054999999993},{""page_index"":2,""viewing_time"":4790.875}]","","","","","","",""
"2637.9199999999837","","","instructions","3","149957","0.0-3.0","vat48sj1","[{""page_index"":0,""viewing_time"":2637.8150000000023}]","","","","","","",""
"null","","","video-keyboard-response","4","153081","0.0-4.0","vat48sj1","","","null","","","","",""
"18971.48999999999","","","instructions","5","172053","0.0-5.0","vat48sj1","[{""page_index"":0,""viewing_time"":2346.389999999985},{""page_index"":1,""viewing_time"":3843.935000000027},{""page_index"":2,""viewing_time"":943.054999999993},{""page_index"":3,""viewing_time"":5512.440000000002},{""page_index"":4,""viewing_time"":6325.104999999981}]","","","","","","",""
"9510.660000000003","","","instructions","6","181565","0.0-6.0","vat48sj1","[{""page_index"":0,""viewing_time"":9510.540000000008}]","","","","","","",""
"","","","call-function","7","181566","0.0-7.0","vat48sj1","","","","","","","",""
"null","","","html-keyboard-response","8","183071","0.0-8.0","vat48sj1","","<span style=""color:Black; font-size:50px;"">Agent A","null","","","","",""
"null","","","video-keyboard-response","9","185860","0.0-9.0","vat48sj1","","","null","","Agent A","veridical","FOR_REV_BLOBBY_STIM/1159768.bmp_pp89_L1_V1.0_veridical_freeview_isoFalse_fps144.mp4",""
"null","","","html-keyboard-response","10","187366","0.0-10.0","vat48sj1","","<span style=""color:Black; font-size:50px;"">Agent B","null","","","","",""
"null","","","video-keyboard-response","11","190148","0.0-11.0","vat48sj1","","","null","","Agent B","scrambled","FOR_REV_BLOBBY_STIM/1159768.bmp_pp89_L1_V1.0_veridical_freeview_isoFalse_fps144_reversed_REAL.mp4",""
"","","","call-function","12","190148","0.0-12.0","vat48sj1","","","","","","","",""
"6643.755000000005","{""judgement"":1}","[0]","survey-likert","13","196793","0.0-13.0","vat48sj1","","","","","","","","0"
"5117.9499999999825","{""confidence"":0}","[0]","survey-likert","14","201912","0.0-14.0","vat48sj1","","","","","","","",""
"","","","call-function","15","201913","0.0-15.0","vat48sj1","","","","","","","",""
"null","","","html-keyboard-response","16","203417","0.0-16.0","vat48sj1","","<span style=""color:Black; font-size:50px;"">Agent A","null","","","","",""
"null","","","video-keyboard-response","17","206205","0.0-17.0","vat48sj1","","","null","","Agent A","veridical","FOR_REV_BLOBBY_STIM/1159855.bmp_pp99_L2_V1.0_veridical_freeview_isoFalse_fps144.mp4",""
"null","","","html-keyboard-response","18","207707","0.0-18.0","vat48sj1","","<span style=""color:Black; font-size:50px;"">Agent B","null","","","","",""
"null","","","video-keyboard-response","19","210499","0.0-19.0","vat48sj1","","","null","","Agent B","scrambled","FOR_REV_BLOBBY_STIM/1159855.bmp_pp99_L2_V1.0_veridical_freeview_isoFalse_fps144_reversed_REAL.mp4",""
"","","","call-function","20","210500","0.0-20.0","vat48sj1","","","","","","","",""
"11568.445000000007","{""judgement"":0}","[0]","survey-likert","21","222069","0.0-21.0","vat48sj1","","","","","","","","0"
"1873.1500000000233","{""confidence"":0}","[0]","survey-likert","22","223945","0.0-22.0","vat48sj1","","","","","","","",""
"","","","call-function","23","223945","0.0-23.0","vat48sj1","","","","","","","",""
"null","","","html-keyboard-response","24","225448","0.0-24.0","vat48sj1","","<span style=""color:Black; font-size:50px;"">Agent A","null","","","","",""
"null","","","video-keyboard-response","25","228320","0.0-25.0","vat48sj1","","","null","","Agent A","scrambled","FOR_REV_BLOBBY_STIM/1592499.bmp_pp96_L2_V1.0_veridical_freeview_isoFalse_fps144_reversed_REAL.mp4",""
"null","","","html-keyboard-response","26","229822","0.0-26.0","vat48sj1","","<span style=""color:Black; font-size:50px;"">Agent B","null","","","","",""
"null","","","video-keyboard-response","27","232626","0.0-27.0","vat48sj1","","","null","","Agent B","veridical","FOR_REV_BLOBBY_STIM/1592499.bmp_pp96_L2_V1.0_veridical_freeview_isoFalse_fps144.mp4",""
"","","","call-function","28","232626","0.0-28.0","vat48sj1","","","","","","","",""
"1766.4700000000012","{""judgement"":0}","[0]","survey-likert","29","234393","0.0-29.0","vat48sj1","","","","","","","","1"
"2288.204999999987","{""confidence"":3}","[0]","survey-likert","30","236682","0.0-30.0","vat48sj1","","","","","","","",""
"","","","call-function","31","236683","0.0-31.0","vat48sj1","","","","","","","",""
"null","","","html-keyboard-response","32","238188","0.0-32.0","vat48sj1","","<span style=""color:Black; font-size:50px;"">Agent A","null","","","","",""
"null","","","video-keyboard-response","33","241059","0.0-33.0","vat48sj1","","","null","","Agent A","veridical","FOR_REV_BLOBBY_STIM/713681.bmp_pp86_L2_V1.0_veridical_freeview_isoFalse_fps144.mp4",""
"null","","","html-keyboard-response","34","242561","0.0-34.0","vat48sj1","","<span style=""color:Black; font-size:50px;"">Agent B","null","","","","",""
"null","","","video-keyboard-response","35","245377","0.0-35.0","vat48sj1","","","null","","Agent B","scrambled","FOR_REV_BLOBBY_STIM/713681.bmp_pp86_L2_V1.0_veridical_freeview_isoFalse_fps144_reversed_REAL.mp4",""
"","","","call-function","36","245377","0.0-36.0","vat48sj1","","","","","","","",""
"2311.595000000001","{""judgement"":0}","[0]","survey-likert","37","247689","0.0-37.0","vat48sj1","","","","","","","","0"
"1998.0049999999756","{""confidence"":2}","[0]","survey-likert","38","249688","0.0-38.0","vat48sj1","","","","","","","",""
"","","","call-function","39","249689","0.0-39.0","vat48sj1","","","","","","","",""
"null","","","html-keyboard-response","40","251193","0.0-40.0","vat48sj1","","<span style=""color:Black; font-size:50px;"">Agent A","null","","","","",""
"null","","","video-keyboard-response","41","254033","0.0-41.0","vat48sj1","","","null","","Agent A","veridical","FOR_REV_BLOBBY_STIM/1592286.bmp_pp52_L1_V1.0_veridical_freeview_isoFalse_fps144.mp4",""
"null","","","html-keyboard-response","42","255535","0.0-42.0","vat48sj1","","<span style=""color:Black; font-size:50px;"">Agent B","null","","","","",""
"null","","","video-keyboard-response","43","258355","0.0-43.0","vat48sj1","","","null","","Agent B","scrambled","FOR_REV_BLOBBY_STIM/1592286.bmp_pp52_L1_V1.0_veridical_freeview_isoFalse_fps144_reversed_REAL.mp4",""
"","","","call-function","44","258355","0.0-44.0","vat48sj1","","","","","","","",""
"1286.9250000000175","{""judgement"":0}","[0]","survey-likert","45","259643","0.0-45.0","vat48sj1","","","","","","","","0"
"1930.0750000000116","{""confidence"":2}","[0]","survey-likert","46","261574","0.0-46.0","vat48sj1","","","","","","","",""
"","","","call-function","47","261575","0.0-47.0","vat48sj1","","","","","","","",""
"null","","","html-keyboard-response","48","263078","0.0-48.0","vat48sj1","","<span style=""color:Black; font-size:50px;"">Agent A","null","","","","",""
"null","","","video-keyboard-response","49","265851","0.0-49.0","vat48sj1","","","null","","Agent A","veridical","FOR_REV_BLOBBY_STIM/713749.bmp_pp88_L2_V1.0_veridical_freeview_isoFalse_fps144.mp4",""
"null","","","html-keyboard-response","50","267355","0.0-50.0","vat48sj1","","<span style=""color:Black; font-size:50px;"">Agent B","null","","","","",""
"null","","","video-keyboard-response","51","270085","0.0-51.0","vat48sj1","","","null","","Agent B","scrambled","FOR_REV_BLOBBY_STIM/713749.bmp_pp88_L2_V1.0_veridical_freeview_isoFalse_fps144_reversed_REAL.mp4",""
"","","","call-function","52","270086","0.0-52.0","vat48sj1","","","","","","","",""
"2595.579999999958","{""judgement"":1}","[0]","survey-likert","53","272682","0.0-53.0","vat48sj1","","","","","","","","0"
"2299.9249999999884","{""confidence"":0}","[0]","survey-likert","54","274983","0.0-54.0","vat48sj1","","","","","","","",""
"","","","call-function","55","274983","0.0-55.0","vat48sj1","","","","","","","",""
"null","","","html-keyboard-response","56","276485","0.0-56.0","vat48sj1","","<span style=""color:Black; font-size:50px;"">Agent A","null","","","","",""
"null","","","video-keyboard-response","57","279307","0.0-57.0","vat48sj1","","","null","","Agent A","scrambled","FOR_REV_BLOBBY_STIM/285751.bmp_pp55_L3_V1.0_veridical_freeview_isoFalse_fps144_reversed_REAL.mp4",""
"null","","","html-keyboard-response","58","280813","0.0-58.0","vat48sj1","","<span style=""color:Black; font-size:50px;"">Agent B","null","","","","",""
"null","","","video-keyboard-response","59","283656","0.0-59.0","vat48sj1","","","null","","Agent B","veridical","FOR_REV_BLOBBY_STIM/285751.bmp_pp55_L3_V1.0_veridical_freeview_isoFalse_fps144.mp4",""
"","","","call-function","60","283657","0.0-60.0","vat48sj1","","","","","","","",""
"3516.484999999986","{""judgement"":0}","[0]","survey-likert","61","287174","0.0-61.0","vat48sj1","","","","","","","","1"
"1591.469999999972","{""confidence"":0}","[0]","survey-likert","62","288766","0.0-62.0","vat48sj1","","","","","","","",""
"","","","call-function","63","288767","0.0-63.0","vat48sj1","","","","","","","",""
"null","","","html-keyboard-response","64","290269","0.0-64.0","vat48sj1","","<span style=""color:Black; font-size:50px;"">Agent A","null","","","","",""
"null","","","video-keyboard-response","65","292894","0.0-65.0","vat48sj1","","","null","","Agent A","veridical","FOR_REV_BLOBBY_STIM/286001.bmp_pp54_L2_V1.0_veridical_freeview_isoFalse_fps144.mp4",""
"null","","","html-keyboard-response","66","294401","0.0-66.0","vat48sj1","","<span style=""color:Black; font-size:50px;"">Agent B","null","","","","",""
"null","","","video-keyboard-response","67","297019","0.0-67.0","vat48sj1","","","null","","Agent B","scrambled","FOR_REV_BLOBBY_STIM/286001.bmp_pp54_L2_V1.0_veridical_freeview_isoFalse_fps144_reversed_REAL.mp4",""
"","","","call-function","68","297020","0.0-68.0","vat48sj1","","","","","","","",""
"1639.6500000000233","{""judgement"":1}","[0]","survey-likert","69","298660","0.0-69.0","vat48sj1","","","","","","","","0"
"2558.7849999999744","{""confidence"":0}","[0]","survey-likert","70","301221","0.0-70.0","vat48sj1","","","","","","","",""
"","","","call-function","71","301222","0.0-71.0","vat48sj1","","","","","","","",""
"null","","","html-keyboard-response","72","302728","0.0-72.0","vat48sj1","","<span style=""color:Black; font-size:50px;"">Agent A","null","","","","",""
"null","","","video-keyboard-response","73","305485","0.0-73.0","vat48sj1","","","null","","Agent A","scrambled","FOR_REV_BLOBBY_STIM/1591954.bmp_pp62_L2_V1.0_veridical_freeview_isoFalse_fps144_reversed_REAL.mp4",""
"null","","","html-keyboard-response","74","306991","0.0-74.0","vat48sj1","","<span style=""color:Black; font-size:50px;"">Agent B","null","","","","",""
"null","","","video-keyboard-response","75","309732","0.0-75.0","vat48sj1","","","null","","Agent B","veridical","FOR_REV_BLOBBY_STIM/1591954.bmp_pp62_L2_V1.0_veridical_freeview_isoFalse_fps144.mp4",""
"","","","call-function","76","309733","0.0-76.0","vat48sj1","","","","","","","",""
"4766.700000000012","{""judgement"":1}","[0]","survey-likert","77","314501","0.0-77.0","vat48sj1","","","","","","","","1"
"1159.4550000000163","{""confidence"":0}","[0]","survey-likert","78","315661","0.0-78.0","vat48sj1","","","","","","","",""
"","","","call-function","79","315662","0.0-79.0","vat48sj1","","","","","","","",""
"null","","","html-keyboard-response","80","317167","0.0-80.0","vat48sj1","","<span style=""color:Black; font-size:50px;"">Agent A","null","","","","",""
"null","","","video-keyboard-response","81","319980","0.0-81.0","vat48sj1","","","null","","Agent A","scrambled","FOR_REV_BLOBBY_STIM/498175.bmp_pp154_L1_V1.0_veridical_freeview_isoFalse_fps144_reversed_REAL.mp4",""
"null","","","html-keyboard-response","82","321485","0.0-82.0","vat48sj1","","<span style=""color:Black; font-size:50px;"">Agent B","null","","","","",""
"null","","","video-keyboard-response","83","324294","0.0-83.0","vat48sj1","","","null","","Agent B","veridical","FOR_REV_BLOBBY_STIM/498175.bmp_pp154_L1_V1.0_veridical_freeview_isoFalse_fps144.mp4",""
"","","","call-function","84","324294","0.0-84.0","vat48sj1","","","","","","","",""
"1698.7999999999884","{""judgement"":1}","[0]","survey-likert","85","325994","0.0-85.0","vat48sj1","","","","","","","","1"
"1798.655000000028","{""confidence"":1}","[0]","survey-likert","86","327795","0.0-86.0","vat48sj1","","","","","","","",""
"46275.71000000002","","","instructions","87","374071","0.0-87.0","vat48sj1","[{""page_index"":0,""viewing_time"":1540.5999999999767},{""page_index"":1,""viewing_time"":42768.860000000044},{""page_index"":2,""viewing_time"":1966.0999999999767}]","","","","","","",""
"4179.179999999993","","","instructions","88","378251","0.0-88.0","vat48sj1","[{""page_index"":0,""viewing_time"":1423.0599999999977},{""page_index"":1,""viewing_time"":2056.969999999972},{""page_index"":2,""viewing_time"":699.0450000000419}]","","","","","","",""
"","","","call-function","89","378252","0.0-89.0","vat48sj1","","","","","","","",""
"null","","","html-keyboard-response","90","379758","0.0-90.0","vat48sj1","","<span style=""color:Black; font-size:50px;"">Agent A","null","","","","",""
"null","","","video-keyboard-response","91","382307","0.0-91.0","vat48sj1","","","null","","Agent A","scrambled","FOR_REV_BLOBBY_STIM/1159813.bmp_pp79_L2_V1.0_veridical_freeview_isoFalse_fps144_reversed_REAL.mp4",""
"null","","","html-keyboard-response","92","383809","0.0-92.0","vat48sj1","","<span style=""color:Black; font-size:50px;"">Agent B","null","","","","",""
"null","","","video-keyboard-response","93","386359","0.0-93.0","vat48sj1","","","null","","Agent B","veridical","FOR_REV_BLOBBY_STIM/1159813.bmp_pp79_L2_V1.0_veridical_freeview_isoFalse_fps144.mp4",""
"","","","call-function","94","386360","0.0-94.0","vat48sj1","","","","","","","",""
"2293.0100000000093","{""judgement"":0}","[0]","survey-likert","95","388654","0.0-95.0","vat48sj1","","","","","","","","1"
"1374.7600000000093","{""confidence"":0}","[0]","survey-likert","96","390030","0.0-96.0","vat48sj1","","","","","","","",""
"","","","call-function","97","390030","0.0-97.0","vat48sj1","","","","","","","",""
"null","","","html-keyboard-response","98","391535","0.0-98.0","vat48sj1","","<span style=""color:Black; font-size:50px;"">Agent A","null","","","","",""
"null","","","video-keyboard-response","99","394078","0.0-99.0","vat48sj1","","","null","","Agent A","scrambled","FOR_REV_BLOBBY_STIM/713760.bmp_pp81_L1_V1.0_veridical_freeview_isoFalse_fps144_reversed_REAL.mp4",""
"null","","","html-keyboard-response","100","395584","0.0-100.0","vat48sj1","","<span style=""color:Black; font-size:50px;"">Agent B","null","","","","",""
"null","","","video-keyboard-response","101","398128","0.0-101.0","vat48sj1","","","null","","Agent B","veridical","FOR_REV_BLOBBY_STIM/713760.bmp_pp81_L1_V1.0_veridical_freeview_isoFalse_fps144.mp4",""
"","","","call-function","102","398129","0.0-102.0","vat48sj1","","","","","","","",""
"1623.344999999972","{""judgement"":1}","[0]","survey-likert","103","399753","0.0-103.0","vat48sj1","","","","","","","","1"
"2429.2449999999953","{""confidence"":0}","[0]","survey-likert","104","402183","0.0-104.0","vat48sj1","","","","","","","",""
"","","","call-function","105","402184","0.0-105.0","vat48sj1","","","","","","","",""
"null","","","html-keyboard-response","106","403688","0.0-106.0","vat48sj1","","<span style=""color:Black; font-size:50px;"">Agent A","null","","","","",""
"null","","","video-keyboard-response","107","406406","0.0-107.0","vat48sj1","","","null","","Agent A","scrambled","FOR_REV_BLOBBY_STIM/1592133.bmp_pp75_L1_V1.0_veridical_freeview_isoFalse_fps144_reversed_REAL.mp4",""
"null","","","html-keyboard-response","108","407910","0.0-108.0","vat48sj1","","<span style=""color:Black; font-size:50px;"">Agent B","null","","","","",""
"null","","","video-keyboard-response","109","410632","0.0-109.0","vat48sj1","","","null","","Agent B","veridical","FOR_REV_BLOBBY_STIM/1592133.bmp_pp75_L1_V1.0_veridical_freeview_isoFalse_fps144.mp4",""
"","","","call-function","110","410632","0.0-110.0","vat48sj1","","","","","","","",""
"1227.984999999986","{""judgement"":0}","[0]","survey-likert","111","411861","0.0-111.0","vat48sj1","","","","","","","","1"
"4024.4649999999674","{""confidence"":0}","[0]","survey-likert","112","415886","0.0-112.0","vat48sj1","","","","","","","",""
"","","","call-function","113","415887","0.0-113.0","vat48sj1","","","","","","","",""
"null","","","html-keyboard-response","114","417389","0.0-114.0","vat48sj1","","<span style=""color:Black; font-size:50px;"">Agent A","null","","","","",""
"null","","","video-keyboard-response","115","420021","0.0-115.0","vat48sj1","","","null","","Agent A","veridical","FOR_REV_BLOBBY_STIM/1593146.bmp_pp93_L1_V1.0_veridical_freeview_isoFalse_fps144.mp4",""
"null","","","html-keyboard-response","116","421525","0.0-116.0","vat48sj1","","<span style=""color:Black; font-size:50px;"">Agent B","null","","","","",""
"null","","","video-keyboard-response","117","424159","0.0-117.0","vat48sj1","","","null","","Agent B","scrambled","FOR_REV_BLOBBY_STIM/1593146.bmp_pp93_L1_V1.0_veridical_freeview_isoFalse_fps144_reversed_REAL.mp4",""
"","","","call-function","118","424160","0.0-118.0","vat48sj1","","","","","","","",""
"2525.2449999999953","{""judgement"":0}","[0]","survey-likert","119","426686","0.0-119.0","vat48sj1","","","","","","","","0"
"1996.210000000021","{""confidence"":0}","[0]","survey-likert","120","428683","0.0-120.0","vat48sj1","","","","","","","",""
"","","","call-function","121","428683","0.0-121.0","vat48sj1","","","","","","","",""
"null","","","html-keyboard-response","122","430186","0.0-122.0","vat48sj1","","<span style=""color:Black; font-size:50px;"">Agent A","null","","","","",""
"null","","","video-keyboard-response","123","432754","0.0-123.0","vat48sj1","","","null","","Agent A","veridical","FOR_REV_BLOBBY_STIM/1591876.bmp_pp63_L1_V1.0_veridical_freeview_isoFalse_fps144.mp4",""
"null","","","html-keyboard-response","124","434259","0.0-124.0","vat48sj1","","<span style=""color:Black; font-size:50px;"">Agent B","null","","","","",""
"null","","","video-keyboard-response","125","436813","0.0-125.0","vat48sj1","","","null","","Agent B","scrambled","FOR_REV_BLOBBY_STIM/1591876.bmp_pp63_L1_V1.0_veridical_freeview_isoFalse_fps144_reversed_REAL.mp4",""
"","","","call-function","126","436813","0.0-126.0","vat48sj1","","","","","","","",""
"1871.804999999993","{""judgement"":0}","[0]","survey-likert","127","438686","0.0-127.0","vat48sj1","","","","","","","","0"
"1362.5449999999837","{""confidence"":1}","[0]","survey-likert","128","440050","0.0-128.0","vat48sj1","","","","","","","",""
"","","","call-function","129","440050","0.0-129.0","vat48sj1","","","","","","","",""
"null","","","html-keyboard-response","130","441555","0.0-130.0","vat48sj1","","<span style=""color:Black; font-size:50px;"">Agent A","null","","","","",""
"null","","","video-keyboard-response","131","444312","0.0-131.0","vat48sj1","","","null","","Agent A","veridical","FOR_REV_BLOBBY_STIM/498170.bmp_pp153_L3_V1.0_veridical_freeview_isoFalse_fps144.mp4",""
"null","","","html-keyboard-response","132","445814","0.0-132.0","vat48sj1","","<span style=""color:Black; font-size:50px;"">Agent B","null","","","","",""
"null","","","video-keyboard-response","133","448533","0.0-133.0","vat48sj1","","","null","","Agent B","scrambled","FOR_REV_BLOBBY_STIM/498170.bmp_pp153_L3_V1.0_veridical_freeview_isoFalse_fps144_reversed_REAL.mp4",""
"","","","call-function","134","448533","0.0-134.0","vat48sj1","","","","","","","",""
"2238.4649999999674","{""judgement"":0}","[0]","survey-likert","135","450773","0.0-135.0","vat48sj1","","","","","","","","0"
"1689.0250000000233","{""confidence"":0}","[0]","survey-likert","136","452463","0.0-136.0","vat48sj1","","","","","","","",""
"","","","call-function","137","452463","0.0-137.0","vat48sj1","","","","","","","",""
"null","","","html-keyboard-response","138","453965","0.0-138.0","vat48sj1","","<span style=""color:Black; font-size:50px;"">Agent A","null","","","","",""
"null","","","video-keyboard-response","139","456759","0.0-139.0","vat48sj1","","","null","","Agent A","veridical","FOR_REV_BLOBBY_STIM/713620.bmp_pp65_L3_V1.0_veridical_freeview_isoFalse_fps144.mp4",""
"null","","","html-keyboard-response","140","458262","0.0-140.0","vat48sj1","","<span style=""color:Black; font-size:50px;"">Agent B","null","","","","",""
"null","","","video-keyboard-response","141","461049","0.0-141.0","vat48sj1","","","null","","Agent B","scrambled","FOR_REV_BLOBBY_STIM/713620.bmp_pp65_L3_V1.0_veridical_freeview_isoFalse_fps144_reversed_REAL.mp4",""
"","","","call-function","142","461049","0.0-142.0","vat48sj1","","","","","","","",""
"3672.8099999999977","{""judgement"":0}","[0]","survey-likert","143","464723","0.0-143.0","vat48sj1","","","","","","","","0"
"1411.625","{""confidence"":0}","[0]","survey-likert","144","466135","0.0-144.0","vat48sj1","","","","","","","",""
"","","","call-function","145","466136","0.0-145.0","vat48sj1","","","","","","","",""
"null","","","html-keyboard-response","146","467638","0.0-146.0","vat48sj1","","<span style=""color:Black; font-size:50px;"">Agent A","null","","","","",""
"null","","","video-keyboard-response","147","470215","0.0-147.0","vat48sj1","","","null","","Agent A","scrambled","FOR_REV_BLOBBY_STIM/1592397.bmp_pp85_L3_V1.0_veridical_freeview_isoFalse_fps144_reversed_REAL.mp4",""
"null","","","html-keyboard-response","148","471720","0.0-148.0","vat48sj1","","<span style=""color:Black; font-size:50px;"">Agent B","null","","","","",""
"null","","","video-keyboard-response","149","474337","0.0-149.0","vat48sj1","","","null","","Agent B","veridical","FOR_REV_BLOBBY_STIM/1592397.bmp_pp85_L3_V1.0_veridical_freeview_isoFalse_fps144.mp4",""
"","","","call-function","150","474338","0.0-150.0","vat48sj1","","","","","","","",""
"2033.515000000014","{""judgement"":0}","[0]","survey-likert","151","476372","0.0-151.0","vat48sj1","","","","","","","","1"
"1073.960000000021","{""confidence"":0}","[0]","survey-likert","152","477448","0.0-152.0","vat48sj1","","","","","","","",""
"","","","call-function","153","477449","0.0-153.0","vat48sj1","","","","","","","",""
"null","","","html-keyboard-response","154","478951","0.0-154.0","vat48sj1","","<span style=""color:Black; font-size:50px;"">Agent A","null","","","","",""
"null","","","video-keyboard-response","155","481794","0.0-155.0","vat48sj1","","","null","","Agent A","scrambled","FOR_REV_BLOBBY_STIM/1592807.bmp_pp68_L1_V1.0_veridical_freeview_isoFalse_fps144_reversed_REAL.mp4",""
"null","","","html-keyboard-response","156","483301","0.0-156.0","vat48sj1","","<span style=""color:Black; font-size:50px;"">Agent B","null","","","","",""
"null","","","video-keyboard-response","157","486142","0.0-157.0","vat48sj1","","","null","","Agent B","veridical","FOR_REV_BLOBBY_STIM/1592807.bmp_pp68_L1_V1.0_veridical_freeview_isoFalse_fps144.mp4",""
"","","","call-function","158","486143","0.0-158.0","vat48sj1","","","","","","","",""
"4096.780000000028","{""judgement"":0}","[0]","survey-likert","159","490241","0.0-159.0","vat48sj1","","","","","","","","1"
"2745.8699999999953","{""confidence"":0}","[0]","survey-likert","160","492988","0.0-160.0","vat48sj1","","","","","","","",""
"","","","call-function","161","492988","0.0-161.0","vat48sj1","","","","","","","",""
"null","","","html-keyboard-response","162","494489","0.0-162.0","vat48sj1","","<span style=""color:Black; font-size:50px;"">Agent A","null","","","","",""
"null","","","video-keyboard-response","163","497311","0.0-163.0","vat48sj1","","","null","","Agent A","veridical","FOR_REV_BLOBBY_STIM/1159829.bmp_pp91_L3_V1.0_veridical_freeview_isoFalse_fps144.mp4",""
"null","","","html-keyboard-response","164","498816","0.0-164.0","vat48sj1","","<span style=""color:Black; font-size:50px;"">Agent B","null","","","","",""
"null","","","video-keyboard-response","165","501634","0.0-165.0","vat48sj1","","","null","","Agent B","scrambled","FOR_REV_BLOBBY_STIM/1159829.bmp_pp91_L3_V1.0_veridical_freeview_isoFalse_fps144_reversed_REAL.mp4",""
"","","","call-function","166","501635","0.0-166.0","vat48sj1","","","","","","","",""
"4020.7850000000326","{""judgement"":0}","[0]","survey-likert","167","505657","0.0-167.0","vat48sj1","","","","","","","","0"
"1754.4650000000256","{""confidence"":0}","[0]","survey-likert","168","507412","0.0-168.0","vat48sj1","","","","","","","",""
"8074.660000000033","","","instructions","169","515487","0.0-169.0","vat48sj1","[{""page_index"":0,""viewing_time"":1424.5900000000256},{""page_index"":1,""viewing_time"":5647.215000000026},{""page_index"":2,""viewing_time"":1002.6749999999884}]","","","","","","",""
"2987.5650000000023","","","instructions","170","518475","0.0-170.0","vat48sj1","[{""page_index"":0,""viewing_time"":712.6699999999837},{""page_index"":1,""viewing_time"":1564.990000000049},{""page_index"":2,""viewing_time"":709.7999999999884}]","","","","","","",""
"","","","call-function","171","518476","0.0-171.0","vat48sj1","","","","","","","",""
"null","","","html-keyboard-response","172","519979","0.0-172.0","vat48sj1","","<span style=""color:Black; font-size:50px;"">Agent A","null","","","","",""
"null","","","video-keyboard-response","173","522814","0.0-173.0","vat48sj1","","","null","","Agent A","veridical","FOR_REV_BLOBBY_STIM/1159621.bmp_pp92_L3_V1.0_veridical_freeview_isoFalse_fps144.mp4",""
"null","","","html-keyboard-response","174","524317","0.0-174.0","vat48sj1","","<span style=""color:Black; font-size:50px;"">Agent B","null","","","","",""
"null","","","video-keyboard-response","175","527113","0.0-175.0","vat48sj1","","","null","","Agent B","scrambled","FOR_REV_BLOBBY_STIM/1159621.bmp_pp92_L3_V1.0_veridical_freeview_isoFalse_fps144_reversed_REAL.mp4",""
"","","","call-function","176","527114","0.0-176.0","vat48sj1","","","","","","","",""
"2337.6750000000466","{""judgement"":0}","[0]","survey-likert","177","529452","0.0-177.0","vat48sj1","","","","","","","","0"
"1475.1800000000512","{""confidence"":1}","[0]","survey-likert","178","530929","0.0-178.0","vat48sj1","","","","","","","",""
"","","","call-function","179","530929","0.0-179.0","vat48sj1","","","","","","","",""
"null","","","html-keyboard-response","180","532432","0.0-180.0","vat48sj1","","<span style=""color:Black; font-size:50px;"">Agent A","null","","","","",""
"null","","","video-keyboard-response","181","535265","0.0-181.0","vat48sj1","","","null","","Agent A","veridical","FOR_REV_BLOBBY_STIM/1592362.bmp_pp95_L2_V1.0_veridical_freeview_isoFalse_fps144.mp4",""
"null","","","html-keyboard-response","182","536768","0.0-182.0","vat48sj1","","<span style=""color:Black; font-size:50px;"">Agent B","null","","","","",""
"null","","","video-keyboard-response","183","539590","0.0-183.0","vat48sj1","","","null","","Agent B","scrambled","FOR_REV_BLOBBY_STIM/1592362.bmp_pp95_L2_V1.0_veridical_freeview_isoFalse_fps144_reversed_REAL.mp4",""
"","","","call-function","184","539591","0.0-184.0","vat48sj1","","","","","","","",""
"2185.0200000000186","{""judgement"":0}","[0]","survey-likert","185","541776","0.0-185.0","vat48sj1","","","","","","","","0"
"1330.3649999999907","{""confidence"":2}","[0]","survey-likert","186","543108","0.0-186.0","vat48sj1","","","","","","","",""
"","","","call-function","187","543108","0.0-187.0","vat48sj1","","","","","","","",""
"null","","","html-keyboard-response","188","544610","0.0-188.0","vat48sj1","","<span style=""color:Black; font-size:50px;"">Agent A","null","","","","",""
"null","","","video-keyboard-response","189","547288","0.0-189.0","vat48sj1","","","null","","Agent A","veridical","FOR_REV_BLOBBY_STIM/713211.bmp_pp100_L3_V1.0_veridical_freeview_isoFalse_fps144.mp4",""
"null","","","html-keyboard-response","190","548790","0.0-190.0","vat48sj1","","<span style=""color:Black; font-size:50px;"">Agent B","null","","","","",""
"null","","","video-keyboard-response","191","551451","0.0-191.0","vat48sj1","","","null","","Agent B","scrambled","FOR_REV_BLOBBY_STIM/713211.bmp_pp100_L3_V1.0_veridical_freeview_isoFalse_fps144_reversed_REAL.mp4",""
"","","","call-function","192","551452","0.0-192.0","vat48sj1","","","","","","","",""
"1822.1900000000605","{""judgement"":0}","[0]","survey-likert","193","553275","0.0-193.0","vat48sj1","","","","","","","","0"
"2081.319999999949","{""confidence"":2}","[0]","survey-likert","194","555357","0.0-194.0","vat48sj1","","","","","","","",""
"","","","call-function","195","555358","0.0-195.0","vat48sj1","","","","","","","",""
"null","","","html-keyboard-response","196","556861","0.0-196.0","vat48sj1","","<span style=""color:Black; font-size:50px;"">Agent A","null","","","","",""
"null","","","video-keyboard-response","197","559635","0.0-197.0","vat48sj1","","","null","","Agent A","veridical","FOR_REV_BLOBBY_STIM/1592619.bmp_pp56_L3_V1.0_veridical_freeview_isoFalse_fps144.mp4",""
"null","","","html-keyboard-response","198","561138","0.0-198.0","vat48sj1","","<span style=""color:Black; font-size:50px;"">Agent B","null","","","","",""
"null","","","video-keyboard-response","199","563891","0.0-199.0","vat48sj1","","","null","","Agent B","scrambled","FOR_REV_BLOBBY_STIM/1592619.bmp_pp56_L3_V1.0_veridical_freeview_isoFalse_fps144_reversed_REAL.mp4",""
"","","","call-function","200","563892","0.0-200.0","vat48sj1","","","","","","","",""
"2036.1650000000373","{""judgement"":1}","[0]","survey-likert","201","565930","0.0-201.0","vat48sj1","","","","","","","","0"
"1557.420000000042","{""confidence"":0}","[0]","survey-likert","202","567489","0.0-202.0","vat48sj1","","","","","","","",""
"","","","call-function","203","567490","0.0-203.0","vat48sj1","","","","","","","",""
"null","","","html-keyboard-response","204","568993","0.0-204.0","vat48sj1","","<span style=""color:Black; font-size:50px;"">Agent A","null","","","","",""
"null","","","video-keyboard-response","205","571796","0.0-205.0","vat48sj1","","","null","","Agent A","veridical","FOR_REV_BLOBBY_STIM/1159777.bmp_pp77_L3_V1.0_veridical_freeview_isoFalse_fps144.mp4",""
"null","","","html-keyboard-response","206","573298","0.0-206.0","vat48sj1","","<span style=""color:Black; font-size:50px;"">Agent B","null","","","","",""
"null","","","video-keyboard-response","207","576088","0.0-207.0","vat48sj1","","","null","","Agent B","scrambled","FOR_REV_BLOBBY_STIM/1159777.bmp_pp77_L3_V1.0_veridical_freeview_isoFalse_fps144_reversed_REAL.mp4",""
"","","","call-function","208","576089","0.0-208.0","vat48sj1","","","","","","","",""
"2360.6500000000233","{""judgement"":0}","[0]","survey-likert","209","578451","0.0-209.0","vat48sj1","","","","","","","","0"
"1286.8099999999395","{""confidence"":2}","[0]","survey-likert","210","579739","0.0-210.0","vat48sj1","","","","","","","",""
"","","","call-function","211","579739","0.0-211.0","vat48sj1","","","","","","","",""
"null","","","html-keyboard-response","212","581241","0.0-212.0","vat48sj1","","<span style=""color:Black; font-size:50px;"">Agent A","null","","","","",""
"null","","","video-keyboard-response","213","583977","0.0-213.0","vat48sj1","","","null","","Agent A","scrambled","FOR_REV_BLOBBY_STIM/498111.bmp_pp88_L2_V1.0_veridical_freeview_isoFalse_fps144_reversed_REAL.mp4",""
"null","","","html-keyboard-response","214","585482","0.0-214.0","vat48sj1","","<span style=""color:Black; font-size:50px;"">Agent B","null","","","","",""
"null","","","video-keyboard-response","215","588218","0.0-215.0","vat48sj1","","","null","","Agent B","veridical","FOR_REV_BLOBBY_STIM/498111.bmp_pp88_L2_V1.0_veridical_freeview_isoFalse_fps144.mp4",""
"","","","call-function","216","588218","0.0-216.0","vat48sj1","","","","","","","",""
"1252.6500000000233","{""judgement"":1}","[0]","survey-likert","217","589472","0.0-217.0","vat48sj1","","","","","","","","1"
"1803.329999999958","{""confidence"":0}","[0]","survey-likert","218","591276","0.0-218.0","vat48sj1","","","","","","","",""
"","","","call-function","219","591277","0.0-219.0","vat48sj1","","","","","","","",""
"null","","","html-keyboard-response","220","592779","0.0-220.0","vat48sj1","","<span style=""color:Black; font-size:50px;"">Agent A","null","","","","",""
"null","","","video-keyboard-response","221","595551","0.0-221.0","vat48sj1","","","null","","Agent A","scrambled","FOR_REV_BLOBBY_STIM/285933.bmp_pp81_L1_V1.0_veridical_freeview_isoFalse_fps144_reversed_REAL.mp4",""
"null","","","html-keyboard-response","222","597054","0.0-222.0","vat48sj1","","<span style=""color:Black; font-size:50px;"">Agent B","null","","","","",""
"null","","","video-keyboard-response","223","599826","0.0-223.0","vat48sj1","","","null","","Agent B","veridical","FOR_REV_BLOBBY_STIM/285933.bmp_pp81_L1_V1.0_veridical_freeview_isoFalse_fps144.mp4",""
"","","","call-function","224","599826","0.0-224.0","vat48sj1","","","","","","","",""
"1653.594999999972","{""judgement"":0}","[0]","survey-likert","225","601481","0.0-225.0","vat48sj1","","","","","","","","1"
"2288.515000000014","{""confidence"":0}","[0]","survey-likert","226","603771","0.0-226.0","vat48sj1","","","","","","","",""
"","","","call-function","227","603772","0.0-227.0","vat48sj1","","","","","","","",""
"null","","","html-keyboard-response","228","605275","0.0-228.0","vat48sj1","","<span style=""color:Black; font-size:50px;"">Agent A","null","","","","",""
"null","","","video-keyboard-response","229","608180","0.0-229.0","vat48sj1","","","null","","Agent A","scrambled","FOR_REV_BLOBBY_STIM/713089.bmp_pp60_L3_V1.0_veridical_freeview_isoFalse_fps144_reversed_REAL.mp4",""
"null","","","html-keyboard-response","230","609685","0.0-230.0","vat48sj1","","<span style=""color:Black; font-size:50px;"">Agent B","null","","","","",""
"null","","","video-keyboard-response","231","612580","0.0-231.0","vat48sj1","","","null","","Agent B","veridical","FOR_REV_BLOBBY_STIM/713089.bmp_pp60_L3_V1.0_veridical_freeview_isoFalse_fps144.mp4",""
"","","","call-function","232","612580","0.0-232.0","vat48sj1","","","","","","","",""
"1507.5200000000186","{""judgement"":1}","[0]","survey-likert","233","614089","0.0-233.0","vat48sj1","","","","","","","","1"
"1362.8549999999814","{""confidence"":1}","[0]","survey-likert","234","615453","0.0-234.0","vat48sj1","","","","","","","",""
"","","","call-function","235","615453","0.0-235.0","vat48sj1","","","","","","","",""
"null","","","html-keyboard-response","236","616955","0.0-236.0","vat48sj1","","<span style=""color:Black; font-size:50px;"">Agent A","null","","","","",""
"null","","","video-keyboard-response","237","619616","0.0-237.0","vat48sj1","","","null","","Agent A","scrambled","FOR_REV_BLOBBY_STIM/498149.bmp_pp99_L2_V1.0_veridical_freeview_isoFalse_fps144_reversed_REAL.mp4",""
"null","","","html-keyboard-response","238","621122","0.0-238.0","vat48sj1","","<span style=""color:Black; font-size:50px;"">Agent B","null","","","","",""
"null","","","video-keyboard-response","239","623781","0.0-239.0","vat48sj1","","","null","","Agent B","veridical","FOR_REV_BLOBBY_STIM/498149.bmp_pp99_L2_V1.0_veridical_freeview_isoFalse_fps144.mp4",""
"","","","call-function","240","623781","0.0-240.0","vat48sj1","","","","","","","",""
"2997.804999999935","{""judgement"":0}","[0]","survey-likert","241","626780","0.0-241.0","vat48sj1","","","","","","","","1"
"2679.460000000079","{""confidence"":0}","[0]","survey-likert","242","629460","0.0-242.0","vat48sj1","","","","","","","",""
"","","","call-function","243","629461","0.0-243.0","vat48sj1","","","","","","","",""
"null","","","html-keyboard-response","244","630967","0.0-244.0","vat48sj1","","<span style=""color:Black; font-size:50px;"">Agent A","null","","","","",""
"null","","","video-keyboard-response","245","633855","0.0-245.0","vat48sj1","","","null","","Agent A","scrambled","FOR_REV_BLOBBY_STIM/1159572.bmp_pp71_L1_V1.0_veridical_freeview_isoFalse_fps144_reversed_REAL.mp4",""
"null","","","html-keyboard-response","246","635357","0.0-246.0","vat48sj1","","<span style=""color:Black; font-size:50px;"">Agent B","null","","","","",""
"null","","","video-keyboard-response","247","638310","0.0-247.0","vat48sj1","","","null","","Agent B","veridical","FOR_REV_BLOBBY_STIM/1159572.bmp_pp71_L1_V1.0_veridical_freeview_isoFalse_fps144.mp4",""
"","","","call-function","248","638311","0.0-248.0","vat48sj1","","","","","","","",""
"2292.844999999972","{""judgement"":0}","[0]","survey-likert","249","640604","0.0-249.0","vat48sj1","","","","","","","","1"
"1739.5649999999441","{""confidence"":2}","[0]","survey-likert","250","642345","0.0-250.0","vat48sj1","","","","","","","",""
"21174.574999999953","","","instructions","251","663520","0.0-251.0","vat48sj1","[{""page_index"":0,""viewing_time"":1143.9599999999627},{""page_index"":1,""viewing_time"":18760.915000000037},{""page_index"":2,""viewing_time"":1269.545000000042}]","","","","","","",""
"1837.1399999998976","","","instructions","252","665358","0.0-252.0","vat48sj1","[{""page_index"":0,""viewing_time"":635.3149999999441},{""page_index"":1,""viewing_time"":587.640000000014},{""page_index"":2,""viewing_time"":614.0450000000419}]","","","","","","",""
"","","","call-function","253","665358","0.0-253.0","vat48sj1","","","","","","","",""
"null","","","html-keyboard-response","254","666862","0.0-254.0","vat48sj1","","<span style=""color:Black; font-size:50px;"">Agent A","null","","","","",""
"null","","","video-keyboard-response","255","669694","0.0-255.0","vat48sj1","","","null","","Agent A","scrambled","FOR_REV_BLOBBY_STIM/1159882.bmp_pp61_L2_V1.0_veridical_freeview_isoFalse_fps144_reversed_REAL.mp4",""
"null","","","html-keyboard-response","256","671196","0.0-256.0","vat48sj1","","<span style=""color:Black; font-size:50px;"">Agent B","null","","","","",""
"null","","","video-keyboard-response","257","674026","0.0-257.0","vat48sj1","","","null","","Agent B","veridical","FOR_REV_BLOBBY_STIM/1159882.bmp_pp61_L2_V1.0_veridical_freeview_isoFalse_fps144.mp4",""
"","","","call-function","258","674027","0.0-258.0","vat48sj1","","","","","","","",""
"2101.4000000000233","{""judgement"":1}","[0]","survey-likert","259","676131","0.0-259.0","vat48sj1","","","","","","","","1"
"2828.439999999944","{""confidence"":1}","[0]","survey-likert","260","678961","0.0-260.0","vat48sj1","","","","","","","",""
"","","","call-function","261","678962","0.0-261.0","vat48sj1","","","","","","","",""
"null","","","html-keyboard-response","262","680466","0.0-262.0","vat48sj1","","<span style=""color:Black; font-size:50px;"">Agent A","null","","","","",""
"null","","","video-keyboard-response","263","683288","0.0-263.0","vat48sj1","","","null","","Agent A","veridical","FOR_REV_BLOBBY_STIM/713403.bmp_pp80_L3_V1.0_veridical_freeview_isoFalse_fps144.mp4",""
"null","","","html-keyboard-response","264","684790","0.0-264.0","vat48sj1","","<span style=""color:Black; font-size:50px;"">Agent B","null","","","","",""
"null","","","video-keyboard-response","265","687611","0.0-265.0","vat48sj1","","","null","","Agent B","scrambled","FOR_REV_BLOBBY_STIM/713403.bmp_pp80_L3_V1.0_veridical_freeview_isoFalse_fps144_reversed_REAL.mp4",""
"","","","call-function","266","687612","0.0-266.0","vat48sj1","","","","","","","",""
"1655.1300000000047","{""judgement"":0}","[0]","survey-likert","267","689268","0.0-267.0","vat48sj1","","","","","","","","0"
"2512.765000000014","{""confidence"":1}","[0]","survey-likert","268","691782","0.0-268.0","vat48sj1","","","","","","","",""
"","","","call-function","269","691783","0.0-269.0","vat48sj1","","","","","","","",""
"null","","","html-keyboard-response","270","693285","0.0-270.0","vat48sj1","","<span style=""color:Black; font-size:50px;"">Agent A","null","","","","",""
"null","","","video-keyboard-response","271","696090","0.0-271.0","vat48sj1","","","null","","Agent A","scrambled","FOR_REV_BLOBBY_STIM/1159784.bmp_pp73_L3_V1.0_veridical_freeview_isoFalse_fps144_reversed_REAL.mp4",""
"null","","","html-keyboard-response","272","697593","0.0-272.0","vat48sj1","","<span style=""color:Black; font-size:50px;"">Agent B","null","","","","",""
"null","","","video-keyboard-response","273","700396","0.0-273.0","vat48sj1","","","null","","Agent B","veridical","FOR_REV_BLOBBY_STIM/1159784.bmp_pp73_L3_V1.0_veridical_freeview_isoFalse_fps144.mp4",""
"","","","call-function","274","700396","0.0-274.0","vat48sj1","","","","","","","",""
"1414.9000000000233","{""judgement"":1}","[0]","survey-likert","275","701812","0.0-275.0","vat48sj1","","","","","","","","1"
"1167.844999999972","{""confidence"":0}","[0]","survey-likert","276","702981","0.0-276.0","vat48sj1","","","","","","","",""
"","","","call-function","277","702981","0.0-277.0","vat48sj1","","","","","","","",""
"null","","","html-keyboard-response","278","704486","0.0-278.0","vat48sj1","","<span style=""color:Black; font-size:50px;"">Agent A","null","","","","",""
"null","","","video-keyboard-response","279","707166","0.0-279.0","vat48sj1","","","null","","Agent A","scrambled","FOR_REV_BLOBBY_STIM/713707.bmp_pp154_L1_V1.0_veridical_freeview_isoFalse_fps144_reversed_REAL.mp4",""
"null","","","html-keyboard-response","280","708672","0.0-280.0","vat48sj1","","<span style=""color:Black; font-size:50px;"">Agent B","null","","","","",""
"null","","","video-keyboard-response","281","711340","0.0-281.0","vat48sj1","","","null","","Agent B","veridical","FOR_REV_BLOBBY_STIM/713707.bmp_pp154_L1_V1.0_veridical_freeview_isoFalse_fps144.mp4",""
"","","","call-function","282","711340","0.0-282.0","vat48sj1","","","","","","","",""
"1895.1350000000093","{""judgement"":0}","[0]","survey-likert","283","713236","0.0-283.0","vat48sj1","","","","","","","","1"
"1314.7699999999022","{""confidence"":0}","[0]","survey-likert","284","714552","0.0-284.0","vat48sj1","","","","","","","",""
"","","","call-function","285","714552","0.0-285.0","vat48sj1","","","","","","","",""
"null","","","html-keyboard-response","286","716056","0.0-286.0","vat48sj1","","<span style=""color:Black; font-size:50px;"">Agent A","null","","","","",""
"null","","","video-keyboard-response","287","718936","0.0-287.0","vat48sj1","","","null","","Agent A","veridical","FOR_REV_BLOBBY_STIM/713017.bmp_pp152_L2_V1.0_veridical_freeview_isoFalse_fps144.mp4",""
"null","","","html-keyboard-response","288","720442","0.0-288.0","vat48sj1","","<span style=""color:Black; font-size:50px;"">Agent B","null","","","","",""
"null","","","video-keyboard-response","289","723312","0.0-289.0","vat48sj1","","","null","","Agent B","scrambled","FOR_REV_BLOBBY_STIM/713017.bmp_pp152_L2_V1.0_veridical_freeview_isoFalse_fps144_reversed_REAL.mp4",""
"","","","call-function","290","723313","0.0-290.0","vat48sj1","","","","","","","",""
"1450.6500000000233","{""judgement"":0}","[0]","survey-likert","291","724764","0.0-291.0","vat48sj1","","","","","","","","0"
"2646.1149999999907","{""confidence"":1}","[0]","survey-likert","292","727411","0.0-292.0","vat48sj1","","","","","","","",""
"","","","call-function","293","727412","0.0-293.0","vat48sj1","","","","","","","",""
"null","","","html-keyboard-response","294","728915","0.0-294.0","vat48sj1","","<span style=""color:Black; font-size:50px;"">Agent A","null","","","","",""
"null","","","video-keyboard-response","295","731664","0.0-295.0","vat48sj1","","","null","","Agent A","veridical","FOR_REV_BLOBBY_STIM/1592817.bmp_pp55_L3_V1.0_veridical_freeview_isoFalse_fps144.mp4",""
"null","","","html-keyboard-response","296","733168","0.0-296.0","vat48sj1","","<span style=""color:Black; font-size:50px;"">Agent B","null","","","","",""
"null","","","video-keyboard-response","297","735895","0.0-297.0","vat48sj1","","","null","","Agent B","scrambled","FOR_REV_BLOBBY_STIM/1592817.bmp_pp55_L3_V1.0_veridical_freeview_isoFalse_fps144_reversed_REAL.mp4",""
"","","","call-function","298","735895","0.0-298.0","vat48sj1","","","","","","","",""
"1171.390000000014","{""judgement"":0}","[0]","survey-likert","299","737067","0.0-299.0","vat48sj1","","","","","","","","0"
"2910.7399999999907","{""confidence"":1}","[0]","survey-likert","300","739979","0.0-300.0","vat48sj1","","","","","","","",""
"","","","call-function","301","739979","0.0-301.0","vat48sj1","","","","","","","",""
"null","","","html-keyboard-response","302","741484","0.0-302.0","vat48sj1","","<span style=""color:Black; font-size:50px;"">Agent A","null","","","","",""
"null","","","video-keyboard-response","303","744332","0.0-303.0","vat48sj1","","","null","","Agent A","veridical","FOR_REV_BLOBBY_STIM/713666.bmp_pp97_L3_V1.0_veridical_freeview_isoFalse_fps144.mp4",""
"null","","","html-keyboard-response","304","745838","0.0-304.0","vat48sj1","","<span style=""color:Black; font-size:50px;"">Agent B","null","","","","",""
"null","","","video-keyboard-response","305","748640","0.0-305.0","vat48sj1","","","null","","Agent B","scrambled","FOR_REV_BLOBBY_STIM/713666.bmp_pp97_L3_V1.0_veridical_freeview_isoFalse_fps144_reversed_REAL.mp4",""
"","","","call-function","306","748640","0.0-306.0","vat48sj1","","","","","","","",""
"2043.615000000107","{""judgement"":0}","[0]","survey-likert","307","750685","0.0-307.0","vat48sj1","","","","","","","","0"
"3261.204999999958","{""confidence"":1}","[0]","survey-likert","308","753947","0.0-308.0","vat48sj1","","","","","","","",""
"","","","call-function","309","753948","0.0-309.0","vat48sj1","","","","","","","",""
"null","","","html-keyboard-response","310","755450","0.0-310.0","vat48sj1","","<span style=""color:Black; font-size:50px;"">Agent A","null","","","","",""
"null","","","video-keyboard-response","311","757992","0.0-311.0","vat48sj1","","","null","","Agent A","scrambled","FOR_REV_BLOBBY_STIM/1159515.bmp_pp84_L3_V1.0_veridical_freeview_isoFalse_fps144_reversed_REAL.mp4",""
"null","","","html-keyboard-response","312","759495","0.0-312.0","vat48sj1","","<span style=""color:Black; font-size:50px;"">Agent B","null","","","","",""
"null","","","video-keyboard-response","313","762042","0.0-313.0","vat48sj1","","","null","","Agent B","veridical","FOR_REV_BLOBBY_STIM/1159515.bmp_pp84_L3_V1.0_veridical_freeview_isoFalse_fps144.mp4",""
"","","","call-function","314","762042","0.0-314.0","vat48sj1","","","","","","","",""
"1784.1800000000512","{""judgement"":0}","[0]","survey-likert","315","763827","0.0-315.0","vat48sj1","","","","","","","","1"
"1794.2249999999767","{""confidence"":1}","[0]","survey-likert","316","765622","0.0-316.0","vat48sj1","","","","","","","",""
"","","","call-function","317","765623","0.0-317.0","vat48sj1","","","","","","","",""
"null","","","html-keyboard-response","318","767127","0.0-318.0","vat48sj1","","<span style=""color:Black; font-size:50px;"">Agent A","null","","","","",""
"null","","","video-keyboard-response","319","769836","0.0-319.0","vat48sj1","","","null","","Agent A","veridical","FOR_REV_BLOBBY_STIM/1592372.bmp_pp76_L1_V1.0_veridical_freeview_isoFalse_fps144.mp4",""
"null","","","html-keyboard-response","320","771342","0.0-320.0","vat48sj1","","<span style=""color:Black; font-size:50px;"">Agent B","null","","","","",""
"null","","","video-keyboard-response","321","774073","0.0-321.0","vat48sj1","","","null","","Agent B","scrambled","FOR_REV_BLOBBY_STIM/1592372.bmp_pp76_L1_V1.0_veridical_freeview_isoFalse_fps144_reversed_REAL.mp4",""
"","","","call-function","322","774075","0.0-322.0","vat48sj1","","","","","","","",""
"3372.0849999999627","{""judgement"":0}","[0]","survey-likert","323","777449","0.0-323.0","vat48sj1","","","","","","","","0"
"1900.1450000000186","{""confidence"":1}","[0]","survey-likert","324","779351","0.0-324.0","vat48sj1","","","","","","","",""
"","","","call-function","325","779352","0.0-325.0","vat48sj1","","","","","","","",""
"null","","","html-keyboard-response","326","780855","0.0-326.0","vat48sj1","","<span style=""color:Black; font-size:50px;"">Agent A","null","","","","",""
"null","","","video-keyboard-response","327","783690","0.0-327.0","vat48sj1","","","null","","Agent A","scrambled","FOR_REV_BLOBBY_STIM/1591961.bmp_pp67_L2_V1.0_veridical_freeview_isoFalse_fps144_reversed_REAL.mp4",""
"null","","","html-keyboard-response","328","785195","0.0-328.0","vat48sj1","","<span style=""color:Black; font-size:50px;"">Agent B","null","","","","",""
"null","","","video-keyboard-response","329","788025","0.0-329.0","vat48sj1","","","null","","Agent B","veridical","FOR_REV_BLOBBY_STIM/1591961.bmp_pp67_L2_V1.0_veridical_freeview_isoFalse_fps144.mp4",""
"","","","call-function","330","788026","0.0-330.0","vat48sj1","","","","","","","",""
"1627.7449999999953","{""judgement"":1}","[0]","survey-likert","331","789655","0.0-331.0","vat48sj1","","","","","","","","1"
"1987.469999999972","{""confidence"":0}","[0]","survey-likert","332","791643","0.0-332.0","vat48sj1","","","","","","","",""
"20700.905000000028","","","instructions","333","812345","0.0-333.0","vat48sj1","[{""page_index"":0,""viewing_time"":1291.6949999999488},{""page_index"":1,""viewing_time"":17613.355000000098},{""page_index"":2,""viewing_time"":1795.704999999958}]","","","","","","",""
"4321.395000000019","","","instructions","334","816667","0.0-334.0","vat48sj1","[{""page_index"":0,""viewing_time"":790.3200000000652},{""page_index"":1,""viewing_time"":1049.4749999999767},{""page_index"":2,""viewing_time"":2481.4949999999953}]","","","","","","",""
"","","","call-function","335","816668","0.0-335.0","vat48sj1","","","","","","","",""
"null","","","html-keyboard-response","336","818172","0.0-336.0","vat48sj1","","<span style=""color:Black; font-size:50px;"">Agent A","null","","","","",""
"null","","","video-keyboard-response","337","821003","0.0-337.0","vat48sj1","","","null","","Agent A","veridical","FOR_REV_BLOBBY_STIM/1592351.bmp_pp51_L1_V1.0_veridical_freeview_isoFalse_fps144.mp4",""
"null","","","html-keyboard-response","338","822507","0.0-338.0","vat48sj1","","<span style=""color:Black; font-size:50px;"">Agent B","null","","","","",""
"null","","","video-keyboard-response","339","825314","0.0-339.0","vat48sj1","","","null","","Agent B","scrambled","FOR_REV_BLOBBY_STIM/1592351.bmp_pp51_L1_V1.0_veridical_freeview_isoFalse_fps144_reversed_REAL.mp4",""
"","","","call-function","340","825315","0.0-340.0","vat48sj1","","","","","","","",""
"1950.5200000000186","{""judgement"":0}","[0]","survey-likert","341","827267","0.0-341.0","vat48sj1","","","","","","","","0"
"2177.3499999999767","{""confidence"":2}","[0]","survey-likert","342","829445","0.0-342.0","vat48sj1","","","","","","","",""
"","","","call-function","343","829445","0.0-343.0","vat48sj1","","","","","","","",""
"null","","","html-keyboard-response","344","830951","0.0-344.0","vat48sj1","","<span style=""color:Black; font-size:50px;"">Agent A","null","","","","",""
"null","","","video-keyboard-response","345","833756","0.0-345.0","vat48sj1","","","null","","Agent A","veridical","FOR_REV_BLOBBY_STIM/1592804.bmp_pp91_L3_V1.0_veridical_freeview_isoFalse_fps144.mp4",""
"null","","","html-keyboard-response","346","835257","0.0-346.0","vat48sj1","","<span style=""color:Black; font-size:50px;"">Agent B","null","","","","",""
"null","","","video-keyboard-response","347","838046","0.0-347.0","vat48sj1","","","null","","Agent B","scrambled","FOR_REV_BLOBBY_STIM/1592804.bmp_pp91_L3_V1.0_veridical_freeview_isoFalse_fps144_reversed_REAL.mp4",""
"","","","call-function","348","838047","0.0-348.0","vat48sj1","","","","","","","",""
"1791.0749999999534","{""judgement"":1}","[0]","survey-likert","349","839839","0.0-349.0","vat48sj1","","","","","","","","0"
"1354.7099999999627","{""confidence"":1}","[0]","survey-likert","350","841194","0.0-350.0","vat48sj1","","","","","","","",""
"","","","call-function","351","841195","0.0-351.0","vat48sj1","","","","","","","",""
"null","","","html-keyboard-response","352","842700","0.0-352.0","vat48sj1","","<span style=""color:Black; font-size:50px;"">Agent A","null","","","","",""
"null","","","video-keyboard-response","353","845579","0.0-353.0","vat48sj1","","","null","","Agent A","scrambled","FOR_REV_BLOBBY_STIM/1160127.bmp_pp90_L2_V1.0_veridical_freeview_isoFalse_fps144_reversed_REAL.mp4",""
"null","","","html-keyboard-response","354","847082","0.0-354.0","vat48sj1","","<span style=""color:Black; font-size:50px;"">Agent B","null","","","","",""
"null","","","video-keyboard-response","355","849930","0.0-355.0","vat48sj1","","","null","","Agent B","veridical","FOR_REV_BLOBBY_STIM/1160127.bmp_pp90_L2_V1.0_veridical_freeview_isoFalse_fps144.mp4",""
"","","","call-function","356","849931","0.0-356.0","vat48sj1","","","","","","","",""
"1471.5849999999627","{""judgement"":1}","[0]","survey-likert","357","851403","0.0-357.0","vat48sj1","","","","","","","","1"
"3328.2550000000047","{""confidence"":1}","[0]","survey-likert","358","854733","0.0-358.0","vat48sj1","","","","","","","",""
"","","","call-function","359","854733","0.0-359.0","vat48sj1","","","","","","","",""
"null","","","html-keyboard-response","360","856235","0.0-360.0","vat48sj1","","<span style=""color:Black; font-size:50px;"">Agent A","null","","","","",""
"null","","","video-keyboard-response","361","858965","0.0-361.0","vat48sj1","","","null","","Agent A","scrambled","FOR_REV_BLOBBY_STIM/1159446.bmp_pp60_L3_V1.0_veridical_freeview_isoFalse_fps144_reversed_REAL.mp4",""
"null","","","html-keyboard-response","362","860471","0.0-362.0","vat48sj1","","<span style=""color:Black; font-size:50px;"">Agent B","null","","","","",""
"null","","","video-keyboard-response","363","863226","0.0-363.0","vat48sj1","","","null","","Agent B","veridical","FOR_REV_BLOBBY_STIM/1159446.bmp_pp60_L3_V1.0_veridical_freeview_isoFalse_fps144.mp4",""
"","","","call-function","364","863227","0.0-364.0","vat48sj1","","","","","","","",""
"1636.2050000000745","{""judgement"":1}","[0]","survey-likert","365","864864","0.0-365.0","vat48sj1","","","","","","","","1"
"1283.8349999999627","{""confidence"":1}","[0]","survey-likert","366","866150","0.0-366.0","vat48sj1","","","","","","","",""
"","","","call-function","367","866152","0.0-367.0","vat48sj1","","","","","","","",""
"null","","","html-keyboard-response","368","867655","0.0-368.0","vat48sj1","","<span style=""color:Black; font-size:50px;"">Agent A","null","","","","",""
"null","","","video-keyboard-response","369","870436","0.0-369.0","vat48sj1","","","null","","Agent A","scrambled","FOR_REV_BLOBBY_STIM/1591994.bmp_pp69_L3_V1.0_veridical_freeview_isoFalse_fps144_reversed_REAL.mp4",""
"null","","","html-keyboard-response","370","871942","0.0-370.0","vat48sj1","","<span style=""color:Black; font-size:50px;"">Agent B","null","","","","",""
"null","","","video-keyboard-response","371","874718","0.0-371.0","vat48sj1","","","null","","Agent B","veridical","FOR_REV_BLOBBY_STIM/1591994.bmp_pp69_L3_V1.0_veridical_freeview_isoFalse_fps144.mp4",""
"","","","call-function","372","874719","0.0-372.0","vat48sj1","","","","","","","",""
"3589.5","{""judgement"":1}","[0]","survey-likert","373","878309","0.0-373.0","vat48sj1","","","","","","","","1"
"1504.5750000000698","{""confidence"":1}","[0]","survey-likert","374","879815","0.0-374.0","vat48sj1","","","","","","","",""
"","","","call-function","375","879816","0.0-375.0","vat48sj1","","","","","","","",""
"null","","","html-keyboard-response","376","881318","0.0-376.0","vat48sj1","","<span style=""color:Black; font-size:50px;"">Agent A","null","","","","",""
"null","","","video-keyboard-response","377","884010","0.0-377.0","vat48sj1","","","null","","Agent A","veridical","FOR_REV_BLOBBY_STIM/1592727.bmp_pp59_L3_V1.0_veridical_freeview_isoFalse_fps144.mp4",""
"null","","","html-keyboard-response","378","885514","0.0-378.0","vat48sj1","","<span style=""color:Black; font-size:50px;"">Agent B","null","","","","",""
"null","","","video-keyboard-response","379","888190","0.0-379.0","vat48sj1","","","null","","Agent B","scrambled","FOR_REV_BLOBBY_STIM/1592727.bmp_pp59_L3_V1.0_veridical_freeview_isoFalse_fps144_reversed_REAL.mp4",""
"","","","call-function","380","888191","0.0-380.0","vat48sj1","","","","","","","",""
"1377.1199999999953","{""judgement"":0}","[0]","survey-likert","381","889569","0.0-381.0","vat48sj1","","","","","","","","0"
"1730.3200000000652","{""confidence"":1}","[0]","survey-likert","382","891300","0.0-382.0","vat48sj1","","","","","","","",""
"","","","call-function","383","891300","0.0-383.0","vat48sj1","","","","","","","",""
"null","","","html-keyboard-response","384","892802","0.0-384.0","vat48sj1","","<span style=""color:Black; font-size:50px;"">Agent A","null","","","","",""
"null","","","video-keyboard-response","385","895725","0.0-385.0","vat48sj1","","","null","","Agent A","scrambled","FOR_REV_BLOBBY_STIM/285905.bmp_pp57_L1_V1.0_veridical_freeview_isoFalse_fps144_reversed_REAL.mp4",""
"null","","","html-keyboard-response","386","897232","0.0-386.0","vat48sj1","","<span style=""color:Black; font-size:50px;"">Agent B","null","","","","",""
"null","","","video-keyboard-response","387","900151","0.0-387.0","vat48sj1","","","null","","Agent B","veridical","FOR_REV_BLOBBY_STIM/285905.bmp_pp57_L1_V1.0_veridical_freeview_isoFalse_fps144.mp4",""
"","","","call-function","388","900151","0.0-388.0","vat48sj1","","","","","","","",""
"1673.5550000000512","{""judgement"":1}","[0]","survey-likert","389","901826","0.0-389.0","vat48sj1","","","","","","","","1"
"2064.0999999999767","{""confidence"":1}","[0]","survey-likert","390","903891","0.0-390.0","vat48sj1","","","","","","","",""
"","","","call-function","391","903891","0.0-391.0","vat48sj1","","","","","","","",""
"null","","","html-keyboard-response","392","905393","0.0-392.0","vat48sj1","","<span style=""color:Black; font-size:50px;"">Agent A","null","","","","",""
"null","","","video-keyboard-response","393","908223","0.0-393.0","vat48sj1","","","null","","Agent A","veridical","FOR_REV_BLOBBY_STIM/1160168.bmp_pp53_L2_V1.0_veridical_freeview_isoFalse_fps144.mp4",""
"null","","","html-keyboard-response","394","909725","0.0-394.0","vat48sj1","","<span style=""color:Black; font-size:50px;"">Agent B","null","","","","",""
"null","","","video-keyboard-response","395","912434","0.0-395.0","vat48sj1","","","null","","Agent B","scrambled","FOR_REV_BLOBBY_STIM/1160168.bmp_pp53_L2_V1.0_veridical_freeview_isoFalse_fps144_reversed_REAL.mp4",""
"","","","call-function","396","912435","0.0-396.0","vat48sj1","","","","","","","",""
"2623.875","{""judgement"":0}","[0]","survey-likert","397","915059","0.0-397.0","vat48sj1","","","","","","","","0"
"1420.2949999999255","{""confidence"":1}","[0]","survey-likert","398","916481","0.0-398.0","vat48sj1","","","","","","","",""
"","","","call-function","399","916481","0.0-399.0","vat48sj1","","","","","","","",""
"null","","","html-keyboard-response","400","917985","0.0-400.0","vat48sj1","","<span style=""color:Black; font-size:50px;"">Agent A","null","","","","",""
"null","","","video-keyboard-response","401","920877","0.0-401.0","vat48sj1","","","null","","Agent A","veridical","FOR_REV_BLOBBY_STIM/1159447.bmp_pp70_L2_V1.0_veridical_freeview_isoFalse_fps144.mp4",""
"null","","","html-keyboard-response","402","922380","0.0-402.0","vat48sj1","","<span style=""color:Black; font-size:50px;"">Agent B","null","","","","",""
"null","","","video-keyboard-response","403","925261","0.0-403.0","vat48sj1","","","null","","Agent B","scrambled","FOR_REV_BLOBBY_STIM/1159447.bmp_pp70_L2_V1.0_veridical_freeview_isoFalse_fps144_reversed_REAL.mp4",""
"","","","call-function","404","925261","0.0-404.0","vat48sj1","","","","","","","",""
"1450.1849999999395","{""judgement"":0}","[0]","survey-likert","405","926713","0.0-405.0","vat48sj1","","","","","","","","0"
"2978.6199999999953","{""confidence"":3}","[0]","survey-likert","406","929693","0.0-406.0","vat48sj1","","","","","","","",""
"","","","call-function","407","929693","0.0-407.0","vat48sj1","","","","","","","",""
"null","","","html-keyboard-response","408","931198","0.0-408.0","vat48sj1","","<span style=""color:Black; font-size:50px;"">Agent A","null","","","","",""
"null","","","video-keyboard-response","409","934001","0.0-409.0","vat48sj1","","","null","","Agent A","veridical","FOR_REV_BLOBBY_STIM/1592890.bmp_pp82_L2_V1.0_veridical_freeview_isoFalse_fps144.mp4",""
"null","","","html-keyboard-response","410","935508","0.0-410.0","vat48sj1","","<span style=""color:Black; font-size:50px;"">Agent B","null","","","","",""
"null","","","video-keyboard-response","411","938369","0.0-411.0","vat48sj1","","","null","","Agent B","scrambled","FOR_REV_BLOBBY_STIM/1592890.bmp_pp82_L2_V1.0_veridical_freeview_isoFalse_fps144_reversed_REAL.mp4",""
"","","","call-function","412","938369","0.0-412.0","vat48sj1","","","","","","","",""
"1378.8149999999441","{""judgement"":0}","[0]","survey-likert","413","939749","0.0-413.0","vat48sj1","","","","","","","","0"
"3996.289999999921","{""confidence"":3}","[0]","survey-likert","414","943747","0.0-414.0","vat48sj1","","","","","","","",""
"48795.875","","","instructions","415","992543","0.0-415.0","vat48sj1","[{""page_index"":0,""viewing_time"":1293.3950000000186},{""page_index"":1,""viewing_time"":819.4449999999488},{""page_index"":2,""viewing_time"":46682.91000000003}]","","","","","","",""
"3207.1300000000047","","","instructions","416","995752","0.0-416.0","vat48sj1","[{""page_index"":0,""viewing_time"":1777.5200000000186},{""page_index"":1,""viewing_time"":825.3950000000186},{""page_index"":2,""viewing_time"":604.109999999986}]","","","","","","",""
"","","","call-function","417","995753","0.0-417.0","vat48sj1","","","","","","","",""
"null","","","html-keyboard-response","418","997255","0.0-418.0","vat48sj1","","<span style=""color:Black; font-size:50px;"">Agent A","null","","","","",""
"null","","","video-keyboard-response","419","1000032","0.0-419.0","vat48sj1","","","null","","Agent A","scrambled","FOR_REV_BLOBBY_STIM/1593041.bmp_pp58_L1_V1.0_veridical_freeview_isoFalse_fps144_reversed_REAL.mp4",""
"null","","","html-keyboard-response","420","1001535","0.0-420.0","vat48sj1","","<span style=""color:Black; font-size:50px;"">Agent B","null","","","","",""
"null","","","video-keyboard-response","421","1004316","0.0-421.0","vat48sj1","","","null","","Agent B","veridical","FOR_REV_BLOBBY_STIM/1593041.bmp_pp58_L1_V1.0_veridical_freeview_isoFalse_fps144.mp4",""
"","","","call-function","422","1004316","0.0-422.0","vat48sj1","","","","","","","",""
"4159.395000000019","{""judgement"":1}","[0]","survey-likert","423","1008476","0.0-423.0","vat48sj1","","","","","","","","1"
"1455.1799999999348","{""confidence"":0}","[0]","survey-likert","424","1009933","0.0-424.0","vat48sj1","","","","","","","",""
"","","","call-function","425","1009933","0.0-425.0","vat48sj1","","","","","","","",""
"null","","","html-keyboard-response","426","1011435","0.0-426.0","vat48sj1","","<span style=""color:Black; font-size:50px;"">Agent A","null","","","","",""
"null","","","video-keyboard-response","427","1014268","0.0-427.0","vat48sj1","","","null","","Agent A","scrambled","FOR_REV_BLOBBY_STIM/1159675.bmp_pp77_L3_V1.0_veridical_freeview_isoFalse_fps144_reversed_REAL.mp4",""
"null","","","html-keyboard-response","428","1015771","0.0-428.0","vat48sj1","","<span style=""color:Black; font-size:50px;"">Agent B","null","","","","",""
"null","","","video-keyboard-response","429","1018604","0.0-429.0","vat48sj1","","","null","","Agent B","veridical","FOR_REV_BLOBBY_STIM/1159675.bmp_pp77_L3_V1.0_veridical_freeview_isoFalse_fps144.mp4",""
"","","","call-function","430","1018605","0.0-430.0","vat48sj1","","","","","","","",""
"1306.3099999999395","{""judgement"":1}","[0]","survey-likert","431","1019912","0.0-431.0","vat48sj1","","","","","","","","1"
"1173.1600000000326","{""confidence"":2}","[0]","survey-likert","432","1021086","0.0-432.0","vat48sj1","","","","","","","",""
"","","","call-function","433","1021087","0.0-433.0","vat48sj1","","","","","","","",""
"null","","","html-keyboard-response","434","1022589","0.0-434.0","vat48sj1","","<span style=""color:Black; font-size:50px;"">Agent A","null","","","","",""
"null","","","video-keyboard-response","435","1025456","0.0-435.0","vat48sj1","","","null","","Agent A","scrambled","FOR_REV_BLOBBY_STIM/713593.bmp_pp64_L1_V1.0_veridical_freeview_isoFalse_fps144_reversed_REAL.mp4",""
"null","","","html-keyboard-response","436","1026962","0.0-436.0","vat48sj1","","<span style=""color:Black; font-size:50px;"">Agent B","null","","","","",""
"null","","","video-keyboard-response","437","1029823","0.0-437.0","vat48sj1","","","null","","Agent B","veridical","FOR_REV_BLOBBY_STIM/713593.bmp_pp64_L1_V1.0_veridical_freeview_isoFalse_fps144.mp4",""
"","","","call-function","438","1029823","0.0-438.0","vat48sj1","","","","","","","",""
"1332.5200000000186","{""judgement"":0}","[0]","survey-likert","439","1031157","0.0-439.0","vat48sj1","","","","","","","","1"
"1893.1750000000466","{""confidence"":3}","[0]","survey-likert","440","1033051","0.0-440.0","vat48sj1","","","","","","","",""
"","","","call-function","441","1033051","0.0-441.0","vat48sj1","","","","","","","",""
"null","","","html-keyboard-response","442","1034555","0.0-442.0","vat48sj1","","<span style=""color:Black; font-size:50px;"">Agent A","null","","","","",""
"null","","","video-keyboard-response","443","1037204","0.0-443.0","vat48sj1","","","null","","Agent A","veridical","FOR_REV_BLOBBY_STIM/61537.bmp_pp73_L3_V1.0_veridical_freeview_isoFalse_fps144.mp4",""
"null","","","html-keyboard-response","444","1038710","0.0-444.0","vat48sj1","","<span style=""color:Black; font-size:50px;"">Agent B","null","","","","",""
"null","","","video-keyboard-response","445","1041345","0.0-445.0","vat48sj1","","","null","","Agent B","scrambled","FOR_REV_BLOBBY_STIM/61537.bmp_pp73_L3_V1.0_veridical_freeview_isoFalse_fps144_reversed_REAL.mp4",""
"","","","call-function","446","1041346","0.0-446.0","vat48sj1","","","","","","","",""
"1193.9500000000698","{""judgement"":0}","[0]","survey-likert","447","1042541","0.0-447.0","vat48sj1","","","","","","","","0"
"1377.3699999999953","{""confidence"":3}","[0]","survey-likert","448","1043919","0.0-448.0","vat48sj1","","","","","","","",""
"","","","call-function","449","1043919","0.0-449.0","vat48sj1","","","","","","","",""
"null","","","html-keyboard-response","450","1045424","0.0-450.0","vat48sj1","","<span style=""color:Black; font-size:50px;"">Agent A","null","","","","",""
"null","","","video-keyboard-response","451","1047970","0.0-451.0","vat48sj1","","","null","","Agent A","veridical","FOR_REV_BLOBBY_STIM/713513.bmp_pp62_L2_V1.0_veridical_freeview_isoFalse_fps144.mp4",""
"null","","","html-keyboard-response","452","1049474","0.0-452.0","vat48sj1","","<span style=""color:Black; font-size:50px;"">Agent B","null","","","","",""
"null","","","video-keyboard-response","453","1052005","0.0-453.0","vat48sj1","","","null","","Agent B","scrambled","FOR_REV_BLOBBY_STIM/713513.bmp_pp62_L2_V1.0_veridical_freeview_isoFalse_fps144_reversed_REAL.mp4",""
"","","","call-function","454","1052005","0.0-454.0","vat48sj1","","","","","","","",""
"1712.690000000177","{""judgement"":1}","[0]","survey-likert","455","1053719","0.0-455.0","vat48sj1","","","","","","","","0"
"1265.0049999998882","{""confidence"":1}","[0]","survey-likert","456","1054985","0.0-456.0","vat48sj1","","","","","","","",""
"","","","call-function","457","1054985","0.0-457.0","vat48sj1","","","","","","","",""
"null","","","html-keyboard-response","458","1056488","0.0-458.0","vat48sj1","","<span style=""color:Black; font-size:50px;"">Agent A","null","","","","",""
"null","","","video-keyboard-response","459","1059280","0.0-459.0","vat48sj1","","","null","","Agent A","scrambled","FOR_REV_BLOBBY_STIM/498155.bmp_pp61_L2_V1.0_veridical_freeview_isoFalse_fps144_reversed_REAL.mp4",""
"null","","","html-keyboard-response","460","1060783","0.0-460.0","vat48sj1","","<span style=""color:Black; font-size:50px;"">Agent B","null","","","","",""
"null","","","video-keyboard-response","461","1063590","0.0-461.0","vat48sj1","","","null","","Agent B","veridical","FOR_REV_BLOBBY_STIM/498155.bmp_pp61_L2_V1.0_veridical_freeview_isoFalse_fps144.mp4",""
"","","","call-function","462","1063590","0.0-462.0","vat48sj1","","","","","","","",""
"1470.1799999999348","{""judgement"":1}","[0]","survey-likert","463","1065061","0.0-463.0","vat48sj1","","","","","","","","1"
"2096.725000000093","{""confidence"":1}","[0]","survey-likert","464","1067159","0.0-464.0","vat48sj1","","","","","","","",""
"","","","call-function","465","1067160","0.0-465.0","vat48sj1","","","","","","","",""
"null","","","html-keyboard-response","466","1068663","0.0-466.0","vat48sj1","","<span style=""color:Black; font-size:50px;"">Agent A","null","","","","",""
"null","","","video-keyboard-response","467","1071520","0.0-467.0","vat48sj1","","","null","","Agent A","scrambled","FOR_REV_BLOBBY_STIM/497950.bmp_pp151_L1_V1.0_veridical_freeview_isoFalse_fps144_reversed_REAL.mp4",""
"null","","","html-keyboard-response","468","1073022","0.0-468.0","vat48sj1","","<span style=""color:Black; font-size:50px;"">Agent B","null","","","","",""
"null","","","video-keyboard-response","469","1075900","0.0-469.0","vat48sj1","","","null","","Agent B","veridical","FOR_REV_BLOBBY_STIM/497950.bmp_pp151_L1_V1.0_veridical_freeview_isoFalse_fps144.mp4",""
"","","","call-function","470","1075900","0.0-470.0","vat48sj1","","","","","","","",""
"1241.1899999999441","{""judgement"":1}","[0]","survey-likert","471","1077144","0.0-471.0","vat48sj1","","","","","","","","1"
"1808.75","{""confidence"":2}","[0]","survey-likert","472","1078954","0.0-472.0","vat48sj1","","","","","","","",""
"","","","call-function","473","1078954","0.0-473.0","vat48sj1","","","","","","","",""
"null","","","html-keyboard-response","474","1080459","0.0-474.0","vat48sj1","","<span style=""color:Black; font-size:50px;"">Agent A","null","","","","",""
"null","","","video-keyboard-response","475","1083292","0.0-475.0","vat48sj1","","","null","","Agent A","veridical","FOR_REV_BLOBBY_STIM/713371.bmp_pp68_L1_V1.0_veridical_freeview_isoFalse_fps144.mp4",""
"null","","","html-keyboard-response","476","1084799","0.0-476.0","vat48sj1","","<span style=""color:Black; font-size:50px;"">Agent B","null","","","","",""
"null","","","video-keyboard-response","477","1087615","0.0-477.0","vat48sj1","","","null","","Agent B","scrambled","FOR_REV_BLOBBY_STIM/713371.bmp_pp68_L1_V1.0_veridical_freeview_isoFalse_fps144_reversed_REAL.mp4",""
"","","","call-function","478","1087617","0.0-478.0","vat48sj1","","","","","","","",""
"2485.5","{""judgement"":0}","[0]","survey-likert","479","1090104","0.0-479.0","vat48sj1","","","","","","","","0"
"2547.310000000056","{""confidence"":2}","[0]","survey-likert","480","1092653","0.0-480.0","vat48sj1","","","","","","","",""
"","","","call-function","481","1092654","0.0-481.0","vat48sj1","","","","","","","",""
"null","","","html-keyboard-response","482","1094157","0.0-482.0","vat48sj1","","<span style=""color:Black; font-size:50px;"">Agent A","null","","","","",""
"null","","","video-keyboard-response","483","1096790","0.0-483.0","vat48sj1","","","null","","Agent A","scrambled","FOR_REV_BLOBBY_STIM/713779.bmp_pp152_L2_V1.0_veridical_freeview_isoFalse_fps144_reversed_REAL.mp4",""
"null","","","html-keyboard-response","484","1098296","0.0-484.0","vat48sj1","","<span style=""color:Black; font-size:50px;"">Agent B","null","","","","",""
"null","","","video-keyboard-response","485","1100933","0.0-485.0","vat48sj1","","","null","","Agent B","veridical","FOR_REV_BLOBBY_STIM/713779.bmp_pp152_L2_V1.0_veridical_freeview_isoFalse_fps144.mp4",""
"","","","call-function","486","1100934","0.0-486.0","vat48sj1","","","","","","","",""
"1730.154999999795","{""judgement"":1}","[0]","survey-likert","487","1102665","0.0-487.0","vat48sj1","","","","","","","","1"
"1162.2150000000838","{""confidence"":0}","[0]","survey-likert","488","1103829","0.0-488.0","vat48sj1","","","","","","","",""
"","","","call-function","489","1103829","0.0-489.0","vat48sj1","","","","","","","",""
"null","","","html-keyboard-response","490","1105331","0.0-490.0","vat48sj1","","<span style=""color:Black; font-size:50px;"">Agent A","null","","","","",""
"null","","","video-keyboard-response","491","1106926","0.0-491.0","vat48sj1","","","null","","Agent A","veridical","FOR_REV_BLOBBY_STIM/713684.bmp_pp85_L3_V1.0_veridical_freeview_isoFalse_fps144.mp4",""
"null","","","html-keyboard-response","492","1108428","0.0-492.0","vat48sj1","","<span style=""color:Black; font-size:50px;"">Agent B","null","","","","",""
"null","","","video-keyboard-response","493","1110013","0.0-493.0","vat48sj1","","","null","","Agent B","scrambled","FOR_REV_BLOBBY_STIM/713684.bmp_pp85_L3_V1.0_veridical_freeview_isoFalse_fps144_reversed_REAL.mp4",""
"","","","call-function","494","1110013","0.0-494.0","vat48sj1","","","","","","","",""
"3216.1149999999907","{""judgement"":1}","[0]","survey-likert","495","1113231","0.0-495.0","vat48sj1","","","","","","","","0"
"1623.5999999998603","{""confidence"":0}","[0]","survey-likert","496","1114855","0.0-496.0","vat48sj1","","","","","","","",""
"65854.59000000008","","","instructions","497","1180710","0.0-497.0","vat48sj1","[{""page_index"":0,""viewing_time"":1116.5850000001956},{""page_index"":1,""viewing_time"":64047.28000000003},{""page_index"":2,""viewing_time"":690.5699999998324}]","","","","","","",""
"2337.965000000084","","","instructions","498","1183050","0.0-498.0","vat48sj1","[{""page_index"":0,""viewing_time"":647.9650000000838},{""page_index"":1,""viewing_time"":1081.4399999999441},{""page_index"":2,""viewing_time"":608.3999999999069}]","","","","","","",""
"","","","call-function","499","1183051","0.0-499.0","vat48sj1","","","","","","","",""
"null","","","html-keyboard-response","500","1184557","0.0-500.0","vat48sj1","","<span style=""color:Black; font-size:50px;"">Agent A","null","","","","",""
"null","","","video-keyboard-response","501","1187361","0.0-501.0","vat48sj1","","","null","","Agent A","scrambled","FOR_REV_BLOBBY_STIM/713135.bmp_pp54_L2_V1.0_veridical_freeview_isoFalse_fps144_reversed_REAL.mp4",""
"null","","","html-keyboard-response","502","1188863","0.0-502.0","vat48sj1","","<span style=""color:Black; font-size:50px;"">Agent B","null","","","","",""
"null","","","video-keyboard-response","503","1191661","0.0-503.0","vat48sj1","","","null","","Agent B","veridical","FOR_REV_BLOBBY_STIM/713135.bmp_pp54_L2_V1.0_veridical_freeview_isoFalse_fps144.mp4",""
"","","","call-function","504","1191662","0.0-504.0","vat48sj1","","","","","","","",""
"1227.1699999999255","{""judgement"":0}","[0]","survey-likert","505","1192890","0.0-505.0","vat48sj1","","","","","","","","1"
"1433.9299999999348","{""confidence"":3}","[0]","survey-likert","506","1194325","0.0-506.0","vat48sj1","","","","","","","",""
"","","","call-function","507","1194326","0.0-507.0","vat48sj1","","","","","","","",""
"null","","","html-keyboard-response","508","1195827","0.0-508.0","vat48sj1","","<span style=""color:Black; font-size:50px;"">Agent A","null","","","","",""
"null","","","video-keyboard-response","509","1198529","0.0-509.0","vat48sj1","","","null","","Agent A","veridical","FOR_REV_BLOBBY_STIM/285994.bmp_pp92_L3_V1.0_veridical_freeview_isoFalse_fps144.mp4",""
"null","","","html-keyboard-response","510","1200032","0.0-510.0","vat48sj1","","<span style=""color:Black; font-size:50px;"">Agent B","null","","","","",""
"null","","","video-keyboard-response","511","1202717","0.0-511.0","vat48sj1","","","null","","Agent B","scrambled","FOR_REV_BLOBBY_STIM/285994.bmp_pp92_L3_V1.0_veridical_freeview_isoFalse_fps144_reversed_REAL.mp4",""
"","","","call-function","512","1202717","0.0-512.0","vat48sj1","","","","","","","",""
"1724.405000000028","{""judgement"":0}","[0]","survey-likert","513","1204443","0.0-513.0","vat48sj1","","","","","","","","0"
"1257.5749999999534","{""confidence"":2}","[0]","survey-likert","514","1205702","0.0-514.0","vat48sj1","","","","","","","",""
"","","","call-function","515","1205702","0.0-515.0","vat48sj1","","","","","","","",""
"null","","","html-keyboard-response","516","1207208","0.0-516.0","vat48sj1","","<span style=""color:Black; font-size:50px;"">Agent A","null","","","","",""
"null","","","video-keyboard-response","517","1209959","0.0-517.0","vat48sj1","","","null","","Agent A","scrambled","FOR_REV_BLOBBY_STIM/1592934.bmp_pp63_L1_V1.0_veridical_freeview_isoFalse_fps144_reversed_REAL.mp4",""
"null","","","html-keyboard-response","518","1211461","0.0-518.0","vat48sj1","","<span style=""color:Black; font-size:50px;"">Agent B","null","","","","",""
"null","","","video-keyboard-response","519","1214207","0.0-519.0","vat48sj1","","","null","","Agent B","veridical","FOR_REV_BLOBBY_STIM/1592934.bmp_pp63_L1_V1.0_veridical_freeview_isoFalse_fps144.mp4",""
"","","","call-function","520","1214207","0.0-520.0","vat48sj1","","","","","","","",""
"1706.0200000000186","{""judgement"":1}","[0]","survey-likert","521","1215914","0.0-521.0","vat48sj1","","","","","","","","1"
"1148.0349999999162","{""confidence"":1}","[0]","survey-likert","522","1217063","0.0-522.0","vat48sj1","","","","","","","",""
"","","","call-function","523","1217064","0.0-523.0","vat48sj1","","","","","","","",""
"null","","","html-keyboard-response","524","1218570","0.0-524.0","vat48sj1","","<span style=""color:Black; font-size:50px;"">Agent A","null","","","","",""
"null","","","video-keyboard-response","525","1221480","0.0-525.0","vat48sj1","","","null","","Agent A","veridical","FOR_REV_BLOBBY_STIM/1593035.bmp_pp94_L2_V1.0_veridical_freeview_isoFalse_fps144.mp4",""
"null","","","html-keyboard-response","526","1222986","0.0-526.0","vat48sj1","","<span style=""color:Black; font-size:50px;"">Agent B","null","","","","",""
"null","","","video-keyboard-response","527","1225891","0.0-527.0","vat48sj1","","","null","","Agent B","scrambled","FOR_REV_BLOBBY_STIM/1593035.bmp_pp94_L2_V1.0_veridical_freeview_isoFalse_fps144_reversed_REAL.mp4",""
"","","","call-function","528","1225892","0.0-528.0","vat48sj1","","","","","","","",""
"1187.4200000001583","{""judgement"":1}","[0]","survey-likert","529","1227080","0.0-529.0","vat48sj1","","","","","","","","0"
"1748.5400000000373","{""confidence"":1}","[0]","survey-likert","530","1228830","0.0-530.0","vat48sj1","","","","","","","",""
"","","","call-function","531","1228830","0.0-531.0","vat48sj1","","","","","","","",""
"null","","","html-keyboard-response","532","1230334","0.0-532.0","vat48sj1","","<span style=""color:Black; font-size:50px;"">Agent A","null","","","","",""
"null","","","video-keyboard-response","533","1233182","0.0-533.0","vat48sj1","","","null","","Agent A","scrambled","FOR_REV_BLOBBY_STIM/712977.bmp_pp51_L1_V1.0_veridical_freeview_isoFalse_fps144_reversed_REAL.mp4",""
"null","","","html-keyboard-response","534","1234688","0.0-534.0","vat48sj1","","<span style=""color:Black; font-size:50px;"">Agent B","null","","","","",""
"null","","","video-keyboard-response","535","1237534","0.0-535.0","vat48sj1","","","null","","Agent B","veridical","FOR_REV_BLOBBY_STIM/712977.bmp_pp51_L1_V1.0_veridical_freeview_isoFalse_fps144.mp4",""
"","","","call-function","536","1237535","0.0-536.0","vat48sj1","","","","","","","",""
"3477.4950000001118","{""judgement"":1}","[0]","survey-likert","537","1241013","0.0-537.0","vat48sj1","","","","","","","","1"
"1288.0249999999069","{""confidence"":1}","[0]","survey-likert","538","1242302","0.0-538.0","vat48sj1","","","","","","","",""
"","","","call-function","539","1242303","0.0-539.0","vat48sj1","","","","","","","",""
"null","","","html-keyboard-response","540","1243805","0.0-540.0","vat48sj1","","<span style=""color:Black; font-size:50px;"">Agent A","null","","","","",""
"null","","","video-keyboard-response","541","1246666","0.0-541.0","vat48sj1","","","null","","Agent A","scrambled","FOR_REV_BLOBBY_STIM/1592657.bmp_pp98_L1_V1.0_veridical_freeview_isoFalse_fps144_reversed_REAL.mp4",""
"null","","","html-keyboard-response","542","1248168","0.0-542.0","vat48sj1","","<span style=""color:Black; font-size:50px;"">Agent B","null","","","","",""
"null","","","video-keyboard-response","543","1251006","0.0-543.0","vat48sj1","","","null","","Agent B","veridical","FOR_REV_BLOBBY_STIM/1592657.bmp_pp98_L1_V1.0_veridical_freeview_isoFalse_fps144.mp4",""
"","","","call-function","544","1251006","0.0-544.0","vat48sj1","","","","","","","",""
"1165.1650000000373","{""judgement"":1}","[0]","survey-likert","545","1252173","0.0-545.0","vat48sj1","","","","","","","","1"
"1000.1149999999907","{""confidence"":2}","[0]","survey-likert","546","1253174","0.0-546.0","vat48sj1","","","","","","","",""
"","","","call-function","547","1253174","0.0-547.0","vat48sj1","","","","","","","",""
"null","","","html-keyboard-response","548","1254677","0.0-548.0","vat48sj1","","<span style=""color:Black; font-size:50px;"">Agent A","null","","","","",""
"null","","","video-keyboard-response","549","1257529","0.0-549.0","vat48sj1","","","null","","Agent A","scrambled","FOR_REV_BLOBBY_STIM/498253.bmp_pp67_L2_V1.0_veridical_freeview_isoFalse_fps144_reversed_REAL.mp4",""
"null","","","html-keyboard-response","550","1259034","0.0-550.0","vat48sj1","","<span style=""color:Black; font-size:50px;"">Agent B","null","","","","",""
"null","","","video-keyboard-response","551","1261889","0.0-551.0","vat48sj1","","","null","","Agent B","veridical","FOR_REV_BLOBBY_STIM/498253.bmp_pp67_L2_V1.0_veridical_freeview_isoFalse_fps144.mp4",""
"","","","call-function","552","1261889","0.0-552.0","vat48sj1","","","","","","","",""
"1676.094999999972","{""judgement"":1}","[0]","survey-likert","553","1263566","0.0-553.0","vat48sj1","","","","","","","","1"
"889.839999999851","{""confidence"":1}","[0]","survey-likert","554","1264457","0.0-554.0","vat48sj1","","","","","","","",""
"","","","call-function","555","1264458","0.0-555.0","vat48sj1","","","","","","","",""
"null","","","html-keyboard-response","556","1265964","0.0-556.0","vat48sj1","","<span style=""color:Black; font-size:50px;"">Agent A","null","","","","",""
"null","","","video-keyboard-response","557","1268765","0.0-557.0","vat48sj1","","","null","","Agent A","scrambled","FOR_REV_BLOBBY_STIM/1159440.bmp_pp98_L1_V1.0_veridical_freeview_isoFalse_fps144_reversed_REAL.mp4",""
"null","","","html-keyboard-response","558","1270267","0.0-558.0","vat48sj1","","<span style=""color:Black; font-size:50px;"">Agent B","null","","","","",""
"null","","","video-keyboard-response","559","1273104","0.0-559.0","vat48sj1","","","null","","Agent B","veridical","FOR_REV_BLOBBY_STIM/1159440.bmp_pp98_L1_V1.0_veridical_freeview_isoFalse_fps144.mp4",""
"","","","call-function","560","1273105","0.0-560.0","vat48sj1","","","","","","","",""
"1730.125","{""judgement"":0}","[0]","survey-likert","561","1274837","0.0-561.0","vat48sj1","","","","","","","","1"
"1392.7999999998137","{""confidence"":0}","[0]","survey-likert","562","1276231","0.0-562.0","vat48sj1","","","","","","","",""
"","","","call-function","563","1276231","0.0-563.0","vat48sj1","","","","","","","",""
"null","","","html-keyboard-response","564","1277734","0.0-564.0","vat48sj1","","<span style=""color:Black; font-size:50px;"">Agent A","null","","","","",""
"null","","","video-keyboard-response","565","1280272","0.0-565.0","vat48sj1","","","null","","Agent A","veridical","FOR_REV_BLOBBY_STIM/713796.bmp_pp84_L3_V1.0_veridical_freeview_isoFalse_fps144.mp4",""
"null","","","html-keyboard-response","566","1281776","0.0-566.0","vat48sj1","","<span style=""color:Black; font-size:50px;"">Agent B","null","","","","",""
"null","","","video-keyboard-response","567","1284299","0.0-567.0","vat48sj1","","","null","","Agent B","scrambled","FOR_REV_BLOBBY_STIM/713796.bmp_pp84_L3_V1.0_veridical_freeview_isoFalse_fps144_reversed_REAL.mp4",""
"","","","call-function","568","1284300","0.0-568.0","vat48sj1","","","","","","","",""
"974.7600000000093","{""judgement"":0}","[0]","survey-likert","569","1285276","0.0-569.0","vat48sj1","","","","","","","","0"
"1047.780000000028","{""confidence"":2}","[0]","survey-likert","570","1286325","0.0-570.0","vat48sj1","","","","","","","",""
"","","","call-function","571","1286325","0.0-571.0","vat48sj1","","","","","","","",""
"null","","","html-keyboard-response","572","1287831","0.0-572.0","vat48sj1","","<span style=""color:Black; font-size:50px;"">Agent A","null","","","","",""
"null","","","video-keyboard-response","573","1290588","0.0-573.0","vat48sj1","","","null","","Agent A","scrambled","FOR_REV_BLOBBY_STIM/1592581.bmp_pp100_L3_V1.0_veridical_freeview_isoFalse_fps144_reversed_REAL.mp4",""
"null","","","html-keyboard-response","574","1292094","0.0-574.0","vat48sj1","","<span style=""color:Black; font-size:50px;"">Agent B","null","","","","",""
"null","","","video-keyboard-response","575","1294852","0.0-575.0","vat48sj1","","","null","","Agent B","veridical","FOR_REV_BLOBBY_STIM/1592581.bmp_pp100_L3_V1.0_veridical_freeview_isoFalse_fps144.mp4",""
"","","","call-function","576","1294853","0.0-576.0","vat48sj1","","","","","","","",""
"1281.7749999999069","{""judgement"":1}","[0]","survey-likert","577","1296135","0.0-577.0","vat48sj1","","","","","","","","1"
"1117.910000000149","{""confidence"":1}","[0]","survey-likert","578","1297254","0.0-578.0","vat48sj1","","","","","","","",""
"1472.905000000028","","","instructions","579","1298728","0.0-579.0","vat48sj1","[{""page_index"":0,""viewing_time"":1472.7600000000093}]","","","","","","",""
"2597.1450000000186","","","instructions","580","1301326","0.0-580.0","vat48sj1","[{""page_index"":0,""viewing_time"":2597.0400000000373}]","","","","","","",""
"13263.530000000028","{""post-1"":0}","[0]","survey-likert","581","1314590","0.0-581.0","vat48sj1","","","","","","","",""
"14064.205000000075","{""post-1"":0}","[0]","survey-likert","582","1328655","0.0-582.0","vat48sj1","","","","","","","",""
"16568.524999999907","{""post-2"":0}","[0]","survey-likert","583","1345225","0.0-583.0","vat48sj1","","","","","","","",""
"7458.945000000065","{""post-2"":1}","[0]","survey-likert","584","1352685","0.0-584.0","vat48sj1","","","","","","","",""
"8402.180000000168","{""post-3"":2}","[0]","survey-likert","585","1361089","0.0-585.0","vat48sj1","","","","","","","",""
"7253.869999999879","{""post-3"":1}","[0]","survey-likert","586","1368344","0.0-586.0","vat48sj1","","","","","","","",""
"6888.695000000065","{""post-4"":0}","[0]","survey-likert","587","1375234","0.0-587.0","vat48sj1","","","","","","","",""
"20122.23999999999","{""post-4"":0}","[0]","survey-likert","588","1395357","0.0-588.0","vat48sj1","","","","","","","",""
"4836.989999999991","{""post-5"":1}","[0]","survey-likert","589","1400197","0.0-589.0","vat48sj1","","","","","","","",""
"3046.1949999998324","{""post-5"":3}","[0]","survey-likert","590","1403244","0.0-590.0","vat48sj1","","","","","","","",""
"163048.32499999995","{""Q0"":""That felt really strange and has me trying to somehow gain awareness about where in images and places my attention goes towards first. Trying to authentically imagine that while perceiving where other agents looked was an interesting experience""}","","survey-text","591","1566300","0.0-591.0","vat48sj1","","","","","","","",""
"136354.375","{""Q0"":""In images that had people's faces, I expected the human to look at the faces first. I also expected the human to look at text from left to right, and to first focus on any large or obvious objects towards the center of the images. Sometimes the non-human agent just seemed very robotic in its motions, and that was also helpful for identifying which agent was which.""}","","survey-text","592","1702658","0.0-592.0","vat48sj1","","","","","","","",""
"179064.10499999998","{""Q0"":""It was most difficult to identify the images that were busier, or just a collection of objects, and the main difference between the two agents seemed to be that they moved around the page to the same spots but in reverse order of each other. It was also just more difficult at first because I hadn't really known what to look for, but became easier later on.""}","","survey-text","593","1881726","0.0-593.0","vat48sj1","","","","","","","",""
"1231.380000000121","","","instructions","594","1882959","0.0-594.0","vat48sj1","[{""page_index"":0,""viewing_time"":1231.25}]","","","","","","",""
"46833.6100000001","{""Experimenter_end"":[""Printed ID# vat48sj1 on consent form"",""Given subject SONA credit or payment"",""Given the subject debrief form""]}","[0]","survey-multi-select","595","1929795","0.0-595.0","vat48sj1","","","","","","","",""
