"rt","responses","question_order","trial_type","trial_index","time_elapsed","internal_node_id","ID","view_history","stimulus","key_press","value","agent","condition","image","correct_answer"
"8588.03","{""Experimenter"":[""Confirmed subject's identity (ID card)"",""Confirmed normal or corrected-to-normal vision"",""Obtained consent (signature and date)"",""Checked the test room lighting"",""Checked computer screen lighting"",""Checked distance from screen to chin rest (50cm)"",""Cleaned and adjusted chin rest"",""Counterbalanced the order of the tasks"",""Opened the experiment in Firefox"",""Made the experiment full screen"",""Encouraged subject to silence phone, put away distractors, etc.""]}","[0]","survey-multi-select","0","8602","0.0-0.0","vlorxxl6","","","","","","","",""
"116587.04","","","instructions","1","125192","0.0-1.0","vlorxxl6","[{""page_index"":0,""viewing_time"":116586.885}]","","","","","","",""
"4413.544999999998","","","instructions","2","129606","0.0-2.0","vlorxxl6","[{""page_index"":0,""viewing_time"":960.1200000000099},{""page_index"":1,""viewing_time"":1726.8449999999866},{""page_index"":2,""viewing_time"":1726.4400000000023}]","","","","","","",""
"2507.4250000000175","","","instructions","3","132115","0.0-3.0","vlorxxl6","[{""page_index"":0,""viewing_time"":2507.320000000007}]","","","","","","",""
"null","","","video-keyboard-response","4","135190","0.0-4.0","vlorxxl6","","","null","","","","",""
"7688.195000000007","","","instructions","5","142879","0.0-5.0","vlorxxl6","[{""page_index"":0,""viewing_time"":1699.1000000000058},{""page_index"":1,""viewing_time"":1816.9049999999988},{""page_index"":2,""viewing_time"":913.3299999999872},{""page_index"":3,""viewing_time"":855.7050000000163},{""page_index"":4,""viewing_time"":2403.029999999999}]","","","","","","",""
"1704.6499999999942","","","instructions","6","144584","0.0-6.0","vlorxxl6","[{""page_index"":0,""viewing_time"":1704.5249999999942}]","","","","","","",""
"","","","call-function","7","144585","0.0-7.0","vlorxxl6","","","","","","","",""
"null","","","html-keyboard-response","8","146088","0.0-8.0","vlorxxl6","","<span style=""color:Black; font-size:50px;"">Agent A","null","","","","",""
"null","","","video-keyboard-response","9","149173","0.0-9.0","vlorxxl6","","","null","","Agent A","scrambled","STIM_SET_3/285946.bmp_pp79_L2_V2_veridical_freeview_isoFalsemismatch_285751.bmp_L3_fps90.mp4",""
"null","","","html-keyboard-response","10","150680","0.0-10.0","vlorxxl6","","<span style=""color:Black; font-size:50px;"">Agent B","null","","","","",""
"null","","","video-keyboard-response","11","153756","0.0-11.0","vlorxxl6","","","null","","Agent B","veridical","STIM_SET_1_REAL/285751.bmp_pp55_L3_V1.0_veridical_freeview_isoFalse_fps144.mp4",""
"","","","call-function","12","153757","0.0-12.0","vlorxxl6","","","","","","","",""
"2754.3249999999825","{""judgement"":1}","[0]","survey-likert","13","156513","0.0-13.0","vlorxxl6","","","","","","","","1"
"1493.7850000000035","{""confidence"":2}","[0]","survey-likert","14","158008","0.0-14.0","vlorxxl6","","","","","","","",""
"","","","call-function","15","158008","0.0-15.0","vlorxxl6","","","","","","","",""
"null","","","html-keyboard-response","16","159514","0.0-16.0","vlorxxl6","","<span style=""color:Black; font-size:50px;"">Agent A","null","","","","",""
"null","","","video-keyboard-response","17","162592","0.0-17.0","vlorxxl6","","","null","","Agent A","veridical","STIM_SET_1_REAL/1160127.bmp_pp90_L2_V1.0_veridical_freeview_isoFalse_fps144.mp4",""
"null","","","html-keyboard-response","18","164097","0.0-18.0","vlorxxl6","","<span style=""color:Black; font-size:50px;"">Agent B","null","","","","",""
"null","","","video-keyboard-response","19","167205","0.0-19.0","vlorxxl6","","","null","","Agent B","scrambled","STIM_SET_3/498372.bmp_pp95_L2_V2_veridical_freeview_isoFalsemismatch_1160127.bmp_L2_fps90.mp4",""
"","","","call-function","20","167206","0.0-20.0","vlorxxl6","","","","","","","",""
"2914.545000000013","{""judgement"":0}","[0]","survey-likert","21","170122","0.0-21.0","vlorxxl6","","","","","","","","0"
"1050.679999999993","{""confidence"":1}","[0]","survey-likert","22","171174","0.0-22.0","vlorxxl6","","","","","","","",""
"","","","call-function","23","171174","0.0-23.0","vlorxxl6","","","","","","","",""
"null","","","html-keyboard-response","24","172675","0.0-24.0","vlorxxl6","","<span style=""color:Black; font-size:50px;"">Agent A","null","","","","",""
"null","","","video-keyboard-response","25","175787","0.0-25.0","vlorxxl6","","","null","","Agent A","scrambled","STIM_SET_3/150463.bmp_pp55_L3_V2_veridical_freeview_isoFalsemismatch_1592619.bmp_L3_fps90.mp4",""
"null","","","html-keyboard-response","26","177290","0.0-26.0","vlorxxl6","","<span style=""color:Black; font-size:50px;"">Agent B","null","","","","",""
"null","","","video-keyboard-response","27","180375","0.0-27.0","vlorxxl6","","","null","","Agent B","veridical","STIM_SET_1_REAL/1592619.bmp_pp56_L3_V1.0_veridical_freeview_isoFalse_fps144.mp4",""
"","","","call-function","28","180376","0.0-28.0","vlorxxl6","","","","","","","",""
"2226.9349999999977","{""judgement"":0}","[0]","survey-likert","29","182603","0.0-29.0","vlorxxl6","","","","","","","","1"
"993.2149999999965","{""confidence"":2}","[0]","survey-likert","30","183598","0.0-30.0","vlorxxl6","","","","","","","",""
"","","","call-function","31","183598","0.0-31.0","vlorxxl6","","","","","","","",""
"null","","","html-keyboard-response","32","185102","0.0-32.0","vlorxxl6","","<span style=""color:Black; font-size:50px;"">Agent A","null","","","","",""
"null","","","video-keyboard-response","33","188260","0.0-33.0","vlorxxl6","","","null","","Agent A","veridical","STIM_SET_1_REAL/498149.bmp_pp99_L2_V1.0_veridical_freeview_isoFalse_fps144.mp4",""
"null","","","html-keyboard-response","34","189765","0.0-34.0","vlorxxl6","","<span style=""color:Black; font-size:50px;"">Agent B","null","","","","",""
"null","","","video-keyboard-response","35","192854","0.0-35.0","vlorxxl6","","","null","","Agent B","scrambled","STIM_SET_3/107955.bmp_pp90_L2_V2_veridical_freeview_isoFalsemismatch_498149.bmp_L2_fps90.mp4",""
"","","","call-function","36","192855","0.0-36.0","vlorxxl6","","","","","","","",""
"2917.6449999999895","{""judgement"":0}","[0]","survey-likert","37","195773","0.0-37.0","vlorxxl6","","","","","","","","0"
"3965.4400000000023","{""confidence"":1}","[0]","survey-likert","38","199740","0.0-38.0","vlorxxl6","","","","","","","",""
"","","","call-function","39","199741","0.0-39.0","vlorxxl6","","","","","","","",""
"null","","","html-keyboard-response","40","201242","0.0-40.0","vlorxxl6","","<span style=""color:Black; font-size:50px;"">Agent A","null","","","","",""
"null","","","video-keyboard-response","41","204308","0.0-41.0","vlorxxl6","","","null","","Agent A","veridical","STIM_SET_1_REAL/713089.bmp_pp60_L3_V1.0_veridical_freeview_isoFalse_fps144.mp4",""
"null","","","html-keyboard-response","42","205812","0.0-42.0","vlorxxl6","","<span style=""color:Black; font-size:50px;"">Agent B","null","","","","",""
"null","","","video-keyboard-response","43","208934","0.0-43.0","vlorxxl6","","","null","","Agent B","scrambled","STIM_SET_3/1592201.bmp_pp97_L3_V2_veridical_freeview_isoFalsemismatch_713089.bmp_L3_fps90.mp4",""
"","","","call-function","44","208935","0.0-44.0","vlorxxl6","","","","","","","",""
"2211.8800000000047","{""judgement"":0}","[0]","survey-likert","45","211147","0.0-45.0","vlorxxl6","","","","","","","","0"
"1451.070000000007","{""confidence"":3}","[0]","survey-likert","46","212600","0.0-46.0","vlorxxl6","","","","","","","",""
"","","","call-function","47","212600","0.0-47.0","vlorxxl6","","","","","","","",""
"null","","","html-keyboard-response","48","214103","0.0-48.0","vlorxxl6","","<span style=""color:Black; font-size:50px;"">Agent A","null","","","","",""
"null","","","video-keyboard-response","49","217194","0.0-49.0","vlorxxl6","","","null","","Agent A","scrambled","STIM_SET_3/713633.bmp_pp58_L1_V2_veridical_freeview_isoFalsemismatch_713796.bmp_L3_fps90.mp4",""
"null","","","html-keyboard-response","50","218698","0.0-50.0","vlorxxl6","","<span style=""color:Black; font-size:50px;"">Agent B","null","","","","",""
"null","","","video-keyboard-response","51","221769","0.0-51.0","vlorxxl6","","","null","","Agent B","veridical","STIM_SET_1_REAL/713796.bmp_pp84_L3_V1.0_veridical_freeview_isoFalse_fps144.mp4",""
"","","","call-function","52","221769","0.0-52.0","vlorxxl6","","","","","","","",""
"2217.209999999992","{""judgement"":1}","[0]","survey-likert","53","223987","0.0-53.0","vlorxxl6","","","","","","","","1"
"1022.2200000000012","{""confidence"":2}","[0]","survey-likert","54","225011","0.0-54.0","vlorxxl6","","","","","","","",""
"","","","call-function","55","225011","0.0-55.0","vlorxxl6","","","","","","","",""
"null","","","html-keyboard-response","56","226512","0.0-56.0","vlorxxl6","","<span style=""color:Black; font-size:50px;"">Agent A","null","","","","",""
"null","","","video-keyboard-response","57","229587","0.0-57.0","vlorxxl6","","","null","","Agent A","scrambled","STIM_SET_3/1591975.bmp_pp88_L2_V2_veridical_freeview_isoFalsemismatch_713017.bmp_L2_fps90.mp4",""
"null","","","html-keyboard-response","58","231091","0.0-58.0","vlorxxl6","","<span style=""color:Black; font-size:50px;"">Agent B","null","","","","",""
"null","","","video-keyboard-response","59","234160","0.0-59.0","vlorxxl6","","","null","","Agent B","veridical","STIM_SET_1_REAL/713017.bmp_pp152_L2_V1.0_veridical_freeview_isoFalse_fps144.mp4",""
"","","","call-function","60","234162","0.0-60.0","vlorxxl6","","","","","","","",""
"7709.385000000009","{""judgement"":1}","[0]","survey-likert","61","241873","0.0-61.0","vlorxxl6","","","","","","","","1"
"1265.2850000000035","{""confidence"":1}","[0]","survey-likert","62","243139","0.0-62.0","vlorxxl6","","","","","","","",""
"","","","call-function","63","243140","0.0-63.0","vlorxxl6","","","","","","","",""
"null","","","html-keyboard-response","64","244646","0.0-64.0","vlorxxl6","","<span style=""color:Black; font-size:50px;"">Agent A","null","","","","",""
"null","","","video-keyboard-response","65","247737","0.0-65.0","vlorxxl6","","","null","","Agent A","scrambled","STIM_SET_3/713790.bmp_pp100_L3_V2_veridical_freeview_isoFalsemismatch_1592397.bmp_L3_fps90.mp4",""
"null","","","html-keyboard-response","66","249242","0.0-66.0","vlorxxl6","","<span style=""color:Black; font-size:50px;"">Agent B","null","","","","",""
"null","","","video-keyboard-response","67","252312","0.0-67.0","vlorxxl6","","","null","","Agent B","veridical","STIM_SET_1_REAL/1592397.bmp_pp85_L3_V1.0_veridical_freeview_isoFalse_fps144.mp4",""
"","","","call-function","68","252313","0.0-68.0","vlorxxl6","","","","","","","",""
"9531.210000000021","{""judgement"":0}","[0]","survey-likert","69","261845","0.0-69.0","vlorxxl6","","","","","","","","1"
"1290.7000000000407","{""confidence"":1}","[0]","survey-likert","70","263137","0.0-70.0","vlorxxl6","","","","","","","",""
"","","","call-function","71","263138","0.0-71.0","vlorxxl6","","","","","","","",""
"null","","","html-keyboard-response","72","264640","0.0-72.0","vlorxxl6","","<span style=""color:Black; font-size:50px;"">Agent A","null","","","","",""
"null","","","video-keyboard-response","73","267740","0.0-73.0","vlorxxl6","","","null","","Agent A","veridical","STIM_SET_1_REAL/285933.bmp_pp81_L1_V1.0_veridical_freeview_isoFalse_fps144.mp4",""
"null","","","html-keyboard-response","74","269243","0.0-74.0","vlorxxl6","","<span style=""color:Black; font-size:50px;"">Agent B","null","","","","",""
"null","","","video-keyboard-response","75","272367","0.0-75.0","vlorxxl6","","","null","","Agent B","scrambled","STIM_SET_3/1159973.bmp_pp98_L1_V2_veridical_freeview_isoFalsemismatch_285933.bmp_L1_fps90.mp4",""
"","","","call-function","76","272367","0.0-76.0","vlorxxl6","","","","","","","",""
"1689.8300000000163","{""judgement"":0}","[0]","survey-likert","77","274058","0.0-77.0","vlorxxl6","","","","","","","","0"
"2064.0950000000303","{""confidence"":3}","[0]","survey-likert","78","276123","0.0-78.0","vlorxxl6","","","","","","","",""
"","","","call-function","79","276125","0.0-79.0","vlorxxl6","","","","","","","",""
"null","","","html-keyboard-response","80","277628","0.0-80.0","vlorxxl6","","<span style=""color:Black; font-size:50px;"">Agent A","null","","","","",""
"null","","","video-keyboard-response","81","280740","0.0-81.0","vlorxxl6","","","null","","Agent A","scrambled","STIM_SET_3/1159325.bmp_pp67_L2_V2_veridical_freeview_isoFalsemismatch_1593035.bmp_L2_fps90.mp4",""
"null","","","html-keyboard-response","82","282243","0.0-82.0","vlorxxl6","","<span style=""color:Black; font-size:50px;"">Agent B","null","","","","",""
"null","","","video-keyboard-response","83","285332","0.0-83.0","vlorxxl6","","","null","","Agent B","veridical","STIM_SET_1_REAL/1593035.bmp_pp94_L2_V1.0_veridical_freeview_isoFalse_fps144.mp4",""
"","","","call-function","84","285333","0.0-84.0","vlorxxl6","","","","","","","",""
"4264.209999999963","{""judgement"":1}","[0]","survey-likert","85","289598","0.0-85.0","vlorxxl6","","","","","","","","1"
"1422.884999999951","{""confidence"":1}","[0]","survey-likert","86","291022","0.0-86.0","vlorxxl6","","","","","","","",""
"2070.5849999999627","","","instructions","87","293093","0.0-87.0","vlorxxl6","[{""page_index"":0,""viewing_time"":1211.4349999999977},{""page_index"":1,""viewing_time"":427.8999999999651},{""page_index"":2,""viewing_time"":431.0900000000256}]","","","","","","",""
"2452.414999999979","","","instructions","88","295546","0.0-88.0","vlorxxl6","[{""page_index"":0,""viewing_time"":685.3099999999977},{""page_index"":1,""viewing_time"":1092.195000000007},{""page_index"":2,""viewing_time"":674.7999999999884}]","","","","","","",""
"","","","call-function","89","295547","0.0-89.0","vlorxxl6","","","","","","","",""
"null","","","html-keyboard-response","90","297049","0.0-90.0","vlorxxl6","","<span style=""color:Black; font-size:50px;"">Agent A","null","","","","",""
"null","","","video-keyboard-response","91","300134","0.0-91.0","vlorxxl6","","","null","","Agent A","scrambled","STIM_SET_3/498258.bmp_pp51_L1_V2_veridical_freeview_isoFalsemismatch_498155.bmp_L2_fps90.mp4",""
"null","","","html-keyboard-response","92","301637","0.0-92.0","vlorxxl6","","<span style=""color:Black; font-size:50px;"">Agent B","null","","","","",""
"null","","","video-keyboard-response","93","304717","0.0-93.0","vlorxxl6","","","null","","Agent B","veridical","STIM_SET_1_REAL/498155.bmp_pp61_L2_V1.0_veridical_freeview_isoFalse_fps144.mp4",""
"","","","call-function","94","304718","0.0-94.0","vlorxxl6","","","","","","","",""
"2012.8850000000093","{""judgement"":0}","[0]","survey-likert","95","306732","0.0-95.0","vlorxxl6","","","","","","","","1"
"1162.5750000000116","{""confidence"":1}","[0]","survey-likert","96","307895","0.0-96.0","vlorxxl6","","","","","","","",""
"","","","call-function","97","307896","0.0-97.0","vlorxxl6","","","","","","","",""
"null","","","html-keyboard-response","98","309401","0.0-98.0","vlorxxl6","","<span style=""color:Black; font-size:50px;"">Agent A","null","","","","",""
"null","","","video-keyboard-response","99","312487","0.0-99.0","vlorxxl6","","","null","","Agent A","scrambled","STIM_SET_3/1592025.bmp_pp68_L1_V2_veridical_freeview_isoFalsemismatch_1592351.bmp_L1_fps90.mp4",""
"null","","","html-keyboard-response","100","313992","0.0-100.0","vlorxxl6","","<span style=""color:Black; font-size:50px;"">Agent B","null","","","","",""
"null","","","video-keyboard-response","101","317055","0.0-101.0","vlorxxl6","","","null","","Agent B","veridical","STIM_SET_1_REAL/1592351.bmp_pp51_L1_V1.0_veridical_freeview_isoFalse_fps144.mp4",""
"","","","call-function","102","317056","0.0-102.0","vlorxxl6","","","","","","","",""
"8713.484999999986","{""judgement"":0}","[0]","survey-likert","103","325770","0.0-103.0","vlorxxl6","","","","","","","","1"
"2188.835000000021","{""confidence"":1}","[0]","survey-likert","104","327960","0.0-104.0","vlorxxl6","","","","","","","",""
"","","","call-function","105","327960","0.0-105.0","vlorxxl6","","","","","","","",""
"null","","","html-keyboard-response","106","329462","0.0-106.0","vlorxxl6","","<span style=""color:Black; font-size:50px;"">Agent A","null","","","","",""
"null","","","video-keyboard-response","107","332553","0.0-107.0","vlorxxl6","","","null","","Agent A","veridical","STIM_SET_1_REAL/497950.bmp_pp151_L1_V1.0_veridical_freeview_isoFalse_fps144.mp4",""
"null","","","html-keyboard-response","108","334056","0.0-108.0","vlorxxl6","","<span style=""color:Black; font-size:50px;"">Agent B","null","","","","",""
"null","","","video-keyboard-response","109","337166","0.0-109.0","vlorxxl6","","","null","","Agent B","scrambled","STIM_SET_3/713274.bmp_pp73_L3_V2_veridical_freeview_isoFalsemismatch_497950.bmp_L1_fps90.mp4",""
"","","","call-function","110","337167","0.0-110.0","vlorxxl6","","","","","","","",""
"1595.6749999999884","{""judgement"":0}","[0]","survey-likert","111","338764","0.0-111.0","vlorxxl6","","","","","","","","0"
"1220.8649999999907","{""confidence"":2}","[0]","survey-likert","112","339987","0.0-112.0","vlorxxl6","","","","","","","",""
"","","","call-function","113","339988","0.0-113.0","vlorxxl6","","","","","","","",""
"null","","","html-keyboard-response","114","341491","0.0-114.0","vlorxxl6","","<span style=""color:Black; font-size:50px;"">Agent A","null","","","","",""
"null","","","video-keyboard-response","115","344593","0.0-115.0","vlorxxl6","","","null","","Agent A","scrambled","STIM_SET_3/498025.bmp_pp81_L1_V2_veridical_freeview_isoFalsemismatch_713681.bmp_L2_fps90.mp4",""
"null","","","html-keyboard-response","116","346096","0.0-116.0","vlorxxl6","","<span style=""color:Black; font-size:50px;"">Agent B","null","","","","",""
"null","","","video-keyboard-response","117","349162","0.0-117.0","vlorxxl6","","","null","","Agent B","veridical","STIM_SET_1_REAL/713681.bmp_pp86_L2_V1.0_veridical_freeview_isoFalse_fps144.mp4",""
"","","","call-function","118","349163","0.0-118.0","vlorxxl6","","","","","","","",""
"2508.7249999999767","{""judgement"":1}","[0]","survey-likert","119","351673","0.0-119.0","vlorxxl6","","","","","","","","1"
"3275.1199999999953","{""confidence"":1}","[0]","survey-likert","120","354950","0.0-120.0","vlorxxl6","","","","","","","",""
"","","","call-function","121","354950","0.0-121.0","vlorxxl6","","","","","","","",""
"null","","","html-keyboard-response","122","356453","0.0-122.0","vlorxxl6","","<span style=""color:Black; font-size:50px;"">Agent A","null","","","","",""
"null","","","video-keyboard-response","123","359535","0.0-123.0","vlorxxl6","","","null","","Agent A","scrambled","STIM_SET_3/713788.bmp_pp52_L1_V2_veridical_freeview_isoFalsemismatch_1159768.bmp_L1_fps90.mp4",""
"null","","","html-keyboard-response","124","361039","0.0-124.0","vlorxxl6","","<span style=""color:Black; font-size:50px;"">Agent B","null","","","","",""
"null","","","video-keyboard-response","125","364109","0.0-125.0","vlorxxl6","","","null","","Agent B","veridical","STIM_SET_1_REAL/1159768.bmp_pp89_L1_V1.0_veridical_freeview_isoFalse_fps144.mp4",""
"","","","call-function","126","364110","0.0-126.0","vlorxxl6","","","","","","","",""
"3861.695000000007","{""judgement"":0}","[0]","survey-likert","127","367973","0.0-127.0","vlorxxl6","","","","","","","","1"
"1585.405000000028","{""confidence"":1}","[0]","survey-likert","128","369560","0.0-128.0","vlorxxl6","","","","","","","",""
"","","","call-function","129","369561","0.0-129.0","vlorxxl6","","","","","","","",""
"null","","","html-keyboard-response","130","371064","0.0-130.0","vlorxxl6","","<span style=""color:Black; font-size:50px;"">Agent A","null","","","","",""
"null","","","video-keyboard-response","131","374169","0.0-131.0","vlorxxl6","","","null","","Agent A","veridical","STIM_SET_1_REAL/498175.bmp_pp154_L1_V1.0_veridical_freeview_isoFalse_fps144.mp4",""
"null","","","html-keyboard-response","132","375669","0.0-132.0","vlorxxl6","","<span style=""color:Black; font-size:50px;"">Agent B","null","","","","",""
"null","","","video-keyboard-response","133","378770","0.0-133.0","vlorxxl6","","","null","","Agent B","scrambled","STIM_SET_3/713689.bmp_pp153_L3_V2_veridical_freeview_isoFalsemismatch_498175.bmp_L1_fps90.mp4",""
"","","","call-function","134","378770","0.0-134.0","vlorxxl6","","","","","","","",""
"3378.9249999999884","{""judgement"":0}","[0]","survey-likert","135","382150","0.0-135.0","vlorxxl6","","","","","","","","0"
"970.9400000000023","{""confidence"":1}","[0]","survey-likert","136","383123","0.0-136.0","vlorxxl6","","","","","","","",""
"","","","call-function","137","383124","0.0-137.0","vlorxxl6","","","","","","","",""
"null","","","html-keyboard-response","138","384626","0.0-138.0","vlorxxl6","","<span style=""color:Black; font-size:50px;"">Agent A","null","","","","",""
"null","","","video-keyboard-response","139","387733","0.0-139.0","vlorxxl6","","","null","","Agent A","scrambled","STIM_SET_3/498396.bmp_pp99_L2_V2_veridical_freeview_isoFalsemismatch_713371.bmp_L1_fps90.mp4",""
"null","","","html-keyboard-response","140","389237","0.0-140.0","vlorxxl6","","<span style=""color:Black; font-size:50px;"">Agent B","null","","","","",""
"null","","","video-keyboard-response","141","392339","0.0-141.0","vlorxxl6","","","null","","Agent B","veridical","STIM_SET_1_REAL/713371.bmp_pp68_L1_V1.0_veridical_freeview_isoFalse_fps144.mp4",""
"","","","call-function","142","392339","0.0-142.0","vlorxxl6","","","","","","","",""
"1694.1699999999837","{""judgement"":1}","[0]","survey-likert","143","394034","0.0-143.0","vlorxxl6","","","","","","","","1"
"1215.4749999999767","{""confidence"":2}","[0]","survey-likert","144","395251","0.0-144.0","vlorxxl6","","","","","","","",""
"","","","call-function","145","395252","0.0-145.0","vlorxxl6","","","","","","","",""
"null","","","html-keyboard-response","146","396758","0.0-146.0","vlorxxl6","","<span style=""color:Black; font-size:50px;"">Agent A","null","","","","",""
"null","","","video-keyboard-response","147","399848","0.0-147.0","vlorxxl6","","","null","","Agent A","veridical","STIM_SET_1_REAL/1159882.bmp_pp61_L2_V1.0_veridical_freeview_isoFalse_fps144.mp4",""
"null","","","html-keyboard-response","148","401354","0.0-148.0","vlorxxl6","","<span style=""color:Black; font-size:50px;"">Agent B","null","","","","",""
"null","","","video-keyboard-response","149","404461","0.0-149.0","vlorxxl6","","","null","","Agent B","scrambled","STIM_SET_3/285715.bmp_pp67_L2_V2_veridical_freeview_isoFalsemismatch_1159882.bmp_L2_fps90.mp4",""
"","","","call-function","150","404462","0.0-150.0","vlorxxl6","","","","","","","",""
"1569.640000000014","{""judgement"":0}","[0]","survey-likert","151","406032","0.0-151.0","vlorxxl6","","","","","","","","0"
"1776.820000000007","{""confidence"":2}","[0]","survey-likert","152","407810","0.0-152.0","vlorxxl6","","","","","","","",""
"","","","call-function","153","407811","0.0-153.0","vlorxxl6","","","","","","","",""
"null","","","html-keyboard-response","154","409315","0.0-154.0","vlorxxl6","","<span style=""color:Black; font-size:50px;"">Agent A","null","","","","",""
"null","","","video-keyboard-response","155","412378","0.0-155.0","vlorxxl6","","","null","","Agent A","veridical","STIM_SET_1_REAL/713779.bmp_pp152_L2_V1.0_veridical_freeview_isoFalse_fps144.mp4",""
"null","","","html-keyboard-response","156","413882","0.0-156.0","vlorxxl6","","<span style=""color:Black; font-size:50px;"">Agent B","null","","","","",""
"null","","","video-keyboard-response","157","416969","0.0-157.0","vlorxxl6","","","null","","Agent B","scrambled","STIM_SET_3/1592305.bmp_pp65_L3_V2_veridical_freeview_isoFalsemismatch_713779.bmp_L2_fps90.mp4",""
"","","","call-function","158","416971","0.0-158.0","vlorxxl6","","","","","","","",""
"3858.399999999965","{""judgement"":1}","[0]","survey-likert","159","420830","0.0-159.0","vlorxxl6","","","","","","","","0"
"1176.094999999972","{""confidence"":1}","[0]","survey-likert","160","422007","0.0-160.0","vlorxxl6","","","","","","","",""
"","","","call-function","161","422008","0.0-161.0","vlorxxl6","","","","","","","",""
"null","","","html-keyboard-response","162","423510","0.0-162.0","vlorxxl6","","<span style=""color:Black; font-size:50px;"">Agent A","null","","","","",""
"null","","","video-keyboard-response","163","426586","0.0-163.0","vlorxxl6","","","null","","Agent A","scrambled","STIM_SET_3/1592857.bmp_pp52_L1_V2_veridical_freeview_isoFalsemismatch_1160168.bmp_L2_fps90.mp4",""
"null","","","html-keyboard-response","164","428090","0.0-164.0","vlorxxl6","","<span style=""color:Black; font-size:50px;"">Agent B","null","","","","",""
"null","","","video-keyboard-response","165","431157","0.0-165.0","vlorxxl6","","","null","","Agent B","veridical","STIM_SET_1_REAL/1160168.bmp_pp53_L2_V1.0_veridical_freeview_isoFalse_fps144.mp4",""
"","","","call-function","166","431158","0.0-166.0","vlorxxl6","","","","","","","",""
"2154.7699999999604","{""judgement"":0}","[0]","survey-likert","167","433314","0.0-167.0","vlorxxl6","","","","","","","","1"
"1315.585000000021","{""confidence"":1}","[0]","survey-likert","168","434630","0.0-168.0","vlorxxl6","","","","","","","",""
"2153.8400000000256","","","instructions","169","436785","0.0-169.0","vlorxxl6","[{""page_index"":0,""viewing_time"":779.4749999999767},{""page_index"":1,""viewing_time"":715.8400000000256},{""page_index"":2,""viewing_time"":658.3649999999907}]","","","","","","",""
"1288.9949999999953","","","instructions","170","438075","0.0-170.0","vlorxxl6","[{""page_index"":0,""viewing_time"":376.8150000000023},{""page_index"":1,""viewing_time"":461.04999999998836},{""page_index"":2,""viewing_time"":450.99499999999534}]","","","","","","",""
"","","","call-function","171","438076","0.0-171.0","vlorxxl6","","","","","","","",""
"null","","","html-keyboard-response","172","439580","0.0-172.0","vlorxxl6","","<span style=""color:Black; font-size:50px;"">Agent A","null","","","","",""
"null","","","video-keyboard-response","173","442699","0.0-173.0","vlorxxl6","","","null","","Agent A","scrambled","STIM_SET_3/713829.bmp_pp60_L3_V2_veridical_freeview_isoFalsemismatch_1159440.bmp_L1_fps90.mp4",""
"null","","","html-keyboard-response","174","444205","0.0-174.0","vlorxxl6","","<span style=""color:Black; font-size:50px;"">Agent B","null","","","","",""
"null","","","video-keyboard-response","175","447311","0.0-175.0","vlorxxl6","","","null","","Agent B","veridical","STIM_SET_1_REAL/1159440.bmp_pp98_L1_V1.0_veridical_freeview_isoFalse_fps144.mp4",""
"","","","call-function","176","447311","0.0-176.0","vlorxxl6","","","","","","","",""
"2594.0499999999884","{""judgement"":1}","[0]","survey-likert","177","449906","0.0-177.0","vlorxxl6","","","","","","","","1"
"1015.125","{""confidence"":1}","[0]","survey-likert","178","450923","0.0-178.0","vlorxxl6","","","","","","","",""
"","","","call-function","179","450924","0.0-179.0","vlorxxl6","","","","","","","",""
"null","","","html-keyboard-response","180","452429","0.0-180.0","vlorxxl6","","<span style=""color:Black; font-size:50px;"">Agent A","null","","","","",""
"null","","","video-keyboard-response","181","455539","0.0-181.0","vlorxxl6","","","null","","Agent A","veridical","STIM_SET_1_REAL/713593.bmp_pp64_L1_V1.0_veridical_freeview_isoFalse_fps144.mp4",""
"null","","","html-keyboard-response","182","457046","0.0-182.0","vlorxxl6","","<span style=""color:Black; font-size:50px;"">Agent B","null","","","","",""
"null","","","video-keyboard-response","183","460158","0.0-183.0","vlorxxl6","","","null","","Agent B","scrambled","STIM_SET_3/1592747.bmp_pp53_L2_V2_veridical_freeview_isoFalsemismatch_713593.bmp_L1_fps90.mp4",""
"","","","call-function","184","460159","0.0-184.0","vlorxxl6","","","","","","","",""
"1901.899999999965","{""judgement"":0}","[0]","survey-likert","185","462061","0.0-185.0","vlorxxl6","","","","","","","","0"
"1161.8899999999558","{""confidence"":2}","[0]","survey-likert","186","463224","0.0-186.0","vlorxxl6","","","","","","","",""
"","","","call-function","187","463225","0.0-187.0","vlorxxl6","","","","","","","",""
"null","","","html-keyboard-response","188","464726","0.0-188.0","vlorxxl6","","<span style=""color:Black; font-size:50px;"">Agent A","null","","","","",""
"null","","","video-keyboard-response","189","467841","0.0-189.0","vlorxxl6","","","null","","Agent A","scrambled","STIM_SET_3/1160189.bmp_pp64_L1_V2_veridical_freeview_isoFalsemismatch_1592581.bmp_L3_fps90.mp4",""
"null","","","html-keyboard-response","190","469344","0.0-190.0","vlorxxl6","","<span style=""color:Black; font-size:50px;"">Agent B","null","","","","",""
"null","","","video-keyboard-response","191","472414","0.0-191.0","vlorxxl6","","","null","","Agent B","veridical","STIM_SET_1_REAL/1592581.bmp_pp100_L3_V1.0_veridical_freeview_isoFalse_fps144.mp4",""
"","","","call-function","192","472415","0.0-192.0","vlorxxl6","","","","","","","",""
"4460.435000000056","{""judgement"":1}","[0]","survey-likert","193","476876","0.0-193.0","vlorxxl6","","","","","","","","1"
"1521.6600000000326","{""confidence"":1}","[0]","survey-likert","194","478400","0.0-194.0","vlorxxl6","","","","","","","",""
"","","","call-function","195","478402","0.0-195.0","vlorxxl6","","","","","","","",""
"null","","","html-keyboard-response","196","479907","0.0-196.0","vlorxxl6","","<span style=""color:Black; font-size:50px;"">Agent A","null","","","","",""
"null","","","video-keyboard-response","197","482995","0.0-197.0","vlorxxl6","","","null","","Agent A","scrambled","STIM_SET_3/713770.bmp_pp89_L1_V2_veridical_freeview_isoFalsemismatch_61537.bmp_L3_fps90.mp4",""
"null","","","html-keyboard-response","198","484497","0.0-198.0","vlorxxl6","","<span style=""color:Black; font-size:50px;"">Agent B","null","","","","",""
"null","","","video-keyboard-response","199","487575","0.0-199.0","vlorxxl6","","","null","","Agent B","veridical","STIM_SET_1_REAL/61537.bmp_pp73_L3_V1.0_veridical_freeview_isoFalse_fps144.mp4",""
"","","","call-function","200","487576","0.0-200.0","vlorxxl6","","","","","","","",""
"2088.9349999999977","{""judgement"":1}","[0]","survey-likert","201","489666","0.0-201.0","vlorxxl6","","","","","","","","1"
"2927.615000000049","{""confidence"":1}","[0]","survey-likert","202","492595","0.0-202.0","vlorxxl6","","","","","","","",""
"","","","call-function","203","492596","0.0-203.0","vlorxxl6","","","","","","","",""
"null","","","html-keyboard-response","204","494099","0.0-204.0","vlorxxl6","","<span style=""color:Black; font-size:50px;"">Agent A","null","","","","",""
"null","","","video-keyboard-response","205","497181","0.0-205.0","vlorxxl6","","","null","","Agent A","scrambled","STIM_SET_3/1159508.bmp_pp151_L1_V2_veridical_freeview_isoFalsemismatch_1159675.bmp_L3_fps90.mp4",""
"null","","","html-keyboard-response","206","498683","0.0-206.0","vlorxxl6","","<span style=""color:Black; font-size:50px;"">Agent B","null","","","","",""
"null","","","video-keyboard-response","207","501765","0.0-207.0","vlorxxl6","","","null","","Agent B","veridical","STIM_SET_1_REAL/1159675.bmp_pp77_L3_V1.0_veridical_freeview_isoFalse_fps144.mp4",""
"","","","call-function","208","501765","0.0-208.0","vlorxxl6","","","","","","","",""
"1659.6699999999837","{""judgement"":0}","[0]","survey-likert","209","503426","0.0-209.0","vlorxxl6","","","","","","","","1"
"1484.3050000000512","{""confidence"":2}","[0]","survey-likert","210","504911","0.0-210.0","vlorxxl6","","","","","","","",""
"","","","call-function","211","504912","0.0-211.0","vlorxxl6","","","","","","","",""
"null","","","html-keyboard-response","212","506419","0.0-212.0","vlorxxl6","","<span style=""color:Black; font-size:50px;"">Agent A","null","","","","",""
"null","","","video-keyboard-response","213","509519","0.0-213.0","vlorxxl6","","","null","","Agent A","veridical","STIM_SET_1_REAL/1591961.bmp_pp67_L2_V1.0_veridical_freeview_isoFalse_fps144.mp4",""
"null","","","html-keyboard-response","214","511023","0.0-214.0","vlorxxl6","","<span style=""color:Black; font-size:50px;"">Agent B","null","","","","",""
"null","","","video-keyboard-response","215","514175","0.0-215.0","vlorxxl6","","","null","","Agent B","scrambled","STIM_SET_3/1592530.bmp_pp75_L1_V2_veridical_freeview_isoFalsemismatch_1591961.bmp_L2_fps90.mp4",""
"","","","call-function","216","514176","0.0-216.0","vlorxxl6","","","","","","","",""
"1330.8300000000163","{""judgement"":0}","[0]","survey-likert","217","515508","0.0-217.0","vlorxxl6","","","","","","","","0"
"2541.75","{""confidence"":3}","[0]","survey-likert","218","518051","0.0-218.0","vlorxxl6","","","","","","","",""
"","","","call-function","219","518051","0.0-219.0","vlorxxl6","","","","","","","",""
"null","","","html-keyboard-response","220","519555","0.0-220.0","vlorxxl6","","<span style=""color:Black; font-size:50px;"">Agent A","null","","","","",""
"null","","","video-keyboard-response","221","522662","0.0-221.0","vlorxxl6","","","null","","Agent A","veridical","STIM_SET_1_REAL/713666.bmp_pp97_L3_V1.0_veridical_freeview_isoFalse_fps144.mp4",""
"null","","","html-keyboard-response","222","524165","0.0-222.0","vlorxxl6","","<span style=""color:Black; font-size:50px;"">Agent B","null","","","","",""
"null","","","video-keyboard-response","223","527283","0.0-223.0","vlorxxl6","","","null","","Agent B","scrambled","STIM_SET_3/1592289.bmp_pp92_L3_V2_veridical_freeview_isoFalsemismatch_713666.bmp_L3_fps90.mp4",""
"","","","call-function","224","527284","0.0-224.0","vlorxxl6","","","","","","","",""
"1756.0250000000233","{""judgement"":0}","[0]","survey-likert","225","529041","0.0-225.0","vlorxxl6","","","","","","","","0"
"1431.9799999999814","{""confidence"":3}","[0]","survey-likert","226","530474","0.0-226.0","vlorxxl6","","","","","","","",""
"","","","call-function","227","530474","0.0-227.0","vlorxxl6","","","","","","","",""
"null","","","html-keyboard-response","228","531977","0.0-228.0","vlorxxl6","","<span style=""color:Black; font-size:50px;"">Agent A","null","","","","",""
"null","","","video-keyboard-response","229","535087","0.0-229.0","vlorxxl6","","","null","","Agent A","scrambled","STIM_SET_3/150277.bmp_pp65_L3_V2_veridical_freeview_isoFalsemismatch_1592362.bmp_L2_fps90.mp4",""
"null","","","html-keyboard-response","230","536591","0.0-230.0","vlorxxl6","","<span style=""color:Black; font-size:50px;"">Agent B","null","","","","",""
"null","","","video-keyboard-response","231","539681","0.0-231.0","vlorxxl6","","","null","","Agent B","veridical","STIM_SET_1_REAL/1592362.bmp_pp95_L2_V1.0_veridical_freeview_isoFalse_fps144.mp4",""
"","","","call-function","232","539682","0.0-232.0","vlorxxl6","","","","","","","",""
"1676.5899999999674","{""judgement"":1}","[0]","survey-likert","233","541359","0.0-233.0","vlorxxl6","","","","","","","","1"
"1302.2099999999627","{""confidence"":2}","[0]","survey-likert","234","542663","0.0-234.0","vlorxxl6","","","","","","","",""
"","","","call-function","235","542663","0.0-235.0","vlorxxl6","","","","","","","",""
"null","","","html-keyboard-response","236","544165","0.0-236.0","vlorxxl6","","<span style=""color:Black; font-size:50px;"">Agent A","null","","","","",""
"null","","","video-keyboard-response","237","547250","0.0-237.0","vlorxxl6","","","null","","Agent A","scrambled","STIM_SET_3/1159874.bmp_pp96_L2_V2_veridical_freeview_isoFalsemismatch_1159515.bmp_L3_fps90.mp4",""
"null","","","html-keyboard-response","238","548753","0.0-238.0","vlorxxl6","","<span style=""color:Black; font-size:50px;"">Agent B","null","","","","",""
"null","","","video-keyboard-response","239","551821","0.0-239.0","vlorxxl6","","","null","","Agent B","veridical","STIM_SET_1_REAL/1159515.bmp_pp84_L3_V1.0_veridical_freeview_isoFalse_fps144.mp4",""
"","","","call-function","240","551821","0.0-240.0","vlorxxl6","","","","","","","",""
"1465.1500000000233","{""judgement"":1}","[0]","survey-likert","241","553287","0.0-241.0","vlorxxl6","","","","","","","","1"
"880.4100000000326","{""confidence"":2}","[0]","survey-likert","242","554169","0.0-242.0","vlorxxl6","","","","","","","",""
"","","","call-function","243","554170","0.0-243.0","vlorxxl6","","","","","","","",""
"null","","","html-keyboard-response","244","555672","0.0-244.0","vlorxxl6","","<span style=""color:Black; font-size:50px;"">Agent A","null","","","","",""
"null","","","video-keyboard-response","245","558826","0.0-245.0","vlorxxl6","","","null","","Agent A","scrambled","STIM_SET_3/1159956.bmp_pp59_L3_V2_veridical_freeview_isoFalsemismatch_1159829.bmp_L3_fps90.mp4",""
"null","","","html-keyboard-response","246","560332","0.0-246.0","vlorxxl6","","<span style=""color:Black; font-size:50px;"">Agent B","null","","","","",""
"null","","","video-keyboard-response","247","563405","0.0-247.0","vlorxxl6","","","null","","Agent B","veridical","STIM_SET_1_REAL/1159829.bmp_pp91_L3_V1.0_veridical_freeview_isoFalse_fps144.mp4",""
"","","","call-function","248","563406","0.0-248.0","vlorxxl6","","","","","","","",""
"1515.0499999999302","{""judgement"":1}","[0]","survey-likert","249","564922","0.0-249.0","vlorxxl6","","","","","","","","1"
"1206.0999999999767","{""confidence"":2}","[0]","survey-likert","250","566129","0.0-250.0","vlorxxl6","","","","","","","",""
"21589.964999999967","","","instructions","251","587720","0.0-251.0","vlorxxl6","[{""page_index"":0,""viewing_time"":19233.920000000042},{""page_index"":1,""viewing_time"":1506.9649999999674},{""page_index"":2,""viewing_time"":848.9249999999302}]","","","","","","",""
"1951.5850000000792","","","instructions","252","589673","0.0-252.0","vlorxxl6","[{""page_index"":0,""viewing_time"":494.40500000002794},{""page_index"":1,""viewing_time"":954.2950000000419},{""page_index"":2,""viewing_time"":502.7750000000233}]","","","","","","",""
"","","","call-function","253","589675","0.0-253.0","vlorxxl6","","","","","","","",""
"null","","","html-keyboard-response","254","591176","0.0-254.0","vlorxxl6","","<span style=""color:Black; font-size:50px;"">Agent A","null","","","","",""
"null","","","video-keyboard-response","255","594256","0.0-255.0","vlorxxl6","","","null","","Agent A","veridical","STIM_SET_1_REAL/1593146.bmp_pp93_L1_V1.0_veridical_freeview_isoFalse_fps144.mp4",""
"null","","","html-keyboard-response","256","595760","0.0-256.0","vlorxxl6","","<span style=""color:Black; font-size:50px;"">Agent B","null","","","","",""
"null","","","video-keyboard-response","257","598845","0.0-257.0","vlorxxl6","","","null","","Agent B","scrambled","STIM_SET_3/1592298.bmp_pp56_L3_V2_veridical_freeview_isoFalsemismatch_1593146.bmp_L1_fps90.mp4",""
"","","","call-function","258","598845","0.0-258.0","vlorxxl6","","","","","","","",""
"1581.9949999999953","{""judgement"":0}","[0]","survey-likert","259","600428","0.0-259.0","vlorxxl6","","","","","","","","0"
"1533.2649999998976","{""confidence"":3}","[0]","survey-likert","260","601963","0.0-260.0","vlorxxl6","","","","","","","",""
"","","","call-function","261","601964","0.0-261.0","vlorxxl6","","","","","","","",""
"null","","","html-keyboard-response","262","603466","0.0-262.0","vlorxxl6","","<span style=""color:Black; font-size:50px;"">Agent A","null","","","","",""
"null","","","video-keyboard-response","263","606545","0.0-263.0","vlorxxl6","","","null","","Agent A","veridical","STIM_SET_1_REAL/713760.bmp_pp81_L1_V1.0_veridical_freeview_isoFalse_fps144.mp4",""
"null","","","html-keyboard-response","264","608050","0.0-264.0","vlorxxl6","","<span style=""color:Black; font-size:50px;"">Agent B","null","","","","",""
"null","","","video-keyboard-response","265","611127","0.0-265.0","vlorxxl6","","","null","","Agent B","scrambled","STIM_SET_3/285684.bmp_pp80_L3_V2_veridical_freeview_isoFalsemismatch_713760.bmp_L1_fps90.mp4",""
"","","","call-function","266","611127","0.0-266.0","vlorxxl6","","","","","","","",""
"1970.8499999999767","{""judgement"":0}","[0]","survey-likert","267","613099","0.0-267.0","vlorxxl6","","","","","","","","0"
"1203.4949999999953","{""confidence"":2}","[0]","survey-likert","268","614304","0.0-268.0","vlorxxl6","","","","","","","",""
"","","","call-function","269","614305","0.0-269.0","vlorxxl6","","","","","","","",""
"null","","","html-keyboard-response","270","615806","0.0-270.0","vlorxxl6","","<span style=""color:Black; font-size:50px;"">Agent A","null","","","","",""
"null","","","video-keyboard-response","271","618912","0.0-271.0","vlorxxl6","","","null","","Agent A","veridical","STIM_SET_1_REAL/713513.bmp_pp62_L2_V1.0_veridical_freeview_isoFalse_fps144.mp4",""
"null","","","html-keyboard-response","272","620417","0.0-272.0","vlorxxl6","","<span style=""color:Black; font-size:50px;"">Agent B","null","","","","",""
"null","","","video-keyboard-response","273","623519","0.0-273.0","vlorxxl6","","","null","","Agent B","scrambled","STIM_SET_3/1592047.bmp_pp51_L1_V2_veridical_freeview_isoFalsemismatch_713513.bmp_L2_fps90.mp4",""
"","","","call-function","274","623520","0.0-274.0","vlorxxl6","","","","","","","",""
"2128.185000000056","{""judgement"":0}","[0]","survey-likert","275","625649","0.0-275.0","vlorxxl6","","","","","","","","0"
"1348.7999999999302","{""confidence"":1}","[0]","survey-likert","276","626999","0.0-276.0","vlorxxl6","","","","","","","",""
"","","","call-function","277","627000","0.0-277.0","vlorxxl6","","","","","","","",""
"null","","","html-keyboard-response","278","628502","0.0-278.0","vlorxxl6","","<span style=""color:Black; font-size:50px;"">Agent A","null","","","","",""
"null","","","video-keyboard-response","279","631616","0.0-279.0","vlorxxl6","","","null","","Agent A","scrambled","STIM_SET_3/1160204.bmp_pp54_L2_V2_veridical_freeview_isoFalsemismatch_286001.bmp_L2_fps90.mp4",""
"null","","","html-keyboard-response","280","633120","0.0-280.0","vlorxxl6","","<span style=""color:Black; font-size:50px;"">Agent B","null","","","","",""
"null","","","video-keyboard-response","281","636207","0.0-281.0","vlorxxl6","","","null","","Agent B","veridical","STIM_SET_1_REAL/286001.bmp_pp54_L2_V1.0_veridical_freeview_isoFalse_fps144.mp4",""
"","","","call-function","282","636208","0.0-282.0","vlorxxl6","","","","","","","",""
"2736.875","{""judgement"":0}","[0]","survey-likert","283","638945","0.0-283.0","vlorxxl6","","","","","","","","1"
"912.25","{""confidence"":1}","[0]","survey-likert","284","639859","0.0-284.0","vlorxxl6","","","","","","","",""
"","","","call-function","285","639860","0.0-285.0","vlorxxl6","","","","","","","",""
"null","","","html-keyboard-response","286","641361","0.0-286.0","vlorxxl6","","<span style=""color:Black; font-size:50px;"">Agent A","null","","","","",""
"null","","","video-keyboard-response","287","644473","0.0-287.0","vlorxxl6","","","null","","Agent A","scrambled","STIM_SET_3/1159860.bmp_pp152_L2_V2_veridical_freeview_isoFalsemismatch_1159621.bmp_L3_fps90.mp4",""
"null","","","html-keyboard-response","288","645974","0.0-288.0","vlorxxl6","","<span style=""color:Black; font-size:50px;"">Agent B","null","","","","",""
"null","","","video-keyboard-response","289","649064","0.0-289.0","vlorxxl6","","","null","","Agent B","veridical","STIM_SET_1_REAL/1159621.bmp_pp92_L3_V1.0_veridical_freeview_isoFalse_fps144.mp4",""
"","","","call-function","290","649065","0.0-290.0","vlorxxl6","","","","","","","",""
"1352.9250000000466","{""judgement"":1}","[0]","survey-likert","291","650418","0.0-291.0","vlorxxl6","","","","","","","","1"
"1262.1600000000326","{""confidence"":2}","[0]","survey-likert","292","651682","0.0-292.0","vlorxxl6","","","","","","","",""
"","","","call-function","293","651682","0.0-293.0","vlorxxl6","","","","","","","",""
"null","","","html-keyboard-response","294","653186","0.0-294.0","vlorxxl6","","<span style=""color:Black; font-size:50px;"">Agent A","null","","","","",""
"null","","","video-keyboard-response","295","656282","0.0-295.0","vlorxxl6","","","null","","Agent A","veridical","STIM_SET_1_REAL/1592499.bmp_pp96_L2_V1.0_veridical_freeview_isoFalse_fps144.mp4",""
"null","","","html-keyboard-response","296","657786","0.0-296.0","vlorxxl6","","<span style=""color:Black; font-size:50px;"">Agent B","null","","","","",""
"null","","","video-keyboard-response","297","660872","0.0-297.0","vlorxxl6","","","null","","Agent B","scrambled","STIM_SET_3/1159819.bmp_pp151_L1_V2_veridical_freeview_isoFalsemismatch_1592499.bmp_L2_fps90.mp4",""
"","","","call-function","298","660873","0.0-298.0","vlorxxl6","","","","","","","",""
"1472.9749999999767","{""judgement"":0}","[0]","survey-likert","299","662347","0.0-299.0","vlorxxl6","","","","","","","","0"
"778.4050000000279","{""confidence"":2}","[0]","survey-likert","300","663126","0.0-300.0","vlorxxl6","","","","","","","",""
"","","","call-function","301","663127","0.0-301.0","vlorxxl6","","","","","","","",""
"null","","","html-keyboard-response","302","664631","0.0-302.0","vlorxxl6","","<span style=""color:Black; font-size:50px;"">Agent A","null","","","","",""
"null","","","video-keyboard-response","303","667723","0.0-303.0","vlorxxl6","","","null","","Agent A","scrambled","STIM_SET_3/1160247.bmp_pp54_L2_V2_veridical_freeview_isoFalsemismatch_1592133.bmp_L1_fps90.mp4",""
"null","","","html-keyboard-response","304","669228","0.0-304.0","vlorxxl6","","<span style=""color:Black; font-size:50px;"">Agent B","null","","","","",""
"null","","","video-keyboard-response","305","672291","0.0-305.0","vlorxxl6","","","null","","Agent B","veridical","STIM_SET_1_REAL/1592133.bmp_pp75_L1_V1.0_veridical_freeview_isoFalse_fps144.mp4",""
"","","","call-function","306","672292","0.0-306.0","vlorxxl6","","","","","","","",""
"1596.6049999999814","{""judgement"":1}","[0]","survey-likert","307","673889","0.0-307.0","vlorxxl6","","","","","","","","1"
"2416.3800000000047","{""confidence"":1}","[0]","survey-likert","308","676307","0.0-308.0","vlorxxl6","","","","","","","",""
"","","","call-function","309","676307","0.0-309.0","vlorxxl6","","","","","","","",""
"null","","","html-keyboard-response","310","677811","0.0-310.0","vlorxxl6","","<span style=""color:Black; font-size:50px;"">Agent A","null","","","","",""
"null","","","video-keyboard-response","311","680888","0.0-311.0","vlorxxl6","","","null","","Agent A","veridical","STIM_SET_1_REAL/1159777.bmp_pp77_L3_V1.0_veridical_freeview_isoFalse_fps144.mp4",""
"null","","","html-keyboard-response","312","682392","0.0-312.0","vlorxxl6","","<span style=""color:Black; font-size:50px;"">Agent B","null","","","","",""
"null","","","video-keyboard-response","313","685502","0.0-313.0","vlorxxl6","","","null","","Agent B","scrambled","STIM_SET_3/1592017.bmp_pp154_L1_V2_veridical_freeview_isoFalsemismatch_1159777.bmp_L3_fps90.mp4",""
"","","","call-function","314","685503","0.0-314.0","vlorxxl6","","","","","","","",""
"1477.6899999999441","{""judgement"":0}","[0]","survey-likert","315","686981","0.0-315.0","vlorxxl6","","","","","","","","0"
"2464.1300000000047","{""confidence"":2}","[0]","survey-likert","316","689447","0.0-316.0","vlorxxl6","","","","","","","",""
"","","","call-function","317","689448","0.0-317.0","vlorxxl6","","","","","","","",""
"null","","","html-keyboard-response","318","690951","0.0-318.0","vlorxxl6","","<span style=""color:Black; font-size:50px;"">Agent A","null","","","","",""
"null","","","video-keyboard-response","319","694127","0.0-319.0","vlorxxl6","","","null","","Agent A","scrambled","STIM_SET_3/1592044.bmp_pp94_L2_V2_veridical_freeview_isoFalsemismatch_1159446.bmp_L3_fps90.mp4",""
"null","","","html-keyboard-response","320","695632","0.0-320.0","vlorxxl6","","<span style=""color:Black; font-size:50px;"">Agent B","null","","","","",""
"null","","","video-keyboard-response","321","698699","0.0-321.0","vlorxxl6","","","null","","Agent B","veridical","STIM_SET_1_REAL/1159446.bmp_pp60_L3_V1.0_veridical_freeview_isoFalse_fps144.mp4",""
"","","","call-function","322","698700","0.0-322.0","vlorxxl6","","","","","","","",""
"1500.155000000028","{""judgement"":0}","[0]","survey-likert","323","700202","0.0-323.0","vlorxxl6","","","","","","","","1"
"2869.5800000000745","{""confidence"":1}","[0]","survey-likert","324","703074","0.0-324.0","vlorxxl6","","","","","","","",""
"","","","call-function","325","703075","0.0-325.0","vlorxxl6","","","","","","","",""
"null","","","html-keyboard-response","326","704578","0.0-326.0","vlorxxl6","","<span style=""color:Black; font-size:50px;"">Agent A","null","","","","",""
"null","","","video-keyboard-response","327","707665","0.0-327.0","vlorxxl6","","","null","","Agent A","scrambled","STIM_SET_3/713328.bmp_pp86_L2_V2_veridical_freeview_isoFalsemismatch_1591994.bmp_L3_fps90.mp4",""
"null","","","html-keyboard-response","328","709170","0.0-328.0","vlorxxl6","","<span style=""color:Black; font-size:50px;"">Agent B","null","","","","",""
"null","","","video-keyboard-response","329","712249","0.0-329.0","vlorxxl6","","","null","","Agent B","veridical","STIM_SET_1_REAL/1591994.bmp_pp69_L3_V1.0_veridical_freeview_isoFalse_fps144.mp4",""
"","","","call-function","330","712249","0.0-330.0","vlorxxl6","","","","","","","",""
"1237.954999999958","{""judgement"":1}","[0]","survey-likert","331","713488","0.0-331.0","vlorxxl6","","","","","","","","1"
"1825.9949999999953","{""confidence"":2}","[0]","survey-likert","332","715316","0.0-332.0","vlorxxl6","","","","","","","",""
"2064.9749999999767","","","instructions","333","717381","0.0-333.0","vlorxxl6","[{""page_index"":0,""viewing_time"":1067.3699999999953},{""page_index"":1,""viewing_time"":633.5200000000186},{""page_index"":2,""viewing_time"":363.9300000000512}]","","","","","","",""
"1038.030000000028","","","instructions","334","718420","0.0-334.0","vlorxxl6","[{""page_index"":0,""viewing_time"":272.9350000000559},{""page_index"":1,""viewing_time"":353.01500000001397},{""page_index"":2,""viewing_time"":411.9749999999767}]","","","","","","",""
"","","","call-function","335","718421","0.0-335.0","vlorxxl6","","","","","","","",""
"null","","","html-keyboard-response","336","719923","0.0-336.0","vlorxxl6","","<span style=""color:Black; font-size:50px;"">Agent A","null","","","","",""
"null","","","video-keyboard-response","337","723108","0.0-337.0","vlorxxl6","","","null","","Agent A","scrambled","STIM_SET_3/107909.bmp_pp95_L2_V2_veridical_freeview_isoFalsemismatch_1592372.bmp_L1_fps90.mp4",""
"null","","","html-keyboard-response","338","724613","0.0-338.0","vlorxxl6","","<span style=""color:Black; font-size:50px;"">Agent B","null","","","","",""
"null","","","video-keyboard-response","339","727720","0.0-339.0","vlorxxl6","","","null","","Agent B","veridical","STIM_SET_1_REAL/1592372.bmp_pp76_L1_V1.0_veridical_freeview_isoFalse_fps144.mp4",""
"","","","call-function","340","727720","0.0-340.0","vlorxxl6","","","","","","","",""
"2030.8400000000838","{""judgement"":0}","[0]","survey-likert","341","729752","0.0-341.0","vlorxxl6","","","","","","","","1"
"1750.7799999999115","{""confidence"":1}","[0]","survey-likert","342","731504","0.0-342.0","vlorxxl6","","","","","","","",""
"","","","call-function","343","731505","0.0-343.0","vlorxxl6","","","","","","","",""
"null","","","html-keyboard-response","344","733008","0.0-344.0","vlorxxl6","","<span style=""color:Black; font-size:50px;"">Agent A","null","","","","",""
"null","","","video-keyboard-response","345","736124","0.0-345.0","vlorxxl6","","","null","","Agent A","scrambled","STIM_SET_3/1591781.bmp_pp63_L1_V2_veridical_freeview_isoFalsemismatch_1593041.bmp_L1_fps90.mp4",""
"null","","","html-keyboard-response","346","737629","0.0-346.0","vlorxxl6","","<span style=""color:Black; font-size:50px;"">Agent B","null","","","","",""
"null","","","video-keyboard-response","347","740733","0.0-347.0","vlorxxl6","","","null","","Agent B","veridical","STIM_SET_1_REAL/1593041.bmp_pp58_L1_V1.0_veridical_freeview_isoFalse_fps144.mp4",""
"","","","call-function","348","740733","0.0-348.0","vlorxxl6","","","","","","","",""
"5050.3150000000605","{""judgement"":0}","[0]","survey-likert","349","745785","0.0-349.0","vlorxxl6","","","","","","","","1"
"1062.0900000000838","{""confidence"":1}","[0]","survey-likert","350","746848","0.0-350.0","vlorxxl6","","","","","","","",""
"","","","call-function","351","746849","0.0-351.0","vlorxxl6","","","","","","","",""
"null","","","html-keyboard-response","352","748351","0.0-352.0","vlorxxl6","","<span style=""color:Black; font-size:50px;"">Agent A","null","","","","",""
"null","","","video-keyboard-response","353","751465","0.0-353.0","vlorxxl6","","","null","","Agent A","veridical","STIM_SET_1_REAL/1159813.bmp_pp79_L2_V1.0_veridical_freeview_isoFalse_fps144.mp4",""
"null","","","html-keyboard-response","354","752967","0.0-354.0","vlorxxl6","","<span style=""color:Black; font-size:50px;"">Agent B","null","","","","",""
"null","","","video-keyboard-response","355","756078","0.0-355.0","vlorxxl6","","","null","","Agent B","scrambled","STIM_SET_3/1592129.bmp_pp153_L3_V2_veridical_freeview_isoFalsemismatch_1159813.bmp_L2_fps90.mp4",""
"","","","call-function","356","756079","0.0-356.0","vlorxxl6","","","","","","","",""
"2442.2700000000186","{""judgement"":0}","[0]","survey-likert","357","758522","0.0-357.0","vlorxxl6","","","","","","","","0"
"915.1300000000047","{""confidence"":1}","[0]","survey-likert","358","759438","0.0-358.0","vlorxxl6","","","","","","","",""
"","","","call-function","359","759439","0.0-359.0","vlorxxl6","","","","","","","",""
"null","","","html-keyboard-response","360","760944","0.0-360.0","vlorxxl6","","<span style=""color:Black; font-size:50px;"">Agent A","null","","","","",""
"null","","","video-keyboard-response","361","764038","0.0-361.0","vlorxxl6","","","null","","Agent A","scrambled","STIM_SET_3/713858.bmp_pp57_L1_V2_veridical_freeview_isoFalsemismatch_713749.bmp_L2_fps90.mp4",""
"null","","","html-keyboard-response","362","765539","0.0-362.0","vlorxxl6","","<span style=""color:Black; font-size:50px;"">Agent B","null","","","","",""
"null","","","video-keyboard-response","363","768640","0.0-363.0","vlorxxl6","","","null","","Agent B","veridical","STIM_SET_1_REAL/713749.bmp_pp88_L2_V1.0_veridical_freeview_isoFalse_fps144.mp4",""
"","","","call-function","364","768640","0.0-364.0","vlorxxl6","","","","","","","",""
"5483.945000000065","{""judgement"":0}","[0]","survey-likert","365","774125","0.0-365.0","vlorxxl6","","","","","","","","1"
"1119.8649999999907","{""confidence"":0}","[0]","survey-likert","366","775246","0.0-366.0","vlorxxl6","","","","","","","",""
"","","","call-function","367","775247","0.0-367.0","vlorxxl6","","","","","","","",""
"null","","","html-keyboard-response","368","776753","0.0-368.0","vlorxxl6","","<span style=""color:Black; font-size:50px;"">Agent A","null","","","","",""
"null","","","video-keyboard-response","369","779838","0.0-369.0","vlorxxl6","","","null","","Agent A","scrambled","STIM_SET_3/1592350.bmp_pp55_L3_V2_veridical_freeview_isoFalsemismatch_498111.bmp_L2_fps90.mp4",""
"null","","","html-keyboard-response","370","781342","0.0-370.0","vlorxxl6","","<span style=""color:Black; font-size:50px;"">Agent B","null","","","","",""
"null","","","video-keyboard-response","371","784419","0.0-371.0","vlorxxl6","","","null","","Agent B","veridical","STIM_SET_1_REAL/498111.bmp_pp88_L2_V1.0_veridical_freeview_isoFalse_fps144.mp4",""
"","","","call-function","372","784420","0.0-372.0","vlorxxl6","","","","","","","",""
"1384.0899999999674","{""judgement"":1}","[0]","survey-likert","373","785806","0.0-373.0","vlorxxl6","","","","","","","","1"
"1109.3499999999767","{""confidence"":1}","[0]","survey-likert","374","786917","0.0-374.0","vlorxxl6","","","","","","","",""
"","","","call-function","375","786917","0.0-375.0","vlorxxl6","","","","","","","",""
"null","","","html-keyboard-response","376","788419","0.0-376.0","vlorxxl6","","<span style=""color:Black; font-size:50px;"">Agent A","null","","","","",""
"null","","","video-keyboard-response","377","791516","0.0-377.0","vlorxxl6","","","null","","Agent A","scrambled","STIM_SET_3/1592951.bmp_pp80_L3_V2_veridical_freeview_isoFalsemismatch_712977.bmp_L1_fps90.mp4",""
"null","","","html-keyboard-response","378","793020","0.0-378.0","vlorxxl6","","<span style=""color:Black; font-size:50px;"">Agent B","null","","","","",""
"null","","","video-keyboard-response","379","796096","0.0-379.0","vlorxxl6","","","null","","Agent B","veridical","STIM_SET_1_REAL/712977.bmp_pp51_L1_V1.0_veridical_freeview_isoFalse_fps144.mp4",""
"","","","call-function","380","796097","0.0-380.0","vlorxxl6","","","","","","","",""
"1371.7050000000745","{""judgement"":1}","[0]","survey-likert","381","797470","0.0-381.0","vlorxxl6","","","","","","","","1"
"1966.4049999999115","{""confidence"":2}","[0]","survey-likert","382","799438","0.0-382.0","vlorxxl6","","","","","","","",""
"","","","call-function","383","799438","0.0-383.0","vlorxxl6","","","","","","","",""
"null","","","html-keyboard-response","384","800944","0.0-384.0","vlorxxl6","","<span style=""color:Black; font-size:50px;"">Agent A","null","","","","",""
"null","","","video-keyboard-response","385","804007","0.0-385.0","vlorxxl6","","","null","","Agent A","veridical","STIM_SET_1_REAL/498170.bmp_pp153_L3_V1.0_veridical_freeview_isoFalse_fps144.mp4",""
"null","","","html-keyboard-response","386","805512","0.0-386.0","vlorxxl6","","<span style=""color:Black; font-size:50px;"">Agent B","null","","","","",""
"null","","","video-keyboard-response","387","808604","0.0-387.0","vlorxxl6","","","null","","Agent B","scrambled","STIM_SET_3/713742.bmp_pp91_L3_V2_veridical_freeview_isoFalsemismatch_498170.bmp_L3_fps90.mp4",""
"","","","call-function","388","808605","0.0-388.0","vlorxxl6","","","","","","","",""
"2210.4949999999953","{""judgement"":0}","[0]","survey-likert","389","810817","0.0-389.0","vlorxxl6","","","","","","","","0"
"891.6800000000512","{""confidence"":1}","[0]","survey-likert","390","811710","0.0-390.0","vlorxxl6","","","","","","","",""
"","","","call-function","391","811710","0.0-391.0","vlorxxl6","","","","","","","",""
"null","","","html-keyboard-response","392","813212","0.0-392.0","vlorxxl6","","<span style=""color:Black; font-size:50px;"">Agent A","null","","","","",""
"null","","","video-keyboard-response","393","816347","0.0-393.0","vlorxxl6","","","null","","Agent A","scrambled","STIM_SET_3/1592568.bmp_pp71_L1_V2_veridical_freeview_isoFalsemismatch_285905.bmp_L1_fps90.mp4",""
"null","","","html-keyboard-response","394","817851","0.0-394.0","vlorxxl6","","<span style=""color:Black; font-size:50px;"">Agent B","null","","","","",""
"null","","","video-keyboard-response","395","820952","0.0-395.0","vlorxxl6","","","null","","Agent B","veridical","STIM_SET_1_REAL/285905.bmp_pp57_L1_V1.0_veridical_freeview_isoFalse_fps144.mp4",""
"","","","call-function","396","820952","0.0-396.0","vlorxxl6","","","","","","","",""
"1792.9399999999441","{""judgement"":1}","[0]","survey-likert","397","822746","0.0-397.0","vlorxxl6","","","","","","","","1"
"1185.030000000028","{""confidence"":2}","[0]","survey-likert","398","823932","0.0-398.0","vlorxxl6","","","","","","","",""
"","","","call-function","399","823933","0.0-399.0","vlorxxl6","","","","","","","",""
"null","","","html-keyboard-response","400","825437","0.0-400.0","vlorxxl6","","<span style=""color:Black; font-size:50px;"">Agent A","null","","","","",""
"null","","","video-keyboard-response","401","828548","0.0-401.0","vlorxxl6","","","null","","Agent A","scrambled","STIM_SET_3/713920.bmp_pp76_L1_V2_veridical_freeview_isoFalsemismatch_713684.bmp_L3_fps90.mp4",""
"null","","","html-keyboard-response","402","830053","0.0-402.0","vlorxxl6","","<span style=""color:Black; font-size:50px;"">Agent B","null","","","","",""
"null","","","video-keyboard-response","403","833155","0.0-403.0","vlorxxl6","","","null","","Agent B","veridical","STIM_SET_1_REAL/713684.bmp_pp85_L3_V1.0_veridical_freeview_isoFalse_fps144.mp4",""
"","","","call-function","404","833156","0.0-404.0","vlorxxl6","","","","","","","",""
"2879.784999999916","{""judgement"":1}","[0]","survey-likert","405","836036","0.0-405.0","vlorxxl6","","","","","","","","1"
"1263.7250000000931","{""confidence"":1}","[0]","survey-likert","406","837301","0.0-406.0","vlorxxl6","","","","","","","",""
"","","","call-function","407","837302","0.0-407.0","vlorxxl6","","","","","","","",""
"null","","","html-keyboard-response","408","838803","0.0-408.0","vlorxxl6","","<span style=""color:Black; font-size:50px;"">Agent A","null","","","","",""
"null","","","video-keyboard-response","409","841912","0.0-409.0","vlorxxl6","","","null","","Agent A","veridical","STIM_SET_1_REAL/713135.bmp_pp54_L2_V1.0_veridical_freeview_isoFalse_fps144.mp4",""
"null","","","html-keyboard-response","410","843415","0.0-410.0","vlorxxl6","","<span style=""color:Black; font-size:50px;"">Agent B","null","","","","",""
"null","","","video-keyboard-response","411","846536","0.0-411.0","vlorxxl6","","","null","","Agent B","scrambled","STIM_SET_3/1592567.bmp_pp70_L2_V2_veridical_freeview_isoFalsemismatch_713135.bmp_L2_fps90.mp4",""
"","","","call-function","412","846537","0.0-412.0","vlorxxl6","","","","","","","",""
"1607.765000000014","{""judgement"":0}","[0]","survey-likert","413","848145","0.0-413.0","vlorxxl6","","","","","","","","0"
"2055.274999999907","{""confidence"":2}","[0]","survey-likert","414","850202","0.0-414.0","vlorxxl6","","","","","","","",""
"2288.920000000042","","","instructions","415","852492","0.0-415.0","vlorxxl6","[{""page_index"":0,""viewing_time"":1390.0400000000373},{""page_index"":1,""viewing_time"":590.6450000000186},{""page_index"":2,""viewing_time"":308.0799999999581}]","","","","","","",""
"1014.265000000014","","","instructions","416","853507","0.0-416.0","vlorxxl6","[{""page_index"":0,""viewing_time"":204.5},{""page_index"":1,""viewing_time"":379.5999999999767},{""page_index"":2,""viewing_time"":429.9800000000978}]","","","","","","",""
"","","","call-function","417","853507","0.0-417.0","vlorxxl6","","","","","","","",""
"null","","","html-keyboard-response","418","855011","0.0-418.0","vlorxxl6","","<span style=""color:Black; font-size:50px;"">Agent A","null","","","","",""
"null","","","video-keyboard-response","419","858087","0.0-419.0","vlorxxl6","","","null","","Agent A","scrambled","STIM_SET_3/1591920.bmp_pp97_L3_V2_veridical_freeview_isoFalsemismatch_1592804.bmp_L3_fps90.mp4",""
"null","","","html-keyboard-response","420","859590","0.0-420.0","vlorxxl6","","<span style=""color:Black; font-size:50px;"">Agent B","null","","","","",""
"null","","","video-keyboard-response","421","862671","0.0-421.0","vlorxxl6","","","null","","Agent B","veridical","STIM_SET_1_REAL/1592804.bmp_pp91_L3_V1.0_veridical_freeview_isoFalse_fps144.mp4",""
"","","","call-function","422","862672","0.0-422.0","vlorxxl6","","","","","","","",""
"1606.1600000000326","{""judgement"":1}","[0]","survey-likert","423","864279","0.0-423.0","vlorxxl6","","","","","","","","1"
"1802.390000000014","{""confidence"":1}","[0]","survey-likert","424","866082","0.0-424.0","vlorxxl6","","","","","","","",""
"","","","call-function","425","866083","0.0-425.0","vlorxxl6","","","","","","","",""
"null","","","html-keyboard-response","426","867588","0.0-426.0","vlorxxl6","","<span style=""color:Black; font-size:50px;"">Agent A","null","","","","",""
"null","","","video-keyboard-response","427","870678","0.0-427.0","vlorxxl6","","","null","","Agent A","scrambled","STIM_SET_3/1159329.bmp_pp61_L2_V2_veridical_freeview_isoFalsemismatch_1592817.bmp_L3_fps90.mp4",""
"null","","","html-keyboard-response","428","872182","0.0-428.0","vlorxxl6","","<span style=""color:Black; font-size:50px;"">Agent B","null","","","","",""
"null","","","video-keyboard-response","429","875247","0.0-429.0","vlorxxl6","","","null","","Agent B","veridical","STIM_SET_1_REAL/1592817.bmp_pp55_L3_V1.0_veridical_freeview_isoFalse_fps144.mp4",""
"","","","call-function","430","875248","0.0-430.0","vlorxxl6","","","","","","","",""
"2234.07500000007","{""judgement"":1}","[0]","survey-likert","431","877482","0.0-431.0","vlorxxl6","","","","","","","","1"
"1181.5700000000652","{""confidence"":1}","[0]","survey-likert","432","878665","0.0-432.0","vlorxxl6","","","","","","","",""
"","","","call-function","433","878666","0.0-433.0","vlorxxl6","","","","","","","",""
"null","","","html-keyboard-response","434","880171","0.0-434.0","vlorxxl6","","<span style=""color:Black; font-size:50px;"">Agent A","null","","","","",""
"null","","","video-keyboard-response","435","883283","0.0-435.0","vlorxxl6","","","null","","Agent A","veridical","STIM_SET_1_REAL/1591954.bmp_pp62_L2_V1.0_veridical_freeview_isoFalse_fps144.mp4",""
"null","","","html-keyboard-response","436","884789","0.0-436.0","vlorxxl6","","<span style=""color:Black; font-size:50px;"">Agent B","null","","","","",""
"null","","","video-keyboard-response","437","887862","0.0-437.0","vlorxxl6","","","null","","Agent B","scrambled","STIM_SET_3/1160049.bmp_pp53_L2_V2_veridical_freeview_isoFalsemismatch_1591954.bmp_L2_fps90.mp4",""
"","","","call-function","438","887863","0.0-438.0","vlorxxl6","","","","","","","",""
"1989.0400000000373","{""judgement"":1}","[0]","survey-likert","439","889853","0.0-439.0","vlorxxl6","","","","","","","","0"
"1350.5499999999302","{""confidence"":1}","[0]","survey-likert","440","891207","0.0-440.0","vlorxxl6","","","","","","","",""
"","","","call-function","441","891208","0.0-441.0","vlorxxl6","","","","","","","",""
"null","","","html-keyboard-response","442","892713","0.0-442.0","vlorxxl6","","<span style=""color:Black; font-size:50px;"">Agent A","null","","","","",""
"null","","","video-keyboard-response","443","895780","0.0-443.0","vlorxxl6","","","null","","Agent A","veridical","STIM_SET_1_REAL/1159572.bmp_pp71_L1_V1.0_veridical_freeview_isoFalse_fps144.mp4",""
"null","","","html-keyboard-response","444","897282","0.0-444.0","vlorxxl6","","<span style=""color:Black; font-size:50px;"">Agent B","null","","","","",""
"null","","","video-keyboard-response","445","900401","0.0-445.0","vlorxxl6","","","null","","Agent B","scrambled","STIM_SET_3/713381.bmp_pp82_L2_V2_veridical_freeview_isoFalsemismatch_1159572.bmp_L1_fps90.mp4",""
"","","","call-function","446","900401","0.0-446.0","vlorxxl6","","","","","","","",""
"2461.5050000000047","{""judgement"":0}","[0]","survey-likert","447","902864","0.0-447.0","vlorxxl6","","","","","","","","0"
"1728.8800000000047","{""confidence"":2}","[0]","survey-likert","448","904594","0.0-448.0","vlorxxl6","","","","","","","",""
"","","","call-function","449","904595","0.0-449.0","vlorxxl6","","","","","","","",""
"null","","","html-keyboard-response","450","906100","0.0-450.0","vlorxxl6","","<span style=""color:Black; font-size:50px;"">Agent A","null","","","","",""
"null","","","video-keyboard-response","451","909166","0.0-451.0","vlorxxl6","","","null","","Agent A","veridical","STIM_SET_1_REAL/285994.bmp_pp92_L3_V1.0_veridical_freeview_isoFalse_fps144.mp4",""
"null","","","html-keyboard-response","452","910669","0.0-452.0","vlorxxl6","","<span style=""color:Black; font-size:50px;"">Agent B","null","","","","",""
"null","","","video-keyboard-response","453","913761","0.0-453.0","vlorxxl6","","","null","","Agent B","scrambled","STIM_SET_3/1159592.bmp_pp91_L3_V2_veridical_freeview_isoFalsemismatch_285994.bmp_L3_fps90.mp4",""
"","","","call-function","454","913762","0.0-454.0","vlorxxl6","","","","","","","",""
"4562.369999999995","{""judgement"":0}","[0]","survey-likert","455","918325","0.0-455.0","vlorxxl6","","","","","","","","0"
"1287.1649999999208","{""confidence"":1}","[0]","survey-likert","456","919613","0.0-456.0","vlorxxl6","","","","","","","",""
"","","","call-function","457","919614","0.0-457.0","vlorxxl6","","","","","","","",""
"null","","","html-keyboard-response","458","921116","0.0-458.0","vlorxxl6","","<span style=""color:Black; font-size:50px;"">Agent A","null","","","","",""
"null","","","video-keyboard-response","459","924227","0.0-459.0","vlorxxl6","","","null","","Agent A","scrambled","STIM_SET_3/1592314.bmp_pp100_L3_V2_veridical_freeview_isoFalsemismatch_713707.bmp_L1_fps90.mp4",""
"null","","","html-keyboard-response","460","925731","0.0-460.0","vlorxxl6","","<span style=""color:Black; font-size:50px;"">Agent B","null","","","","",""
"null","","","video-keyboard-response","461","928836","0.0-461.0","vlorxxl6","","","null","","Agent B","veridical","STIM_SET_1_REAL/713707.bmp_pp154_L1_V1.0_veridical_freeview_isoFalse_fps144.mp4",""
"","","","call-function","462","928838","0.0-462.0","vlorxxl6","","","","","","","",""
"2288.890000000014","{""judgement"":1}","[0]","survey-likert","463","931127","0.0-463.0","vlorxxl6","","","","","","","","1"
"1116.045000000042","{""confidence"":2}","[0]","survey-likert","464","932245","0.0-464.0","vlorxxl6","","","","","","","",""
"","","","call-function","465","932245","0.0-465.0","vlorxxl6","","","","","","","",""
"null","","","html-keyboard-response","466","933746","0.0-466.0","vlorxxl6","","<span style=""color:Black; font-size:50px;"">Agent A","null","","","","",""
"null","","","video-keyboard-response","467","936841","0.0-467.0","vlorxxl6","","","null","","Agent A","veridical","STIM_SET_1_REAL/1592890.bmp_pp82_L2_V1.0_veridical_freeview_isoFalse_fps144.mp4",""
"null","","","html-keyboard-response","468","938348","0.0-468.0","vlorxxl6","","<span style=""color:Black; font-size:50px;"">Agent B","null","","","","",""
"null","","","video-keyboard-response","469","941473","0.0-469.0","vlorxxl6","","","null","","Agent B","scrambled","STIM_SET_3/1592168.bmp_pp71_L1_V2_veridical_freeview_isoFalsemismatch_1592890.bmp_L2_fps90.mp4",""
"","","","call-function","470","941473","0.0-470.0","vlorxxl6","","","","","","","",""
"3316.6300000000047","{""judgement"":0}","[0]","survey-likert","471","944791","0.0-471.0","vlorxxl6","","","","","","","","0"
"1099.1850000000559","{""confidence"":0}","[0]","survey-likert","472","945892","0.0-472.0","vlorxxl6","","","","","","","",""
"","","","call-function","473","945892","0.0-473.0","vlorxxl6","","","","","","","",""
"null","","","html-keyboard-response","474","947396","0.0-474.0","vlorxxl6","","<span style=""color:Black; font-size:50px;"">Agent A","null","","","","",""
"null","","","video-keyboard-response","475","950514","0.0-475.0","vlorxxl6","","","null","","Agent A","scrambled","STIM_SET_3/285959.bmp_pp93_L1_V2_veridical_freeview_isoFalsemismatch_498253.bmp_L2_fps90.mp4",""
"null","","","html-keyboard-response","476","952018","0.0-476.0","vlorxxl6","","<span style=""color:Black; font-size:50px;"">Agent B","null","","","","",""
"null","","","video-keyboard-response","477","955118","0.0-477.0","vlorxxl6","","","null","","Agent B","veridical","STIM_SET_1_REAL/498253.bmp_pp67_L2_V1.0_veridical_freeview_isoFalse_fps144.mp4",""
"","","","call-function","478","955119","0.0-478.0","vlorxxl6","","","","","","","",""
"7940.92499999993","{""judgement"":1}","[0]","survey-likert","479","963061","0.0-479.0","vlorxxl6","","","","","","","","1"
"1583.7550000000047","{""confidence"":0}","[0]","survey-likert","480","964646","0.0-480.0","vlorxxl6","","","","","","","",""
"","","","call-function","481","964647","0.0-481.0","vlorxxl6","","","","","","","",""
"null","","","html-keyboard-response","482","966148","0.0-482.0","vlorxxl6","","<span style=""color:Black; font-size:50px;"">Agent A","null","","","","",""
"null","","","video-keyboard-response","483","969227","0.0-483.0","vlorxxl6","","","null","","Agent A","veridical","STIM_SET_1_REAL/1591876.bmp_pp63_L1_V1.0_veridical_freeview_isoFalse_fps144.mp4",""
"null","","","html-keyboard-response","484","970732","0.0-484.0","vlorxxl6","","<span style=""color:Black; font-size:50px;"">Agent B","null","","","","",""
"null","","","video-keyboard-response","485","973811","0.0-485.0","vlorxxl6","","","null","","Agent B","scrambled","STIM_SET_3/1159427.bmp_pp98_L1_V2_veridical_freeview_isoFalsemismatch_1591876.bmp_L1_fps90.mp4",""
"","","","call-function","486","973812","0.0-486.0","vlorxxl6","","","","","","","",""
"1882.1950000000652","{""judgement"":0}","[0]","survey-likert","487","975695","0.0-487.0","vlorxxl6","","","","","","","","0"
"1966.795000000042","{""confidence"":2}","[0]","survey-likert","488","977663","0.0-488.0","vlorxxl6","","","","","","","",""
"","","","call-function","489","977663","0.0-489.0","vlorxxl6","","","","","","","",""
"null","","","html-keyboard-response","490","979166","0.0-490.0","vlorxxl6","","<span style=""color:Black; font-size:50px;"">Agent A","null","","","","",""
"null","","","video-keyboard-response","491","982234","0.0-491.0","vlorxxl6","","","null","","Agent A","veridical","STIM_SET_1_REAL/1592727.bmp_pp59_L3_V1.0_veridical_freeview_isoFalse_fps144.mp4",""
"null","","","html-keyboard-response","492","983736","0.0-492.0","vlorxxl6","","<span style=""color:Black; font-size:50px;"">Agent B","null","","","","",""
"null","","","video-keyboard-response","493","986822","0.0-493.0","vlorxxl6","","","null","","Agent B","scrambled","STIM_SET_3/1592038.bmp_pp79_L2_V2_veridical_freeview_isoFalsemismatch_1592727.bmp_L3_fps90.mp4",""
"","","","call-function","494","986823","0.0-494.0","vlorxxl6","","","","","","","",""
"2224.670000000042","{""judgement"":0}","[0]","survey-likert","495","989049","0.0-495.0","vlorxxl6","","","","","","","","0"
"2056.984999999986","{""confidence"":3}","[0]","survey-likert","496","991108","0.0-496.0","vlorxxl6","","","","","","","",""
"24852.380000000005","","","instructions","497","1015962","0.0-497.0","vlorxxl6","[{""page_index"":0,""viewing_time"":23605.38500000001},{""page_index"":1,""viewing_time"":781.9699999999721},{""page_index"":2,""viewing_time"":464.86999999999534}]","","","","","","",""
"1315.0050000000047","","","instructions","498","1017278","0.0-498.0","vlorxxl6","[{""page_index"":0,""viewing_time"":411.79000000003725},{""page_index"":1,""viewing_time"":450.0100000000093},{""page_index"":2,""viewing_time"":453.09499999997206}]","","","","","","",""
"","","","call-function","499","1017280","0.0-499.0","vlorxxl6","","","","","","","",""
"null","","","html-keyboard-response","500","1018784","0.0-500.0","vlorxxl6","","<span style=""color:Black; font-size:50px;"">Agent A","null","","","","",""
"null","","","video-keyboard-response","501","1021864","0.0-501.0","vlorxxl6","","","null","","Agent A","scrambled","STIM_SET_3/498326.bmp_pp57_L1_V2_veridical_freeview_isoFalsemismatch_1592286.bmp_L1_fps90.mp4",""
"null","","","html-keyboard-response","502","1023368","0.0-502.0","vlorxxl6","","<span style=""color:Black; font-size:50px;"">Agent B","null","","","","",""
"null","","","video-keyboard-response","503","1026441","0.0-503.0","vlorxxl6","","","null","","Agent B","veridical","STIM_SET_1_REAL/1592286.bmp_pp52_L1_V1.0_veridical_freeview_isoFalse_fps144.mp4",""
"","","","call-function","504","1026441","0.0-504.0","vlorxxl6","","","","","","","",""
"1687.8099999999395","{""judgement"":1}","[0]","survey-likert","505","1028130","0.0-505.0","vlorxxl6","","","","","","","","1"
"1569.2249999999767","{""confidence"":1}","[0]","survey-likert","506","1029701","0.0-506.0","vlorxxl6","","","","","","","",""
"","","","call-function","507","1029702","0.0-507.0","vlorxxl6","","","","","","","",""
"null","","","html-keyboard-response","508","1031204","0.0-508.0","vlorxxl6","","<span style=""color:Black; font-size:50px;"">Agent A","null","","","","",""
"null","","","video-keyboard-response","509","1034269","0.0-509.0","vlorxxl6","","","null","","Agent A","veridical","STIM_SET_1_REAL/713403.bmp_pp80_L3_V1.0_veridical_freeview_isoFalse_fps144.mp4",""
"null","","","html-keyboard-response","510","1035772","0.0-510.0","vlorxxl6","","<span style=""color:Black; font-size:50px;"">Agent B","null","","","","",""
"null","","","video-keyboard-response","511","1038850","0.0-511.0","vlorxxl6","","","null","","Agent B","scrambled","STIM_SET_3/286034.bmp_pp69_L3_V2_veridical_freeview_isoFalsemismatch_713403.bmp_L3_fps90.mp4",""
"","","","call-function","512","1038850","0.0-512.0","vlorxxl6","","","","","","","",""
"1426.3150000000605","{""judgement"":0}","[0]","survey-likert","513","1040277","0.0-513.0","vlorxxl6","","","","","","","","0"
"1447.454999999958","{""confidence"":3}","[0]","survey-likert","514","1041726","0.0-514.0","vlorxxl6","","","","","","","",""
"","","","call-function","515","1041727","0.0-515.0","vlorxxl6","","","","","","","",""
"null","","","html-keyboard-response","516","1043232","0.0-516.0","vlorxxl6","","<span style=""color:Black; font-size:50px;"">Agent A","null","","","","",""
"null","","","video-keyboard-response","517","1046337","0.0-517.0","vlorxxl6","","","null","","Agent A","veridical","STIM_SET_1_REAL/1159855.bmp_pp99_L2_V1.0_veridical_freeview_isoFalse_fps144.mp4",""
"null","","","html-keyboard-response","518","1047840","0.0-518.0","vlorxxl6","","<span style=""color:Black; font-size:50px;"">Agent B","null","","","","",""
"null","","","video-keyboard-response","519","1050938","0.0-519.0","vlorxxl6","","","null","","Agent B","scrambled","STIM_SET_3/285932.bmp_pp64_L1_V2_veridical_freeview_isoFalsemismatch_1159855.bmp_L2_fps90.mp4",""
"","","","call-function","520","1050939","0.0-520.0","vlorxxl6","","","","","","","",""
"2271.815000000177","{""judgement"":0}","[0]","survey-likert","521","1053212","0.0-521.0","vlorxxl6","","","","","","","","0"
"2385.030000000028","{""confidence"":2}","[0]","survey-likert","522","1055598","0.0-522.0","vlorxxl6","","","","","","","",""
"","","","call-function","523","1055599","0.0-523.0","vlorxxl6","","","","","","","",""
"null","","","html-keyboard-response","524","1057105","0.0-524.0","vlorxxl6","","<span style=""color:Black; font-size:50px;"">Agent A","null","","","","",""
"null","","","video-keyboard-response","525","1060210","0.0-525.0","vlorxxl6","","","null","","Agent A","veridical","STIM_SET_1_REAL/713620.bmp_pp65_L3_V1.0_veridical_freeview_isoFalse_fps144.mp4",""
"null","","","html-keyboard-response","526","1061712","0.0-526.0","vlorxxl6","","<span style=""color:Black; font-size:50px;"">Agent B","null","","","","",""
"null","","","video-keyboard-response","527","1064817","0.0-527.0","vlorxxl6","","","null","","Agent B","scrambled","STIM_SET_3/498398.bmp_pp81_L1_V2_veridical_freeview_isoFalsemismatch_713620.bmp_L3_fps90.mp4",""
"","","","call-function","528","1064817","0.0-528.0","vlorxxl6","","","","","","","",""
"1703.3700000001118","{""judgement"":0}","[0]","survey-likert","529","1066521","0.0-529.0","vlorxxl6","","","","","","","","0"
"1550.4299999999348","{""confidence"":1}","[0]","survey-likert","530","1068073","0.0-530.0","vlorxxl6","","","","","","","",""
"","","","call-function","531","1068074","0.0-531.0","vlorxxl6","","","","","","","",""
"null","","","html-keyboard-response","532","1069577","0.0-532.0","vlorxxl6","","<span style=""color:Black; font-size:50px;"">Agent A","null","","","","",""
"null","","","video-keyboard-response","533","1072688","0.0-533.0","vlorxxl6","","","null","","Agent A","scrambled","STIM_SET_3/498261.bmp_pp84_L3_V2_veridical_freeview_isoFalsemismatch_1592657.bmp_L1_fps90.mp4",""
"null","","","html-keyboard-response","534","1074194","0.0-534.0","vlorxxl6","","<span style=""color:Black; font-size:50px;"">Agent B","null","","","","",""
"null","","","video-keyboard-response","535","1077298","0.0-535.0","vlorxxl6","","","null","","Agent B","veridical","STIM_SET_1_REAL/1592657.bmp_pp98_L1_V1.0_veridical_freeview_isoFalse_fps144.mp4",""
"","","","call-function","536","1077299","0.0-536.0","vlorxxl6","","","","","","","",""
"3537.089999999851","{""judgement"":1}","[0]","survey-likert","537","1080837","0.0-537.0","vlorxxl6","","","","","","","","1"
"1061.3649999999907","{""confidence"":1}","[0]","survey-likert","538","1081899","0.0-538.0","vlorxxl6","","","","","","","",""
"","","","call-function","539","1081900","0.0-539.0","vlorxxl6","","","","","","","",""
"null","","","html-keyboard-response","540","1083402","0.0-540.0","vlorxxl6","","<span style=""color:Black; font-size:50px;"">Agent A","null","","","","",""
"null","","","video-keyboard-response","541","1086471","0.0-541.0","vlorxxl6","","","null","","Agent A","veridical","STIM_SET_1_REAL/1592934.bmp_pp63_L1_V1.0_veridical_freeview_isoFalse_fps144.mp4",""
"null","","","html-keyboard-response","542","1087973","0.0-542.0","vlorxxl6","","<span style=""color:Black; font-size:50px;"">Agent B","null","","","","",""
"null","","","video-keyboard-response","543","1091047","0.0-543.0","vlorxxl6","","","null","","Agent B","scrambled","STIM_SET_3/1159392.bmp_pp96_L2_V2_veridical_freeview_isoFalsemismatch_1592934.bmp_L1_fps90.mp4",""
"","","","call-function","544","1091048","0.0-544.0","vlorxxl6","","","","","","","",""
"2090.475000000093","{""judgement"":0}","[0]","survey-likert","545","1093139","0.0-545.0","vlorxxl6","","","","","","","","0"
"1250.880000000121","{""confidence"":1}","[0]","survey-likert","546","1094392","0.0-546.0","vlorxxl6","","","","","","","",""
"","","","call-function","547","1094393","0.0-547.0","vlorxxl6","","","","","","","",""
"null","","","html-keyboard-response","548","1095897","0.0-548.0","vlorxxl6","","<span style=""color:Black; font-size:50px;"">Agent A","null","","","","",""
"null","","","video-keyboard-response","549","1098972","0.0-549.0","vlorxxl6","","","null","","Agent A","veridical","STIM_SET_1_REAL/713211.bmp_pp100_L3_V1.0_veridical_freeview_isoFalse_fps144.mp4",""
"null","","","html-keyboard-response","550","1100474","0.0-550.0","vlorxxl6","","<span style=""color:Black; font-size:50px;"">Agent B","null","","","","",""
"null","","","video-keyboard-response","551","1103672","0.0-551.0","vlorxxl6","","","null","","Agent B","scrambled","STIM_SET_3/1592921.bmp_pp69_L3_V2_veridical_freeview_isoFalsemismatch_713211.bmp_L3_fps90.mp4",""
"","","","call-function","552","1103672","0.0-552.0","vlorxxl6","","","","","","","",""
"1559.5049999998882","{""judgement"":0}","[0]","survey-likert","553","1105233","0.0-553.0","vlorxxl6","","","","","","","","0"
"1332.094999999972","{""confidence"":2}","[0]","survey-likert","554","1106566","0.0-554.0","vlorxxl6","","","","","","","",""
"","","","call-function","555","1106567","0.0-555.0","vlorxxl6","","","","","","","",""
"null","","","html-keyboard-response","556","1108069","0.0-556.0","vlorxxl6","","<span style=""color:Black; font-size:50px;"">Agent A","null","","","","",""
"null","","","video-keyboard-response","557","1111172","0.0-557.0","vlorxxl6","","","null","","Agent A","veridical","STIM_SET_1_REAL/1159784.bmp_pp73_L3_V1.0_veridical_freeview_isoFalse_fps144.mp4",""
"null","","","html-keyboard-response","558","1112678","0.0-558.0","vlorxxl6","","<span style=""color:Black; font-size:50px;"">Agent B","null","","","","",""
"null","","","video-keyboard-response","559","1115793","0.0-559.0","vlorxxl6","","","null","","Agent B","scrambled","STIM_SET_3/61513.bmp_pp75_L1_V2_veridical_freeview_isoFalsemismatch_1159784.bmp_L3_fps90.mp4",""
"","","","call-function","560","1115794","0.0-560.0","vlorxxl6","","","","","","","",""
"2015.0250000001397","{""judgement"":0}","[0]","survey-likert","561","1117810","0.0-561.0","vlorxxl6","","","","","","","","0"
"1312.8850000000093","{""confidence"":1}","[0]","survey-likert","562","1119125","0.0-562.0","vlorxxl6","","","","","","","",""
"","","","call-function","563","1119125","0.0-563.0","vlorxxl6","","","","","","","",""
"null","","","html-keyboard-response","564","1120631","0.0-564.0","vlorxxl6","","<span style=""color:Black; font-size:50px;"">Agent A","null","","","","",""
"null","","","video-keyboard-response","565","1123748","0.0-565.0","vlorxxl6","","","null","","Agent A","scrambled","STIM_SET_3/713652.bmp_pp89_L1_V2_veridical_freeview_isoFalsemismatch_1592807.bmp_L1_fps90.mp4",""
"null","","","html-keyboard-response","566","1125252","0.0-566.0","vlorxxl6","","<span style=""color:Black; font-size:50px;"">Agent B","null","","","","",""
"null","","","video-keyboard-response","567","1128359","0.0-567.0","vlorxxl6","","","null","","Agent B","veridical","STIM_SET_1_REAL/1592807.bmp_pp68_L1_V1.0_veridical_freeview_isoFalse_fps144.mp4",""
"","","","call-function","568","1128360","0.0-568.0","vlorxxl6","","","","","","","",""
"6089.854999999981","{""judgement"":1}","[0]","survey-likert","569","1134451","0.0-569.0","vlorxxl6","","","","","","","","1"
"1421.7549999998882","{""confidence"":1}","[0]","survey-likert","570","1135875","0.0-570.0","vlorxxl6","","","","","","","",""
"","","","call-function","571","1135877","0.0-571.0","vlorxxl6","","","","","","","",""
"null","","","html-keyboard-response","572","1137380","0.0-572.0","vlorxxl6","","<span style=""color:Black; font-size:50px;"">Agent A","null","","","","",""
"null","","","video-keyboard-response","573","1140455","0.0-573.0","vlorxxl6","","","null","","Agent A","scrambled","STIM_SET_3/1592150.bmp_pp77_L3_V2_veridical_freeview_isoFalsemismatch_1159447.bmp_L2_fps90.mp4",""
"null","","","html-keyboard-response","574","1141960","0.0-574.0","vlorxxl6","","<span style=""color:Black; font-size:50px;"">Agent B","null","","","","",""
"null","","","video-keyboard-response","575","1145024","0.0-575.0","vlorxxl6","","","null","","Agent B","veridical","STIM_SET_1_REAL/1159447.bmp_pp70_L2_V1.0_veridical_freeview_isoFalse_fps144.mp4",""
"","","","call-function","576","1145025","0.0-576.0","vlorxxl6","","","","","","","",""
"5008.625","{""judgement"":1}","[0]","survey-likert","577","1150034","0.0-577.0","vlorxxl6","","","","","","","","1"
"1241.3199999998324","{""confidence"":2}","[0]","survey-likert","578","1151277","0.0-578.0","vlorxxl6","","","","","","","",""
"1990.0199999997858","","","instructions","579","1153268","0.0-579.0","vlorxxl6","[{""page_index"":0,""viewing_time"":1989.8799999998882}]","","","","","","",""
"3075.9599999999627","","","instructions","580","1156345","0.0-580.0","vlorxxl6","[{""page_index"":0,""viewing_time"":3075.8549999999814}]","","","","","","",""
"6389.425000000047","{""post-1"":2}","[0]","survey-likert","581","1162736","0.0-581.0","vlorxxl6","","","","","","","",""
"4652.194999999832","{""post-1"":0}","[0]","survey-likert","582","1167389","0.0-582.0","vlorxxl6","","","","","","","",""
"5661.260000000009","{""post-2"":1}","[0]","survey-likert","583","1173052","0.0-583.0","vlorxxl6","","","","","","","",""
"2765.5849999999627","{""post-2"":0}","[0]","survey-likert","584","1175819","0.0-584.0","vlorxxl6","","","","","","","",""
"3337.844999999972","{""post-3"":2}","[0]","survey-likert","585","1179158","0.0-585.0","vlorxxl6","","","","","","","",""
"2433.5449999999255","{""post-3"":0}","[0]","survey-likert","586","1181593","0.0-586.0","vlorxxl6","","","","","","","",""
"4439.989999999991","{""post-4"":1}","[0]","survey-likert","587","1186034","0.0-587.0","vlorxxl6","","","","","","","",""
"3338.530000000028","{""post-4"":0}","[0]","survey-likert","588","1189374","0.0-588.0","vlorxxl6","","","","","","","",""
"8668.669999999925","{""post-5"":0}","[0]","survey-likert","589","1198044","0.0-589.0","vlorxxl6","","","","","","","",""
"2010.5449999999255","{""post-5"":2}","[0]","survey-likert","590","1200056","0.0-590.0","vlorxxl6","","","","","","","",""
"103002.85999999987","{""Q0"":""Having done this set after a previous set of seven scenarios, I felt more prepared to look for signs in each attention sequence, but I also started feeling more fatigued by looking at the screen for awhile (despite taking breaks). Overall, this set felt easier (the fake sequences typically appeared very fake).""}","","survey-text","591","1303066","0.0-591.0","vlorxxl6","","","","","","","",""
"55750.125","{""Q0"":""I found easiest the scenarios in which one attention sequence focused on the background instead of the subjects at the front (faces, writing, etc.).""}","","survey-text","592","1358820","0.0-592.0","vlorxxl6","","","","","","","",""
"32838.830000000075","{""Q0"":""There were a couple scenarios in which both attention sequences felt plausible, so I had to guess between them.""}","","survey-text","593","1391663","0.0-593.0","vlorxxl6","","","","","","","",""
"101609.11999999988","","","instructions","594","1493274","0.0-594.0","vlorxxl6","[{""page_index"":0,""viewing_time"":101608.96999999997}]","","","","","","",""
"57007.37000000011","{""Experimenter_end"":[""Printed ID# vlorxxl6 on consent form"",""Given subject SONA credit or payment"",""Given the subject debrief form""]}","[0]","survey-multi-select","595","1550284","0.0-595.0","vlorxxl6","","","","","","","",""
