"rt","responses","question_order","trial_type","trial_index","time_elapsed","internal_node_id","ID","view_history","stimulus","key_press","value","agent","condition","image","correct_answer"
"6384.05","{""Experimenter"":[""Confirmed subject's identity"",""Confirmed normal or corrected-to-normal vision"",""Obtained consent (signature and date)"",""Checked the test room lighting"",""Checked computer screen lighting"",""Checked distance from screen to chin rest (50cm)"",""Cleaned and adjusted chin rest"",""Counterbalanced the order of the tasks"",""Opened the experiment in Firefox"",""Made the experiment full screen"",""Encouraged subject to silence phone, put away distractors, etc.""]}","[0]","survey-multi-select","0","6393","0.0-0.0","vrrer54g","","","","","","","",""
"6995.165000000001","","","instructions","1","13390","0.0-1.0","vrrer54g","[{""page_index"":0,""viewing_time"":6994.610000000001}]","","","","","","",""
"5838.9349999999995","","","instructions","2","19231","0.0-2.0","vrrer54g","[{""page_index"":0,""viewing_time"":3950.49},{""page_index"":1,""viewing_time"":569.0550000000003},{""page_index"":2,""viewing_time"":1319.260000000002}]","","","","","","",""
"791.4650000000001","","","instructions","3","20023","0.0-3.0","vrrer54g","[{""page_index"":0,""viewing_time"":791.3600000000006}]","","","","","","",""
"null","","","video-keyboard-response","4","23095","0.0-4.0","vrrer54g","","","null","","","","",""
"11464.410000000003","","","instructions","5","34560","0.0-5.0","vrrer54g","[{""page_index"":0,""viewing_time"":4589.220000000001},{""page_index"":1,""viewing_time"":3246.0550000000003},{""page_index"":2,""viewing_time"":3629.034999999996}]","","","","","","",""
"393.40000000000146","","","instructions","6","34954","0.0-6.0","vrrer54g","[{""page_index"":0,""viewing_time"":393.3000000000029}]","","","","","","",""
"588.489999999998","","","instructions","7","35543","0.0-7.0","vrrer54g","[{""page_index"":0,""viewing_time"":588.2750000000015}]","","","","","","",""
"null","","","video-keyboard-response","8","38617","0.0-8.0","vrrer54g","","","null","","","","",""
"4412.940000000002","","","instructions","9","43031","0.0-9.0","vrrer54g","[{""page_index"":0,""viewing_time"":1440.685000000005},{""page_index"":1,""viewing_time"":1094.7099999999991},{""page_index"":2,""viewing_time"":1877.3999999999942}]","","","","","","",""
"1569.8899999999994","","","instructions","10","44601","0.0-10.0","vrrer54g","[{""page_index"":0,""viewing_time"":1569.7750000000015}]","","","","","","",""
"","","","call-function","11","44602","0.0-11.0","vrrer54g","","","","","","","",""
"null","","","html-keyboard-response","12","46109","0.0-12.0","vrrer54g","","<span style=""color:Black; font-size:50px;"">Agent A","null","","","","",""
"null","","","video-keyboard-response","13","49177","0.0-13.0","vrrer54g","","","null","","Agent A","veridical","STIM_SET_2_144/1592298.bmp_pp56_L3_V1.0_veridical_freeview_isoTrue_fps144.mp4",""
"null","","","html-keyboard-response","14","50681","0.0-14.0","vrrer54g","","<span style=""color:Black; font-size:50px;"">Agent B","null","","","","",""
"null","","","video-keyboard-response","15","53754","0.0-15.0","vrrer54g","","","null","","Agent B","scrambled","STIM_SET_5/1592298.bmp_pp56_L3_V1.0_veridical_freeview_isoTrue_Hflip_fps144.mp4",""
"","","","call-function","16","53754","0.0-16.0","vrrer54g","","","","","","","",""
"1751.114999999998","{""judgement"":0}","[0]","survey-likert","17","55506","0.0-17.0","vrrer54g","","","","","","","","0"
"1162.6749999999956","{""confidence"":1}","[0]","survey-likert","18","56670","0.0-18.0","vrrer54g","","","","","","","",""
"","","","call-function","19","56671","0.0-19.0","vrrer54g","","","","","","","",""
"null","","","html-keyboard-response","20","58176","0.0-20.0","vrrer54g","","<span style=""color:Black; font-size:50px;"">Agent A","null","","","","",""
"null","","","video-keyboard-response","21","61272","0.0-21.0","vrrer54g","","","null","","Agent A","scrambled","STIM_SET_5/107909.bmp_pp95_L2_V1.0_veridical_freeview_isoTrue_Hflip_fps144.mp4",""
"null","","","html-keyboard-response","22","62779","0.0-22.0","vrrer54g","","<span style=""color:Black; font-size:50px;"">Agent B","null","","","","",""
"null","","","video-keyboard-response","23","65868","0.0-23.0","vrrer54g","","","null","","Agent B","veridical","STIM_SET_2_144/107909.bmp_pp95_L2_V1.0_veridical_freeview_isoTrue_fps144.mp4",""
"","","","call-function","24","65869","0.0-24.0","vrrer54g","","","","","","","",""
"2441.0800000000017","{""judgement"":1}","[0]","survey-likert","25","68311","0.0-25.0","vrrer54g","","","","","","","","1"
"1169.4899999999907","{""confidence"":1}","[0]","survey-likert","26","69481","0.0-26.0","vrrer54g","","","","","","","",""
"","","","call-function","27","69482","0.0-27.0","vrrer54g","","","","","","","",""
"null","","","html-keyboard-response","28","70986","0.0-28.0","vrrer54g","","<span style=""color:Black; font-size:50px;"">Agent A","null","","","","",""
"null","","","video-keyboard-response","29","74070","0.0-29.0","vrrer54g","","","null","","Agent A","veridical","STIM_SET_2_144/1592350.bmp_pp55_L3_V1.0_veridical_freeview_isoTrue_fps144.mp4",""
"null","","","html-keyboard-response","30","75574","0.0-30.0","vrrer54g","","<span style=""color:Black; font-size:50px;"">Agent B","null","","","","",""
"null","","","video-keyboard-response","31","78660","0.0-31.0","vrrer54g","","","null","","Agent B","scrambled","STIM_SET_5/1592350.bmp_pp55_L3_V1.0_veridical_freeview_isoTrue_Hflip_fps144.mp4",""
"","","","call-function","32","78660","0.0-32.0","vrrer54g","","","","","","","",""
"4074.9749999999913","{""judgement"":1}","[0]","survey-likert","33","82736","0.0-33.0","vrrer54g","","","","","","","","0"
"957.1949999999924","{""confidence"":0}","[0]","survey-likert","34","83695","0.0-34.0","vrrer54g","","","","","","","",""
"","","","call-function","35","83695","0.0-35.0","vrrer54g","","","","","","","",""
"null","","","html-keyboard-response","36","85197","0.0-36.0","vrrer54g","","<span style=""color:Black; font-size:50px;"">Agent A","null","","","","",""
"null","","","video-keyboard-response","37","88257","0.0-37.0","vrrer54g","","","null","","Agent A","scrambled","STIM_SET_5/498398.bmp_pp81_L1_V1.0_veridical_freeview_isoTrue_Hflip_fps144.mp4",""
"null","","","html-keyboard-response","38","89764","0.0-38.0","vrrer54g","","<span style=""color:Black; font-size:50px;"">Agent B","null","","","","",""
"null","","","video-keyboard-response","39","92840","0.0-39.0","vrrer54g","","","null","","Agent B","veridical","STIM_SET_2_144/498398.bmp_pp81_L1_V1.0_veridical_freeview_isoTrue_fps144.mp4",""
"","","","call-function","40","92840","0.0-40.0","vrrer54g","","","","","","","",""
"2450.404999999999","{""judgement"":1}","[0]","survey-likert","41","95292","0.0-41.0","vrrer54g","","","","","","","","1"
"1979.7899999999936","{""confidence"":1}","[0]","survey-likert","42","97273","0.0-42.0","vrrer54g","","","","","","","",""
"","","","call-function","43","97273","0.0-43.0","vrrer54g","","","","","","","",""
"null","","","html-keyboard-response","44","98775","0.0-44.0","vrrer54g","","<span style=""color:Black; font-size:50px;"">Agent A","null","","","","",""
"null","","","video-keyboard-response","45","101849","0.0-45.0","vrrer54g","","","null","","Agent A","veridical","STIM_SET_2_144/285959.bmp_pp93_L1_V1.0_veridical_freeview_isoTrue_fps144.mp4",""
"null","","","html-keyboard-response","46","103353","0.0-46.0","vrrer54g","","<span style=""color:Black; font-size:50px;"">Agent B","null","","","","",""
"null","","","video-keyboard-response","47","106444","0.0-47.0","vrrer54g","","","null","","Agent B","scrambled","STIM_SET_5/285959.bmp_pp93_L1_V1.0_veridical_freeview_isoTrue_Hflip_fps144.mp4",""
"","","","call-function","48","106444","0.0-48.0","vrrer54g","","","","","","","",""
"2184.850000000006","{""judgement"":0}","[0]","survey-likert","49","108630","0.0-49.0","vrrer54g","","","","","","","","0"
"1321.8899999999994","{""confidence"":2}","[0]","survey-likert","50","109953","0.0-50.0","vrrer54g","","","","","","","",""
"","","","call-function","51","109954","0.0-51.0","vrrer54g","","","","","","","",""
"null","","","html-keyboard-response","52","111458","0.0-52.0","vrrer54g","","<span style=""color:Black; font-size:50px;"">Agent A","null","","","","",""
"null","","","video-keyboard-response","53","114532","0.0-53.0","vrrer54g","","","null","","Agent A","scrambled","STIM_SET_5/1592168.bmp_pp71_L1_V1.0_veridical_freeview_isoTrue_Hflip_fps144.mp4",""
"null","","","html-keyboard-response","54","116039","0.0-54.0","vrrer54g","","<span style=""color:Black; font-size:50px;"">Agent B","null","","","","",""
"null","","","video-keyboard-response","55","119116","0.0-55.0","vrrer54g","","","null","","Agent B","veridical","STIM_SET_2_144/1592168.bmp_pp71_L1_V1.0_veridical_freeview_isoTrue_fps144.mp4",""
"","","","call-function","56","119116","0.0-56.0","vrrer54g","","","","","","","",""
"2197.9749999999913","{""judgement"":1}","[0]","survey-likert","57","121315","0.0-57.0","vrrer54g","","","","","","","","1"
"1605.6699999999983","{""confidence"":1}","[0]","survey-likert","58","122922","0.0-58.0","vrrer54g","","","","","","","",""
"","","","call-function","59","122922","0.0-59.0","vrrer54g","","","","","","","",""
"null","","","html-keyboard-response","60","124423","0.0-60.0","vrrer54g","","<span style=""color:Black; font-size:50px;"">Agent A","null","","","","",""
"null","","","video-keyboard-response","61","127517","0.0-61.0","vrrer54g","","","null","","Agent A","veridical","STIM_SET_2_144/1159592.bmp_pp91_L3_V1.0_veridical_freeview_isoTrue_fps144.mp4",""
"null","","","html-keyboard-response","62","129019","0.0-62.0","vrrer54g","","<span style=""color:Black; font-size:50px;"">Agent B","null","","","","",""
"null","","","video-keyboard-response","63","132114","0.0-63.0","vrrer54g","","","null","","Agent B","scrambled","STIM_SET_5/1159592.bmp_pp91_L3_V1.0_veridical_freeview_isoTrue_Hflip_fps144.mp4",""
"","","","call-function","64","132114","0.0-64.0","vrrer54g","","","","","","","",""
"3009.695000000007","{""judgement"":1}","[0]","survey-likert","65","135125","0.0-65.0","vrrer54g","","","","","","","","0"
"1311.3099999999977","{""confidence"":1}","[0]","survey-likert","66","136437","0.0-66.0","vrrer54g","","","","","","","",""
"","","","call-function","67","136438","0.0-67.0","vrrer54g","","","","","","","",""
"null","","","html-keyboard-response","68","137941","0.0-68.0","vrrer54g","","<span style=""color:Black; font-size:50px;"">Agent A","null","","","","",""
"null","","","video-keyboard-response","69","141025","0.0-69.0","vrrer54g","","","null","","Agent A","veridical","STIM_SET_2_144/1592201.bmp_pp97_L3_V1.0_veridical_freeview_isoTrue_fps144.mp4",""
"null","","","html-keyboard-response","70","142532","0.0-70.0","vrrer54g","","<span style=""color:Black; font-size:50px;"">Agent B","null","","","","",""
"null","","","video-keyboard-response","71","145600","0.0-71.0","vrrer54g","","","null","","Agent B","scrambled","STIM_SET_5/1592201.bmp_pp97_L3_V1.0_veridical_freeview_isoTrue_Hflip_fps144.mp4",""
"","","","call-function","72","145602","0.0-72.0","vrrer54g","","","","","","","",""
"3248.7850000000035","{""judgement"":0}","[0]","survey-likert","73","148852","0.0-73.0","vrrer54g","","","","","","","","0"
"1219.2449999999953","{""confidence"":1}","[0]","survey-likert","74","150073","0.0-74.0","vrrer54g","","","","","","","",""
"","","","call-function","75","150074","0.0-75.0","vrrer54g","","","","","","","",""
"null","","","html-keyboard-response","76","151576","0.0-76.0","vrrer54g","","<span style=""color:Black; font-size:50px;"">Agent A","null","","","","",""
"null","","","video-keyboard-response","77","154645","0.0-77.0","vrrer54g","","","null","","Agent A","veridical","STIM_SET_2_144/1159329.bmp_pp61_L2_V1.0_veridical_freeview_isoTrue_fps144.mp4",""
"null","","","html-keyboard-response","78","156150","0.0-78.0","vrrer54g","","<span style=""color:Black; font-size:50px;"">Agent B","null","","","","",""
"null","","","video-keyboard-response","79","159220","0.0-79.0","vrrer54g","","","null","","Agent B","scrambled","STIM_SET_5/1159329.bmp_pp61_L2_V1.0_veridical_freeview_isoTrue_Hflip_fps144.mp4",""
"","","","call-function","80","159221","0.0-80.0","vrrer54g","","","","","","","",""
"1073.4150000000081","{""judgement"":1}","[0]","survey-likert","81","160295","0.0-81.0","vrrer54g","","","","","","","","0"
"1181.7900000000081","{""confidence"":2}","[0]","survey-likert","82","161479","0.0-82.0","vrrer54g","","","","","","","",""
"","","","call-function","83","161479","0.0-83.0","vrrer54g","","","","","","","",""
"null","","","html-keyboard-response","84","162981","0.0-84.0","vrrer54g","","<span style=""color:Black; font-size:50px;"">Agent A","null","","","","",""
"null","","","video-keyboard-response","85","166058","0.0-85.0","vrrer54g","","","null","","Agent A","veridical","STIM_SET_2_144/1591781.bmp_pp63_L1_V1.0_veridical_freeview_isoTrue_fps144.mp4",""
"null","","","html-keyboard-response","86","167565","0.0-86.0","vrrer54g","","<span style=""color:Black; font-size:50px;"">Agent B","null","","","","",""
"null","","","video-keyboard-response","87","170656","0.0-87.0","vrrer54g","","","null","","Agent B","scrambled","STIM_SET_5/1591781.bmp_pp63_L1_V1.0_veridical_freeview_isoTrue_Hflip_fps144.mp4",""
"","","","call-function","88","170656","0.0-88.0","vrrer54g","","","","","","","",""
"3191.220000000001","{""judgement"":1}","[0]","survey-likert","89","173849","0.0-89.0","vrrer54g","","","","","","","","0"
"1121.6399999999849","{""confidence"":1}","[0]","survey-likert","90","174972","0.0-90.0","vrrer54g","","","","","","","",""
"4252.470000000001","","","instructions","91","179225","0.0-91.0","vrrer54g","[{""page_index"":0,""viewing_time"":2082.515000000014},{""page_index"":1,""viewing_time"":1573.6900000000023},{""page_index"":2,""viewing_time"":596.0349999999744}]","","","","","","",""
"8108.390000000014","","","instructions","92","187334","0.0-92.0","vrrer54g","[{""page_index"":0,""viewing_time"":586.1449999999895},{""page_index"":1,""viewing_time"":1443.1800000000221},{""page_index"":2,""viewing_time"":6078.845000000001}]","","","","","","",""
"","","","call-function","93","187334","0.0-93.0","vrrer54g","","","","","","","",""
"null","","","html-keyboard-response","94","188836","0.0-94.0","vrrer54g","","<span style=""color:Black; font-size:50px;"">Agent A","null","","","","",""
"null","","","video-keyboard-response","95","191921","0.0-95.0","vrrer54g","","","null","","Agent A","scrambled","STIM_SET_5/1592289.bmp_pp92_L3_V1.0_veridical_freeview_isoTrue_Hflip_fps144.mp4",""
"null","","","html-keyboard-response","96","193426","0.0-96.0","vrrer54g","","<span style=""color:Black; font-size:50px;"">Agent B","null","","","","",""
"null","","","video-keyboard-response","97","196516","0.0-97.0","vrrer54g","","","null","","Agent B","veridical","STIM_SET_2_144/1592289.bmp_pp92_L3_V1.0_veridical_freeview_isoTrue_fps144.mp4",""
"","","","call-function","98","196516","0.0-98.0","vrrer54g","","","","","","","",""
"3785.3800000000047","{""judgement"":0}","[0]","survey-likert","99","200302","0.0-99.0","vrrer54g","","","","","","","","1"
"2477.8949999999895","{""confidence"":2}","[0]","survey-likert","100","202781","0.0-100.0","vrrer54g","","","","","","","",""
"","","","call-function","101","202782","0.0-101.0","vrrer54g","","","","","","","",""
"null","","","html-keyboard-response","102","204283","0.0-102.0","vrrer54g","","<span style=""color:Black; font-size:50px;"">Agent A","null","","","","",""
"null","","","video-keyboard-response","103","207375","0.0-103.0","vrrer54g","","","null","","Agent A","veridical","STIM_SET_2_144/713381.bmp_pp82_L2_V1.0_veridical_freeview_isoTrue_fps144.mp4",""
"null","","","html-keyboard-response","104","208877","0.0-104.0","vrrer54g","","<span style=""color:Black; font-size:50px;"">Agent B","null","","","","",""
"null","","","video-keyboard-response","105","211950","0.0-105.0","vrrer54g","","","null","","Agent B","scrambled","STIM_SET_5/713381.bmp_pp82_L2_V1.0_veridical_freeview_isoTrue_Hflip_fps144.mp4",""
"","","","call-function","106","211950","0.0-106.0","vrrer54g","","","","","","","",""
"2096.2149999999965","{""judgement"":1}","[0]","survey-likert","107","214047","0.0-107.0","vrrer54g","","","","","","","","0"
"2141.084999999992","{""confidence"":0}","[0]","survey-likert","108","216190","0.0-108.0","vrrer54g","","","","","","","",""
"","","","call-function","109","216190","0.0-109.0","vrrer54g","","","","","","","",""
"null","","","html-keyboard-response","110","217695","0.0-110.0","vrrer54g","","<span style=""color:Black; font-size:50px;"">Agent A","null","","","","",""
"null","","","video-keyboard-response","111","220762","0.0-111.0","vrrer54g","","","null","","Agent A","veridical","STIM_SET_2_144/498258.bmp_pp51_L1_V1.0_veridical_freeview_isoTrue_fps144.mp4",""
"null","","","html-keyboard-response","112","222265","0.0-112.0","vrrer54g","","<span style=""color:Black; font-size:50px;"">Agent B","null","","","","",""
"null","","","video-keyboard-response","113","225333","0.0-113.0","vrrer54g","","","null","","Agent B","scrambled","STIM_SET_5/498258.bmp_pp51_L1_V1.0_veridical_freeview_isoTrue_Hflip_fps144.mp4",""
"","","","call-function","114","225334","0.0-114.0","vrrer54g","","","","","","","",""
"5828.3949999999895","{""judgement"":0}","[0]","survey-likert","115","231163","0.0-115.0","vrrer54g","","","","","","","","0"
"2153.085000000021","{""confidence"":1}","[0]","survey-likert","116","233318","0.0-116.0","vrrer54g","","","","","","","",""
"","","","call-function","117","233318","0.0-117.0","vrrer54g","","","","","","","",""
"null","","","html-keyboard-response","118","234821","0.0-118.0","vrrer54g","","<span style=""color:Black; font-size:50px;"">Agent A","null","","","","",""
"null","","","video-keyboard-response","119","237888","0.0-119.0","vrrer54g","","","null","","Agent A","veridical","STIM_SET_2_144/1592044.bmp_pp94_L2_V1.0_veridical_freeview_isoTrue_fps144.mp4",""
"null","","","html-keyboard-response","120","239392","0.0-120.0","vrrer54g","","<span style=""color:Black; font-size:50px;"">Agent B","null","","","","",""
"null","","","video-keyboard-response","121","242470","0.0-121.0","vrrer54g","","","null","","Agent B","scrambled","STIM_SET_5/1592044.bmp_pp94_L2_V1.0_veridical_freeview_isoTrue_Hflip_fps144.mp4",""
"","","","call-function","122","242471","0.0-122.0","vrrer54g","","","","","","","",""
"2185.289999999979","{""judgement"":1}","[0]","survey-likert","123","244657","0.0-123.0","vrrer54g","","","","","","","","0"
"1118.75","{""confidence"":2}","[0]","survey-likert","124","245777","0.0-124.0","vrrer54g","","","","","","","",""
"","","","call-function","125","245777","0.0-125.0","vrrer54g","","","","","","","",""
"null","","","html-keyboard-response","126","247283","0.0-126.0","vrrer54g","","<span style=""color:Black; font-size:50px;"">Agent A","null","","","","",""
"null","","","video-keyboard-response","127","250367","0.0-127.0","vrrer54g","","","null","","Agent A","scrambled","STIM_SET_5/1592530.bmp_pp75_L1_V1.0_veridical_freeview_isoTrue_Hflip_fps144.mp4",""
"null","","","html-keyboard-response","128","251872","0.0-128.0","vrrer54g","","<span style=""color:Black; font-size:50px;"">Agent B","null","","","","",""
"null","","","video-keyboard-response","129","254960","0.0-129.0","vrrer54g","","","null","","Agent B","veridical","STIM_SET_2_144/1592530.bmp_pp75_L1_V1.0_veridical_freeview_isoTrue_fps144.mp4",""
"","","","call-function","130","254961","0.0-130.0","vrrer54g","","","","","","","",""
"1320.695000000007","{""judgement"":1}","[0]","survey-likert","131","256283","0.0-131.0","vrrer54g","","","","","","","","1"
"964.3449999999721","{""confidence"":2}","[0]","survey-likert","132","257249","0.0-132.0","vrrer54g","","","","","","","",""
"","","","call-function","133","257250","0.0-133.0","vrrer54g","","","","","","","",""
"null","","","html-keyboard-response","134","258755","0.0-134.0","vrrer54g","","<span style=""color:Black; font-size:50px;"">Agent A","null","","","","",""
"null","","","video-keyboard-response","135","261834","0.0-135.0","vrrer54g","","","null","","Agent A","scrambled","STIM_SET_5/1159860.bmp_pp152_L2_V1.0_veridical_freeview_isoTrue_Hflip_fps144.mp4",""
"null","","","html-keyboard-response","136","263337","0.0-136.0","vrrer54g","","<span style=""color:Black; font-size:50px;"">Agent B","null","","","","",""
"null","","","video-keyboard-response","137","266401","0.0-137.0","vrrer54g","","","null","","Agent B","veridical","STIM_SET_2_144/1159860.bmp_pp152_L2_V1.0_veridical_freeview_isoTrue_fps144.mp4",""
"","","","call-function","138","266402","0.0-138.0","vrrer54g","","","","","","","",""
"1484.3699999999953","{""judgement"":1}","[0]","survey-likert","139","267887","0.0-139.0","vrrer54g","","","","","","","","1"
"803.2949999999837","{""confidence"":1}","[0]","survey-likert","140","268692","0.0-140.0","vrrer54g","","","","","","","",""
"","","","call-function","141","268693","0.0-141.0","vrrer54g","","","","","","","",""
"null","","","html-keyboard-response","142","270198","0.0-142.0","vrrer54g","","<span style=""color:Black; font-size:50px;"">Agent A","null","","","","",""
"null","","","video-keyboard-response","143","273258","0.0-143.0","vrrer54g","","","null","","Agent A","veridical","STIM_SET_2_144/1592129.bmp_pp153_L3_V1.0_veridical_freeview_isoTrue_fps144.mp4",""
"null","","","html-keyboard-response","144","274761","0.0-144.0","vrrer54g","","<span style=""color:Black; font-size:50px;"">Agent B","null","","","","",""
"null","","","video-keyboard-response","145","277826","0.0-145.0","vrrer54g","","","null","","Agent B","scrambled","STIM_SET_5/1592129.bmp_pp153_L3_V1.0_veridical_freeview_isoTrue_Hflip_fps144.mp4",""
"","","","call-function","146","277827","0.0-146.0","vrrer54g","","","","","","","",""
"4391.380000000005","{""judgement"":1}","[0]","survey-likert","147","282219","0.0-147.0","vrrer54g","","","","","","","","0"
"2782.219999999972","{""confidence"":2}","[0]","survey-likert","148","285003","0.0-148.0","vrrer54g","","","","","","","",""
"","","","call-function","149","285004","0.0-149.0","vrrer54g","","","","","","","",""
"null","","","html-keyboard-response","150","286507","0.0-150.0","vrrer54g","","<span style=""color:Black; font-size:50px;"">Agent A","null","","","","",""
"null","","","video-keyboard-response","151","289586","0.0-151.0","vrrer54g","","","null","","Agent A","veridical","STIM_SET_2_144/1160049.bmp_pp53_L2_V1.0_veridical_freeview_isoTrue_fps144.mp4",""
"null","","","html-keyboard-response","152","291088","0.0-152.0","vrrer54g","","<span style=""color:Black; font-size:50px;"">Agent B","null","","","","",""
"null","","","video-keyboard-response","153","294162","0.0-153.0","vrrer54g","","","null","","Agent B","scrambled","STIM_SET_5/1160049.bmp_pp53_L2_V1.0_veridical_freeview_isoTrue_Hflip_fps144.mp4",""
"","","","call-function","154","294163","0.0-154.0","vrrer54g","","","","","","","",""
"1337.859999999986","{""judgement"":0}","[0]","survey-likert","155","295503","0.0-155.0","vrrer54g","","","","","","","","0"
"1500.2600000000093","{""confidence"":1}","[0]","survey-likert","156","297004","0.0-156.0","vrrer54g","","","","","","","",""
"","","","call-function","157","297005","0.0-157.0","vrrer54g","","","","","","","",""
"null","","","html-keyboard-response","158","298509","0.0-158.0","vrrer54g","","<span style=""color:Black; font-size:50px;"">Agent A","null","","","","",""
"null","","","video-keyboard-response","159","301605","0.0-159.0","vrrer54g","","","null","","Agent A","veridical","STIM_SET_2_144/285946.bmp_pp79_L2_V1.0_veridical_freeview_isoTrue_fps144.mp4",""
"null","","","html-keyboard-response","160","303108","0.0-160.0","vrrer54g","","<span style=""color:Black; font-size:50px;"">Agent B","null","","","","",""
"null","","","video-keyboard-response","161","306204","0.0-161.0","vrrer54g","","","null","","Agent B","scrambled","STIM_SET_5/285946.bmp_pp79_L2_V1.0_veridical_freeview_isoTrue_Hflip_fps144.mp4",""
"","","","call-function","162","306205","0.0-162.0","vrrer54g","","","","","","","",""
"1098.7999999999884","{""judgement"":0}","[0]","survey-likert","163","307305","0.0-163.0","vrrer54g","","","","","","","","0"
"2080.719999999972","{""confidence"":3}","[0]","survey-likert","164","309387","0.0-164.0","vrrer54g","","","","","","","",""
"","","","call-function","165","309387","0.0-165.0","vrrer54g","","","","","","","",""
"null","","","html-keyboard-response","166","310891","0.0-166.0","vrrer54g","","<span style=""color:Black; font-size:50px;"">Agent A","null","","","","",""
"null","","","video-keyboard-response","167","313974","0.0-167.0","vrrer54g","","","null","","Agent A","scrambled","STIM_SET_5/1159819.bmp_pp151_L1_V1.0_veridical_freeview_isoTrue_Hflip_fps144.mp4",""
"null","","","html-keyboard-response","168","315480","0.0-168.0","vrrer54g","","<span style=""color:Black; font-size:50px;"">Agent B","null","","","","",""
"null","","","video-keyboard-response","169","318567","0.0-169.0","vrrer54g","","","null","","Agent B","veridical","STIM_SET_2_144/1159819.bmp_pp151_L1_V1.0_veridical_freeview_isoTrue_fps144.mp4",""
"","","","call-function","170","318569","0.0-170.0","vrrer54g","","","","","","","",""
"2022.015000000014","{""judgement"":0}","[0]","survey-likert","171","320592","0.0-171.0","vrrer54g","","","","","","","","1"
"1335.3699999999953","{""confidence"":1}","[0]","survey-likert","172","321929","0.0-172.0","vrrer54g","","","","","","","",""
"14883.630000000005","","","instructions","173","336813","0.0-173.0","vrrer54g","[{""page_index"":0,""viewing_time"":13863.505000000005},{""page_index"":1,""viewing_time"":460.88000000000466},{""page_index"":2,""viewing_time"":559.0350000000326}]","","","","","","",""
"981.5900000000256","","","instructions","174","337795","0.0-174.0","vrrer54g","[{""page_index"":0,""viewing_time"":161.43499999999767},{""page_index"":1,""viewing_time"":427.6849999999977},{""page_index"":2,""viewing_time"":392.25500000000466}]","","","","","","",""
"","","","call-function","175","337796","0.0-175.0","vrrer54g","","","","","","","",""
"null","","","html-keyboard-response","176","339297","0.0-176.0","vrrer54g","","<span style=""color:Black; font-size:50px;"">Agent A","null","","","","",""
"null","","","video-keyboard-response","177","342359","0.0-177.0","vrrer54g","","","null","","Agent A","scrambled","STIM_SET_5/1159427.bmp_pp98_L1_V1.0_veridical_freeview_isoTrue_Hflip_fps144.mp4",""
"null","","","html-keyboard-response","178","343864","0.0-178.0","vrrer54g","","<span style=""color:Black; font-size:50px;"">Agent B","null","","","","",""
"null","","","video-keyboard-response","179","346927","0.0-179.0","vrrer54g","","","null","","Agent B","veridical","STIM_SET_2_144/1159427.bmp_pp98_L1_V1.0_veridical_freeview_isoTrue_fps144.mp4",""
"","","","call-function","180","346928","0.0-180.0","vrrer54g","","","","","","","",""
"3732.820000000007","{""judgement"":0}","[0]","survey-likert","181","350661","0.0-181.0","vrrer54g","","","","","","","","1"
"1078.219999999972","{""confidence"":2}","[0]","survey-likert","182","351741","0.0-182.0","vrrer54g","","","","","","","",""
"","","","call-function","183","351741","0.0-183.0","vrrer54g","","","","","","","",""
"null","","","html-keyboard-response","184","353244","0.0-184.0","vrrer54g","","<span style=""color:Black; font-size:50px;"">Agent A","null","","","","",""
"null","","","video-keyboard-response","185","356321","0.0-185.0","vrrer54g","","","null","","Agent A","scrambled","STIM_SET_5/713742.bmp_pp91_L3_V1.0_veridical_freeview_isoTrue_Hflip_fps144.mp4",""
"null","","","html-keyboard-response","186","357823","0.0-186.0","vrrer54g","","<span style=""color:Black; font-size:50px;"">Agent B","null","","","","",""
"null","","","video-keyboard-response","187","360902","0.0-187.0","vrrer54g","","","null","","Agent B","veridical","STIM_SET_2_144/713742.bmp_pp91_L3_V1.0_veridical_freeview_isoTrue_fps144.mp4",""
"","","","call-function","188","360903","0.0-188.0","vrrer54g","","","","","","","",""
"1966.5650000000023","{""judgement"":1}","[0]","survey-likert","189","362870","0.0-189.0","vrrer54g","","","","","","","","1"
"958.6550000000279","{""confidence"":2}","[0]","survey-likert","190","363830","0.0-190.0","vrrer54g","","","","","","","",""
"","","","call-function","191","363830","0.0-191.0","vrrer54g","","","","","","","",""
"null","","","html-keyboard-response","192","365333","0.0-192.0","vrrer54g","","<span style=""color:Black; font-size:50px;"">Agent A","null","","","","",""
"null","","","video-keyboard-response","193","368421","0.0-193.0","vrrer54g","","","null","","Agent A","veridical","STIM_SET_2_144/498261.bmp_pp84_L3_V1.0_veridical_freeview_isoTrue_fps144.mp4",""
"null","","","html-keyboard-response","194","369924","0.0-194.0","vrrer54g","","<span style=""color:Black; font-size:50px;"">Agent B","null","","","","",""
"null","","","video-keyboard-response","195","373009","0.0-195.0","vrrer54g","","","null","","Agent B","scrambled","STIM_SET_5/498261.bmp_pp84_L3_V1.0_veridical_freeview_isoTrue_Hflip_fps144.mp4",""
"","","","call-function","196","373010","0.0-196.0","vrrer54g","","","","","","","",""
"1046.2900000000373","{""judgement"":0}","[0]","survey-likert","197","374057","0.0-197.0","vrrer54g","","","","","","","","0"
"1865.6600000000326","{""confidence"":2}","[0]","survey-likert","198","375924","0.0-198.0","vrrer54g","","","","","","","",""
"","","","call-function","199","375925","0.0-199.0","vrrer54g","","","","","","","",""
"null","","","html-keyboard-response","200","377427","0.0-200.0","vrrer54g","","<span style=""color:Black; font-size:50px;"">Agent A","null","","","","",""
"null","","","video-keyboard-response","201","380506","0.0-201.0","vrrer54g","","","null","","Agent A","veridical","STIM_SET_2_144/286034.bmp_pp69_L3_V1.0_veridical_freeview_isoTrue_fps144.mp4",""
"null","","","html-keyboard-response","202","382012","0.0-202.0","vrrer54g","","<span style=""color:Black; font-size:50px;"">Agent B","null","","","","",""
"null","","","video-keyboard-response","203","385093","0.0-203.0","vrrer54g","","","null","","Agent B","scrambled","STIM_SET_5/286034.bmp_pp69_L3_V1.0_veridical_freeview_isoTrue_Hflip_fps144.mp4",""
"","","","call-function","204","385095","0.0-204.0","vrrer54g","","","","","","","",""
"4426.929999999993","{""judgement"":1}","[0]","survey-likert","205","389526","0.0-205.0","vrrer54g","","","","","","","","0"
"872.5899999999674","{""confidence"":2}","[0]","survey-likert","206","390401","0.0-206.0","vrrer54g","","","","","","","",""
"","","","call-function","207","390402","0.0-207.0","vrrer54g","","","","","","","",""
"null","","","html-keyboard-response","208","391903","0.0-208.0","vrrer54g","","<span style=""color:Black; font-size:50px;"">Agent A","null","","","","",""
"null","","","video-keyboard-response","209","394967","0.0-209.0","vrrer54g","","","null","","Agent A","scrambled","STIM_SET_5/1159392.bmp_pp96_L2_V1.0_veridical_freeview_isoTrue_Hflip_fps144.mp4",""
"null","","","html-keyboard-response","210","396470","0.0-210.0","vrrer54g","","<span style=""color:Black; font-size:50px;"">Agent B","null","","","","",""
"null","","","video-keyboard-response","211","399533","0.0-211.0","vrrer54g","","","null","","Agent B","veridical","STIM_SET_2_144/1159392.bmp_pp96_L2_V1.0_veridical_freeview_isoTrue_fps144.mp4",""
"","","","call-function","212","399534","0.0-212.0","vrrer54g","","","","","","","",""
"2655.515000000014","{""judgement"":1}","[0]","survey-likert","213","402190","0.0-213.0","vrrer54g","","","","","","","","1"
"1994.6100000000442","{""confidence"":0}","[0]","survey-likert","214","404186","0.0-214.0","vrrer54g","","","","","","","",""
"","","","call-function","215","404187","0.0-215.0","vrrer54g","","","","","","","",""
"null","","","html-keyboard-response","216","405693","0.0-216.0","vrrer54g","","<span style=""color:Black; font-size:50px;"">Agent A","null","","","","",""
"null","","","video-keyboard-response","217","408757","0.0-217.0","vrrer54g","","","null","","Agent A","scrambled","STIM_SET_5/1591975.bmp_pp88_L2_V1.0_veridical_freeview_isoTrue_Hflip_fps144.mp4",""
"null","","","html-keyboard-response","218","410259","0.0-218.0","vrrer54g","","<span style=""color:Black; font-size:50px;"">Agent B","null","","","","",""
"null","","","video-keyboard-response","219","413324","0.0-219.0","vrrer54g","","","null","","Agent B","veridical","STIM_SET_2_144/1591975.bmp_pp88_L2_V1.0_veridical_freeview_isoTrue_fps144.mp4",""
"","","","call-function","220","413325","0.0-220.0","vrrer54g","","","","","","","",""
"3900.3600000000442","{""judgement"":0}","[0]","survey-likert","221","417226","0.0-221.0","vrrer54g","","","","","","","","1"
"1134.390000000014","{""confidence"":1}","[0]","survey-likert","222","418361","0.0-222.0","vrrer54g","","","","","","","",""
"","","","call-function","223","418362","0.0-223.0","vrrer54g","","","","","","","",""
"null","","","html-keyboard-response","224","419865","0.0-224.0","vrrer54g","","<span style=""color:Black; font-size:50px;"">Agent A","null","","","","",""
"null","","","video-keyboard-response","225","422955","0.0-225.0","vrrer54g","","","null","","Agent A","veridical","STIM_SET_2_144/1160247.bmp_pp54_L2_V1.0_veridical_freeview_isoTrue_fps144.mp4",""
"null","","","html-keyboard-response","226","424459","0.0-226.0","vrrer54g","","<span style=""color:Black; font-size:50px;"">Agent B","null","","","","",""
"null","","","video-keyboard-response","227","427552","0.0-227.0","vrrer54g","","","null","","Agent B","scrambled","STIM_SET_5/1160247.bmp_pp54_L2_V1.0_veridical_freeview_isoTrue_Hflip_fps144.mp4",""
"","","","call-function","228","427553","0.0-228.0","vrrer54g","","","","","","","",""
"2696.0750000000116","{""judgement"":0}","[0]","survey-likert","229","430250","0.0-229.0","vrrer54g","","","","","","","","0"
"1399.4700000000303","{""confidence"":1}","[0]","survey-likert","230","431651","0.0-230.0","vrrer54g","","","","","","","",""
"","","","call-function","231","431651","0.0-231.0","vrrer54g","","","","","","","",""
"null","","","html-keyboard-response","232","433154","0.0-232.0","vrrer54g","","<span style=""color:Black; font-size:50px;"">Agent A","null","","","","",""
"null","","","video-keyboard-response","233","436230","0.0-233.0","vrrer54g","","","null","","Agent A","veridical","STIM_SET_2_144/713328.bmp_pp86_L2_V1.0_veridical_freeview_isoTrue_fps144.mp4",""
"null","","","html-keyboard-response","234","437733","0.0-234.0","vrrer54g","","<span style=""color:Black; font-size:50px;"">Agent B","null","","","","",""
"null","","","video-keyboard-response","235","440807","0.0-235.0","vrrer54g","","","null","","Agent B","scrambled","STIM_SET_5/713328.bmp_pp86_L2_V1.0_veridical_freeview_isoTrue_Hflip_fps144.mp4",""
"","","","call-function","236","440807","0.0-236.0","vrrer54g","","","","","","","",""
"1553.7799999999697","{""judgement"":0}","[0]","survey-likert","237","442362","0.0-237.0","vrrer54g","","","","","","","","0"
"1695.670000000042","{""confidence"":2}","[0]","survey-likert","238","444059","0.0-238.0","vrrer54g","","","","","","","",""
"","","","call-function","239","444059","0.0-239.0","vrrer54g","","","","","","","",""
"null","","","html-keyboard-response","240","445564","0.0-240.0","vrrer54g","","<span style=""color:Black; font-size:50px;"">Agent A","null","","","","",""
"null","","","video-keyboard-response","241","448650","0.0-241.0","vrrer54g","","","null","","Agent A","scrambled","STIM_SET_5/1159508.bmp_pp151_L1_V1.0_veridical_freeview_isoTrue_Hflip_fps144.mp4",""
"null","","","html-keyboard-response","242","450156","0.0-242.0","vrrer54g","","<span style=""color:Black; font-size:50px;"">Agent B","null","","","","",""
"null","","","video-keyboard-response","243","453241","0.0-243.0","vrrer54g","","","null","","Agent B","veridical","STIM_SET_2_144/1159508.bmp_pp151_L1_V1.0_veridical_freeview_isoTrue_fps144.mp4",""
"","","","call-function","244","453242","0.0-244.0","vrrer54g","","","","","","","",""
"4792.990000000049","{""judgement"":1}","[0]","survey-likert","245","458036","0.0-245.0","vrrer54g","","","","","","","","1"
"885.8499999999767","{""confidence"":0}","[0]","survey-likert","246","458923","0.0-246.0","vrrer54g","","","","","","","",""
"","","","call-function","247","458924","0.0-247.0","vrrer54g","","","","","","","",""
"null","","","html-keyboard-response","248","460426","0.0-248.0","vrrer54g","","<span style=""color:Black; font-size:50px;"">Agent A","null","","","","",""
"null","","","video-keyboard-response","249","463492","0.0-249.0","vrrer54g","","","null","","Agent A","scrambled","STIM_SET_5/1592150.bmp_pp77_L3_V1.0_veridical_freeview_isoTrue_Hflip_fps144.mp4",""
"null","","","html-keyboard-response","250","464995","0.0-250.0","vrrer54g","","<span style=""color:Black; font-size:50px;"">Agent B","null","","","","",""
"null","","","video-keyboard-response","251","468057","0.0-251.0","vrrer54g","","","null","","Agent B","veridical","STIM_SET_2_144/1592150.bmp_pp77_L3_V1.0_veridical_freeview_isoTrue_fps144.mp4",""
"","","","call-function","252","468058","0.0-252.0","vrrer54g","","","","","","","",""
"1856.414999999979","{""judgement"":1}","[0]","survey-likert","253","469915","0.0-253.0","vrrer54g","","","","","","","","1"
"763.0750000000116","{""confidence"":2}","[0]","survey-likert","254","470679","0.0-254.0","vrrer54g","","","","","","","",""
"7760.770000000019","","","instructions","255","478441","0.0-255.0","vrrer54g","[{""page_index"":0,""viewing_time"":7417.540000000037},{""page_index"":1,""viewing_time"":156.89499999996042},{""page_index"":2,""viewing_time"":186.1150000000489}]","","","","","","",""
"1376.8549999999814","","","instructions","256","479818","0.0-256.0","vrrer54g","[{""page_index"":0,""viewing_time"":381.9100000000326},{""page_index"":1,""viewing_time"":478.9449999999488},{""page_index"":2,""viewing_time"":515.9000000000233}]","","","","","","",""
"","","","call-function","257","479819","0.0-257.0","vrrer54g","","","","","","","",""
"null","","","html-keyboard-response","258","481325","0.0-258.0","vrrer54g","","<span style=""color:Black; font-size:50px;"">Agent A","null","","","","",""
"null","","","video-keyboard-response","259","484387","0.0-259.0","vrrer54g","","","null","","Agent A","veridical","STIM_SET_2_144/713829.bmp_pp60_L3_V1.0_veridical_freeview_isoTrue_fps144.mp4",""
"null","","","html-keyboard-response","260","485889","0.0-260.0","vrrer54g","","<span style=""color:Black; font-size:50px;"">Agent B","null","","","","",""
"null","","","video-keyboard-response","261","488951","0.0-261.0","vrrer54g","","","null","","Agent B","scrambled","STIM_SET_5/713829.bmp_pp60_L3_V1.0_veridical_freeview_isoTrue_Hflip_fps144.mp4",""
"","","","call-function","262","488952","0.0-262.0","vrrer54g","","","","","","","",""
"2439.2050000000163","{""judgement"":0}","[0]","survey-likert","263","491392","0.0-263.0","vrrer54g","","","","","","","","0"
"1012.7000000000116","{""confidence"":1}","[0]","survey-likert","264","492406","0.0-264.0","vrrer54g","","","","","","","",""
"","","","call-function","265","492407","0.0-265.0","vrrer54g","","","","","","","",""
"null","","","html-keyboard-response","266","493909","0.0-266.0","vrrer54g","","<span style=""color:Black; font-size:50px;"">Agent A","null","","","","",""
"null","","","video-keyboard-response","267","496986","0.0-267.0","vrrer54g","","","null","","Agent A","veridical","STIM_SET_2_144/1159325.bmp_pp67_L2_V1.0_veridical_freeview_isoTrue_fps144.mp4",""
"null","","","html-keyboard-response","268","498490","0.0-268.0","vrrer54g","","<span style=""color:Black; font-size:50px;"">Agent B","null","","","","",""
"null","","","video-keyboard-response","269","501569","0.0-269.0","vrrer54g","","","null","","Agent B","scrambled","STIM_SET_5/1159325.bmp_pp67_L2_V1.0_veridical_freeview_isoTrue_Hflip_fps144.mp4",""
"","","","call-function","270","501570","0.0-270.0","vrrer54g","","","","","","","",""
"1633.4199999999837","{""judgement"":1}","[0]","survey-likert","271","503204","0.0-271.0","vrrer54g","","","","","","","","0"
"1272.6699999999837","{""confidence"":1}","[0]","survey-likert","272","504479","0.0-272.0","vrrer54g","","","","","","","",""
"","","","call-function","273","504479","0.0-273.0","vrrer54g","","","","","","","",""
"null","","","html-keyboard-response","274","505981","0.0-274.0","vrrer54g","","<span style=""color:Black; font-size:50px;"">Agent A","null","","","","",""
"null","","","video-keyboard-response","275","509062","0.0-275.0","vrrer54g","","","null","","Agent A","scrambled","STIM_SET_5/1592567.bmp_pp70_L2_V1.0_veridical_freeview_isoTrue_Hflip_fps144.mp4",""
"null","","","html-keyboard-response","276","510566","0.0-276.0","vrrer54g","","<span style=""color:Black; font-size:50px;"">Agent B","null","","","","",""
"null","","","video-keyboard-response","277","513645","0.0-277.0","vrrer54g","","","null","","Agent B","veridical","STIM_SET_2_144/1592567.bmp_pp70_L2_V1.0_veridical_freeview_isoTrue_fps144.mp4",""
"","","","call-function","278","513646","0.0-278.0","vrrer54g","","","","","","","",""
"2038.3250000000116","{""judgement"":0}","[0]","survey-likert","279","515685","0.0-279.0","vrrer54g","","","","","","","","1"
"1048.9599999999627","{""confidence"":1}","[0]","survey-likert","280","516735","0.0-280.0","vrrer54g","","","","","","","",""
"","","","call-function","281","516736","0.0-281.0","vrrer54g","","","","","","","",""
"null","","","html-keyboard-response","282","518242","0.0-282.0","vrrer54g","","<span style=""color:Black; font-size:50px;"">Agent A","null","","","","",""
"null","","","video-keyboard-response","283","521332","0.0-283.0","vrrer54g","","","null","","Agent A","scrambled","STIM_SET_5/1160204.bmp_pp54_L2_V1.0_veridical_freeview_isoTrue_Hflip_fps144.mp4",""
"null","","","html-keyboard-response","284","522835","0.0-284.0","vrrer54g","","<span style=""color:Black; font-size:50px;"">Agent B","null","","","","",""
"null","","","video-keyboard-response","285","525919","0.0-285.0","vrrer54g","","","null","","Agent B","veridical","STIM_SET_2_144/1160204.bmp_pp54_L2_V1.0_veridical_freeview_isoTrue_fps144.mp4",""
"","","","call-function","286","525919","0.0-286.0","vrrer54g","","","","","","","",""
"2592.0849999999627","{""judgement"":1}","[0]","survey-likert","287","528513","0.0-287.0","vrrer54g","","","","","","","","1"
"1374.875","{""confidence"":1}","[0]","survey-likert","288","529890","0.0-288.0","vrrer54g","","","","","","","",""
"","","","call-function","289","529891","0.0-289.0","vrrer54g","","","","","","","",""
"null","","","html-keyboard-response","290","531395","0.0-290.0","vrrer54g","","<span style=""color:Black; font-size:50px;"">Agent A","null","","","","",""
"null","","","video-keyboard-response","291","534470","0.0-291.0","vrrer54g","","","null","","Agent A","scrambled","STIM_SET_5/713790.bmp_pp100_L3_V1_veridical_freeview_isoTrue_Hflip_fps144.mp4",""
"null","","","html-keyboard-response","292","535973","0.0-292.0","vrrer54g","","<span style=""color:Black; font-size:50px;"">Agent B","null","","","","",""
"null","","","video-keyboard-response","293","539053","0.0-293.0","vrrer54g","","","null","","Agent B","veridical","STIM_SET_2_144/713790.bmp_pp100_L3_V1_veridical_freeview_isoTrue_fps144.mp4",""
"","","","call-function","294","539054","0.0-294.0","vrrer54g","","","","","","","",""
"2841.1199999999953","{""judgement"":0}","[0]","survey-likert","295","541896","0.0-295.0","vrrer54g","","","","","","","","1"
"2368.42499999993","{""confidence"":2}","[0]","survey-likert","296","544266","0.0-296.0","vrrer54g","","","","","","","",""
"","","","call-function","297","544267","0.0-297.0","vrrer54g","","","","","","","",""
"null","","","html-keyboard-response","298","545768","0.0-298.0","vrrer54g","","<span style=""color:Black; font-size:50px;"">Agent A","null","","","","",""
"null","","","video-keyboard-response","299","548845","0.0-299.0","vrrer54g","","","null","","Agent A","scrambled","STIM_SET_5/1159874.bmp_pp96_L2_V1.0_veridical_freeview_isoTrue_Hflip_fps144.mp4",""
"null","","","html-keyboard-response","300","550346","0.0-300.0","vrrer54g","","<span style=""color:Black; font-size:50px;"">Agent B","null","","","","",""
"null","","","video-keyboard-response","301","553423","0.0-301.0","vrrer54g","","","null","","Agent B","veridical","STIM_SET_2_144/1159874.bmp_pp96_L2_V1.0_veridical_freeview_isoTrue_fps144.mp4",""
"","","","call-function","302","553423","0.0-302.0","vrrer54g","","","","","","","",""
"2123.310000000056","{""judgement"":1}","[0]","survey-likert","303","555547","0.0-303.0","vrrer54g","","","","","","","","1"
"899","{""confidence"":2}","[0]","survey-likert","304","556448","0.0-304.0","vrrer54g","","","","","","","",""
"","","","call-function","305","556448","0.0-305.0","vrrer54g","","","","","","","",""
"null","","","html-keyboard-response","306","557949","0.0-306.0","vrrer54g","","<span style=""color:Black; font-size:50px;"">Agent A","null","","","","",""
"null","","","video-keyboard-response","307","561027","0.0-307.0","vrrer54g","","","null","","Agent A","veridical","STIM_SET_2_144/285684.bmp_pp80_L3_V1.0_veridical_freeview_isoTrue_fps144.mp4",""
"null","","","html-keyboard-response","308","562534","0.0-308.0","vrrer54g","","<span style=""color:Black; font-size:50px;"">Agent B","null","","","","",""
"null","","","video-keyboard-response","309","565612","0.0-309.0","vrrer54g","","","null","","Agent B","scrambled","STIM_SET_5/285684.bmp_pp80_L3_V1.0_veridical_freeview_isoTrue_Hflip_fps144.mp4",""
"","","","call-function","310","565612","0.0-310.0","vrrer54g","","","","","","","",""
"1090.9450000000652","{""judgement"":0}","[0]","survey-likert","311","566704","0.0-311.0","vrrer54g","","","","","","","","0"
"1491.9800000000978","{""confidence"":3}","[0]","survey-likert","312","568197","0.0-312.0","vrrer54g","","","","","","","",""
"","","","call-function","313","568198","0.0-313.0","vrrer54g","","","","","","","",""
"null","","","html-keyboard-response","314","569704","0.0-314.0","vrrer54g","","<span style=""color:Black; font-size:50px;"">Agent A","null","","","","",""
"null","","","video-keyboard-response","315","572793","0.0-315.0","vrrer54g","","","null","","Agent A","scrambled","STIM_SET_5/713770.bmp_pp89_L1_V1.0_veridical_freeview_isoTrue_Hflip_fps144.mp4",""
"null","","","html-keyboard-response","316","574295","0.0-316.0","vrrer54g","","<span style=""color:Black; font-size:50px;"">Agent B","null","","","","",""
"null","","","video-keyboard-response","317","577387","0.0-317.0","vrrer54g","","","null","","Agent B","veridical","STIM_SET_2_144/713770.bmp_pp89_L1_V1.0_veridical_freeview_isoTrue_fps144.mp4",""
"","","","call-function","318","577388","0.0-318.0","vrrer54g","","","","","","","",""
"2281.8950000000186","{""judgement"":0}","[0]","survey-likert","319","579671","0.0-319.0","vrrer54g","","","","","","","","1"
"899.4550000000745","{""confidence"":1}","[0]","survey-likert","320","580571","0.0-320.0","vrrer54g","","","","","","","",""
"","","","call-function","321","580572","0.0-321.0","vrrer54g","","","","","","","",""
"null","","","html-keyboard-response","322","582078","0.0-322.0","vrrer54g","","<span style=""color:Black; font-size:50px;"">Agent A","null","","","","",""
"null","","","video-keyboard-response","323","585153","0.0-323.0","vrrer54g","","","null","","Agent A","veridical","STIM_SET_2_144/713652.bmp_pp89_L1_V1_veridical_freeview_isoTrue_fps144.mp4",""
"null","","","html-keyboard-response","324","586656","0.0-324.0","vrrer54g","","<span style=""color:Black; font-size:50px;"">Agent B","null","","","","",""
"null","","","video-keyboard-response","325","589734","0.0-325.0","vrrer54g","","","null","","Agent B","scrambled","STIM_SET_5/713652.bmp_pp89_L1_V1_veridical_freeview_isoTrue_Hflip_fps144.mp4",""
"","","","call-function","326","589735","0.0-326.0","vrrer54g","","","","","","","",""
"1295.2449999999953","{""judgement"":1}","[0]","survey-likert","327","591031","0.0-327.0","vrrer54g","","","","","","","","0"
"1375.9149999999208","{""confidence"":1}","[0]","survey-likert","328","592408","0.0-328.0","vrrer54g","","","","","","","",""
"","","","call-function","329","592409","0.0-329.0","vrrer54g","","","","","","","",""
"null","","","html-keyboard-response","330","593913","0.0-330.0","vrrer54g","","<span style=""color:Black; font-size:50px;"">Agent A","null","","","","",""
"null","","","video-keyboard-response","331","597053","0.0-331.0","vrrer54g","","","null","","Agent A","veridical","STIM_SET_2_144/498372.bmp_pp95_L2_V1_veridical_freeview_isoTrue_fps144.mp4",""
"null","","","html-keyboard-response","332","598558","0.0-332.0","vrrer54g","","<span style=""color:Black; font-size:50px;"">Agent B","null","","","","",""
"null","","","video-keyboard-response","333","601634","0.0-333.0","vrrer54g","","","null","","Agent B","scrambled","STIM_SET_5/498372.bmp_pp95_L2_V1_veridical_freeview_isoTrue_Hflip_fps144.mp4",""
"","","","call-function","334","601634","0.0-334.0","vrrer54g","","","","","","","",""
"1108.2700000000186","{""judgement"":1}","[0]","survey-likert","335","602743","0.0-335.0","vrrer54g","","","","","","","","0"
"1010.2049999999581","{""confidence"":2}","[0]","survey-likert","336","603755","0.0-336.0","vrrer54g","","","","","","","",""
"11328.695000000065","","","instructions","337","615084","0.0-337.0","vrrer54g","[{""page_index"":0,""viewing_time"":10788.155000000028},{""page_index"":1,""viewing_time"":369.84499999997206},{""page_index"":2,""viewing_time"":170.47500000009313}]","","","","","","",""
"646.8800000000047","","","instructions","338","615732","0.0-338.0","vrrer54g","[{""page_index"":0,""viewing_time"":116.1699999999255},{""page_index"":1,""viewing_time"":127.86499999999069},{""page_index"":2,""viewing_time"":402.7400000001071}]","","","","","","",""
"","","","call-function","339","615732","0.0-339.0","vrrer54g","","","","","","","",""
"null","","","html-keyboard-response","340","617238","0.0-340.0","vrrer54g","","<span style=""color:Black; font-size:50px;"">Agent A","null","","","","",""
"null","","","video-keyboard-response","341","620299","0.0-341.0","vrrer54g","","","null","","Agent A","scrambled","STIM_SET_5/285932.bmp_pp64_L1_V1.0_veridical_freeview_isoTrue_Hflip_fps144.mp4",""
"null","","","html-keyboard-response","342","621806","0.0-342.0","vrrer54g","","<span style=""color:Black; font-size:50px;"">Agent B","null","","","","",""
"null","","","video-keyboard-response","343","624866","0.0-343.0","vrrer54g","","","null","","Agent B","veridical","STIM_SET_2_144/285932.bmp_pp64_L1_V1.0_veridical_freeview_isoTrue_fps144.mp4",""
"","","","call-function","344","624867","0.0-344.0","vrrer54g","","","","","","","",""
"1309.9300000000512","{""judgement"":1}","[0]","survey-likert","345","626178","0.0-345.0","vrrer54g","","","","","","","","1"
"916.9100000000326","{""confidence"":2}","[0]","survey-likert","346","627096","0.0-346.0","vrrer54g","","","","","","","",""
"","","","call-function","347","627096","0.0-347.0","vrrer54g","","","","","","","",""
"null","","","html-keyboard-response","348","628598","0.0-348.0","vrrer54g","","<span style=""color:Black; font-size:50px;"">Agent A","null","","","","",""
"null","","","video-keyboard-response","349","631669","0.0-349.0","vrrer54g","","","null","","Agent A","scrambled","STIM_SET_5/713788.bmp_pp52_L1_V1.0_veridical_freeview_isoTrue_Hflip_fps144.mp4",""
"null","","","html-keyboard-response","350","633172","0.0-350.0","vrrer54g","","<span style=""color:Black; font-size:50px;"">Agent B","null","","","","",""
"null","","","video-keyboard-response","351","636258","0.0-351.0","vrrer54g","","","null","","Agent B","veridical","STIM_SET_2_144/713788.bmp_pp52_L1_V1.0_veridical_freeview_isoTrue_fps144.mp4",""
"","","","call-function","352","636259","0.0-352.0","vrrer54g","","","","","","","",""
"1366.8549999999814","{""judgement"":1}","[0]","survey-likert","353","637626","0.0-353.0","vrrer54g","","","","","","","","1"
"1428.3250000000698","{""confidence"":3}","[0]","survey-likert","354","639056","0.0-354.0","vrrer54g","","","","","","","",""
"","","","call-function","355","639057","0.0-355.0","vrrer54g","","","","","","","",""
"null","","","html-keyboard-response","356","640559","0.0-356.0","vrrer54g","","<span style=""color:Black; font-size:50px;"">Agent A","null","","","","",""
"null","","","video-keyboard-response","357","643644","0.0-357.0","vrrer54g","","","null","","Agent A","scrambled","STIM_SET_5/1592305.bmp_pp65_L3_V1.0_veridical_freeview_isoTrue_Hflip_fps144.mp4",""
"null","","","html-keyboard-response","358","645146","0.0-358.0","vrrer54g","","<span style=""color:Black; font-size:50px;"">Agent B","null","","","","",""
"null","","","video-keyboard-response","359","648232","0.0-359.0","vrrer54g","","","null","","Agent B","veridical","STIM_SET_2_144/1592305.bmp_pp65_L3_V1.0_veridical_freeview_isoTrue_fps144.mp4",""
"","","","call-function","360","648232","0.0-360.0","vrrer54g","","","","","","","",""
"2104.2550000000047","{""judgement"":0}","[0]","survey-likert","361","650337","0.0-361.0","vrrer54g","","","","","","","","1"
"1592.920000000042","{""confidence"":2}","[0]","survey-likert","362","651932","0.0-362.0","vrrer54g","","","","","","","",""
"","","","call-function","363","651932","0.0-363.0","vrrer54g","","","","","","","",""
"null","","","html-keyboard-response","364","653432","0.0-364.0","vrrer54g","","<span style=""color:Black; font-size:50px;"">Agent A","null","","","","",""
"null","","","video-keyboard-response","365","656518","0.0-365.0","vrrer54g","","","null","","Agent A","scrambled","STIM_SET_5/1592747.bmp_pp53_L2_V1.0_veridical_freeview_isoTrue_Hflip_fps144.mp4",""
"null","","","html-keyboard-response","366","658020","0.0-366.0","vrrer54g","","<span style=""color:Black; font-size:50px;"">Agent B","null","","","","",""
"null","","","video-keyboard-response","367","661108","0.0-367.0","vrrer54g","","","null","","Agent B","veridical","STIM_SET_2_144/1592747.bmp_pp53_L2_V1.0_veridical_freeview_isoTrue_fps144.mp4",""
"","","","call-function","368","661109","0.0-368.0","vrrer54g","","","","","","","",""
"3716.159999999916","{""judgement"":0}","[0]","survey-likert","369","664827","0.0-369.0","vrrer54g","","","","","","","","1"
"2751.1500000000233","{""confidence"":1}","[0]","survey-likert","370","667581","0.0-370.0","vrrer54g","","","","","","","",""
"","","","call-function","371","667583","0.0-371.0","vrrer54g","","","","","","","",""
"null","","","html-keyboard-response","372","669089","0.0-372.0","vrrer54g","","<span style=""color:Black; font-size:50px;"">Agent A","null","","","","",""
"null","","","video-keyboard-response","373","672158","0.0-373.0","vrrer54g","","","null","","Agent A","scrambled","STIM_SET_5/1592025.bmp_pp68_L1_V1.0_veridical_freeview_isoTrue_Hflip_fps144.mp4",""
"null","","","html-keyboard-response","374","673663","0.0-374.0","vrrer54g","","<span style=""color:Black; font-size:50px;"">Agent B","null","","","","",""
"null","","","video-keyboard-response","375","676732","0.0-375.0","vrrer54g","","","null","","Agent B","veridical","STIM_SET_2_144/1592025.bmp_pp68_L1_V1.0_veridical_freeview_isoTrue_fps144.mp4",""
"","","","call-function","376","676733","0.0-376.0","vrrer54g","","","","","","","",""
"3558.5650000000605","{""judgement"":0}","[0]","survey-likert","377","680293","0.0-377.0","vrrer54g","","","","","","","","1"
"1818.3349999999627","{""confidence"":1}","[0]","survey-likert","378","682113","0.0-378.0","vrrer54g","","","","","","","",""
"","","","call-function","379","682114","0.0-379.0","vrrer54g","","","","","","","",""
"null","","","html-keyboard-response","380","683616","0.0-380.0","vrrer54g","","<span style=""color:Black; font-size:50px;"">Agent A","null","","","","",""
"null","","","video-keyboard-response","381","686678","0.0-381.0","vrrer54g","","","null","","Agent A","scrambled","STIM_SET_5/498326.bmp_pp57_L1_V1.0_veridical_freeview_isoTrue_Hflip_fps144.mp4",""
"null","","","html-keyboard-response","382","688180","0.0-382.0","vrrer54g","","<span style=""color:Black; font-size:50px;"">Agent B","null","","","","",""
"null","","","video-keyboard-response","383","691242","0.0-383.0","vrrer54g","","","null","","Agent B","veridical","STIM_SET_2_144/498326.bmp_pp57_L1_V1.0_veridical_freeview_isoTrue_fps144.mp4",""
"","","","call-function","384","691243","0.0-384.0","vrrer54g","","","","","","","",""
"1909.844999999972","{""judgement"":1}","[0]","survey-likert","385","693154","0.0-385.0","vrrer54g","","","","","","","","1"
"910.6899999999441","{""confidence"":2}","[0]","survey-likert","386","694066","0.0-386.0","vrrer54g","","","","","","","",""
"","","","call-function","387","694067","0.0-387.0","vrrer54g","","","","","","","",""
"null","","","html-keyboard-response","388","695568","0.0-388.0","vrrer54g","","<span style=""color:Black; font-size:50px;"">Agent A","null","","","","",""
"null","","","video-keyboard-response","389","698652","0.0-389.0","vrrer54g","","","null","","Agent A","scrambled","STIM_SET_5/1592921.bmp_pp69_L3_V1.0_veridical_freeview_isoTrue_Hflip_fps144.mp4",""
"null","","","html-keyboard-response","390","700157","0.0-390.0","vrrer54g","","<span style=""color:Black; font-size:50px;"">Agent B","null","","","","",""
"null","","","video-keyboard-response","391","703240","0.0-391.0","vrrer54g","","","null","","Agent B","veridical","STIM_SET_2_144/1592921.bmp_pp69_L3_V1.0_veridical_freeview_isoTrue_fps144.mp4",""
"","","","call-function","392","703240","0.0-392.0","vrrer54g","","","","","","","",""
"2748.719999999972","{""judgement"":0}","[0]","survey-likert","393","705990","0.0-393.0","vrrer54g","","","","","","","","1"
"1076.484999999986","{""confidence"":1}","[0]","survey-likert","394","707068","0.0-394.0","vrrer54g","","","","","","","",""
"","","","call-function","395","707069","0.0-395.0","vrrer54g","","","","","","","",""
"null","","","html-keyboard-response","396","708573","0.0-396.0","vrrer54g","","<span style=""color:Black; font-size:50px;"">Agent A","null","","","","",""
"null","","","video-keyboard-response","397","711655","0.0-397.0","vrrer54g","","","null","","Agent A","scrambled","STIM_SET_5/150463.bmp_pp55_L3_V1.0_veridical_freeview_isoTrue_Hflip_fps144.mp4",""
"null","","","html-keyboard-response","398","713160","0.0-398.0","vrrer54g","","<span style=""color:Black; font-size:50px;"">Agent B","null","","","","",""
"null","","","video-keyboard-response","399","716240","0.0-399.0","vrrer54g","","","null","","Agent B","veridical","STIM_SET_2_144/150463.bmp_pp55_L3_V1.0_veridical_freeview_isoTrue_fps144.mp4",""
"","","","call-function","400","716241","0.0-400.0","vrrer54g","","","","","","","",""
"1358.9100000000326","{""judgement"":1}","[0]","survey-likert","401","717601","0.0-401.0","vrrer54g","","","","","","","","1"
"1433.780000000028","{""confidence"":2}","[0]","survey-likert","402","719036","0.0-402.0","vrrer54g","","","","","","","",""
"","","","call-function","403","719036","0.0-403.0","vrrer54g","","","","","","","",""
"null","","","html-keyboard-response","404","720538","0.0-404.0","vrrer54g","","<span style=""color:Black; font-size:50px;"">Agent A","null","","","","",""
"null","","","video-keyboard-response","405","723631","0.0-405.0","vrrer54g","","","null","","Agent A","scrambled","STIM_SET_5/1592857.bmp_pp52_L1_V1_veridical_freeview_isoTrue_Hflip_fps144.mp4",""
"null","","","html-keyboard-response","406","725134","0.0-406.0","vrrer54g","","<span style=""color:Black; font-size:50px;"">Agent B","null","","","","",""
"null","","","video-keyboard-response","407","728209","0.0-407.0","vrrer54g","","","null","","Agent B","veridical","STIM_SET_2_144/1592857.bmp_pp52_L1_V1_veridical_freeview_isoTrue_fps144.mp4",""
"","","","call-function","408","728210","0.0-408.0","vrrer54g","","","","","","","",""
"3037.375","{""judgement"":1}","[0]","survey-likert","409","731248","0.0-409.0","vrrer54g","","","","","","","","1"
"1053.125","{""confidence"":2}","[0]","survey-likert","410","732303","0.0-410.0","vrrer54g","","","","","","","",""
"","","","call-function","411","732304","0.0-411.0","vrrer54g","","","","","","","",""
"null","","","html-keyboard-response","412","733808","0.0-412.0","vrrer54g","","<span style=""color:Black; font-size:50px;"">Agent A","null","","","","",""
"null","","","video-keyboard-response","413","736891","0.0-413.0","vrrer54g","","","null","","Agent A","veridical","STIM_SET_2_144/1592038.bmp_pp79_L2_V1.0_veridical_freeview_isoTrue_fps144.mp4",""
"null","","","html-keyboard-response","414","738396","0.0-414.0","vrrer54g","","<span style=""color:Black; font-size:50px;"">Agent B","null","","","","",""
"null","","","video-keyboard-response","415","741472","0.0-415.0","vrrer54g","","","null","","Agent B","scrambled","STIM_SET_5/1592038.bmp_pp79_L2_V1.0_veridical_freeview_isoTrue_Hflip_fps144.mp4",""
"","","","call-function","416","741473","0.0-416.0","vrrer54g","","","","","","","",""
"2127.4550000000745","{""judgement"":1}","[0]","survey-likert","417","743601","0.0-417.0","vrrer54g","","","","","","","","0"
"1739.1300000000047","{""confidence"":2}","[0]","survey-likert","418","745342","0.0-418.0","vrrer54g","","","","","","","",""
"17130.780000000028","","","instructions","419","762473","0.0-419.0","vrrer54g","[{""page_index"":0,""viewing_time"":16393.275000000023},{""page_index"":1,""viewing_time"":570.0050000000047},{""page_index"":2,""viewing_time"":167.28000000002794}]","","","","","","",""
"855.0050000000047","","","instructions","420","763329","0.0-420.0","vrrer54g","[{""page_index"":0,""viewing_time"":194.27499999990687},{""page_index"":1,""viewing_time"":274.62000000011176},{""page_index"":2,""viewing_time"":386.00499999988824}]","","","","","","",""
"","","","call-function","421","763330","0.0-421.0","vrrer54g","","","","","","","",""
"null","","","html-keyboard-response","422","764834","0.0-422.0","vrrer54g","","<span style=""color:Black; font-size:50px;"">Agent A","null","","","","",""
"null","","","video-keyboard-response","423","767902","0.0-423.0","vrrer54g","","","null","","Agent A","veridical","STIM_SET_2_144/498396.bmp_pp99_L2_V1.0_veridical_freeview_isoTrue_fps144.mp4",""
"null","","","html-keyboard-response","424","769403","0.0-424.0","vrrer54g","","<span style=""color:Black; font-size:50px;"">Agent B","null","","","","",""
"null","","","video-keyboard-response","425","772473","0.0-425.0","vrrer54g","","","null","","Agent B","scrambled","STIM_SET_5/498396.bmp_pp99_L2_V1.0_veridical_freeview_isoTrue_Hflip_fps144.mp4",""
"","","","call-function","426","772474","0.0-426.0","vrrer54g","","","","","","","",""
"2788.094999999972","{""judgement"":0}","[0]","survey-likert","427","775263","0.0-427.0","vrrer54g","","","","","","","","0"
"1096.7699999999022","{""confidence"":0}","[0]","survey-likert","428","776361","0.0-428.0","vrrer54g","","","","","","","",""
"","","","call-function","429","776362","0.0-429.0","vrrer54g","","","","","","","",""
"null","","","html-keyboard-response","430","777866","0.0-430.0","vrrer54g","","<span style=""color:Black; font-size:50px;"">Agent A","null","","","","",""
"null","","","video-keyboard-response","431","780966","0.0-431.0","vrrer54g","","","null","","Agent A","scrambled","STIM_SET_5/498025.bmp_pp81_L1_V1.0_veridical_freeview_isoTrue_Hflip_fps144.mp4",""
"null","","","html-keyboard-response","432","782469","0.0-432.0","vrrer54g","","<span style=""color:Black; font-size:50px;"">Agent B","null","","","","",""
"null","","","video-keyboard-response","433","785565","0.0-433.0","vrrer54g","","","null","","Agent B","veridical","STIM_SET_2_144/498025.bmp_pp81_L1_V1.0_veridical_freeview_isoTrue_fps144.mp4",""
"","","","call-function","434","785567","0.0-434.0","vrrer54g","","","","","","","",""
"1258.9650000000838","{""judgement"":0}","[0]","survey-likert","435","786827","0.0-435.0","vrrer54g","","","","","","","","1"
"1408.4599999999627","{""confidence"":1}","[0]","survey-likert","436","788237","0.0-436.0","vrrer54g","","","","","","","",""
"","","","call-function","437","788238","0.0-437.0","vrrer54g","","","","","","","",""
"null","","","html-keyboard-response","438","789741","0.0-438.0","vrrer54g","","<span style=""color:Black; font-size:50px;"">Agent A","null","","","","",""
"null","","","video-keyboard-response","439","792805","0.0-439.0","vrrer54g","","","null","","Agent A","scrambled","STIM_SET_5/1592314.bmp_pp100_L3_V1.0_veridical_freeview_isoTrue_Hflip_fps144.mp4",""
"null","","","html-keyboard-response","440","794309","0.0-440.0","vrrer54g","","<span style=""color:Black; font-size:50px;"">Agent B","null","","","","",""
"null","","","video-keyboard-response","441","797374","0.0-441.0","vrrer54g","","","null","","Agent B","veridical","STIM_SET_2_144/1592314.bmp_pp100_L3_V1.0_veridical_freeview_isoTrue_fps144.mp4",""
"","","","call-function","442","797375","0.0-442.0","vrrer54g","","","","","","","",""
"2648.6399999998976","{""judgement"":0}","[0]","survey-likert","443","800024","0.0-443.0","vrrer54g","","","","","","","","1"
"1336.3950000000186","{""confidence"":2}","[0]","survey-likert","444","801362","0.0-444.0","vrrer54g","","","","","","","",""
"","","","call-function","445","801363","0.0-445.0","vrrer54g","","","","","","","",""
"null","","","html-keyboard-response","446","802866","0.0-446.0","vrrer54g","","<span style=""color:Black; font-size:50px;"">Agent A","null","","","","",""
"null","","","video-keyboard-response","447","805928","0.0-447.0","vrrer54g","","","null","","Agent A","scrambled","STIM_SET_5/1592951.bmp_pp80_L3_V1.0_veridical_freeview_isoTrue_Hflip_fps144.mp4",""
"null","","","html-keyboard-response","448","807436","0.0-448.0","vrrer54g","","<span style=""color:Black; font-size:50px;"">Agent B","null","","","","",""
"null","","","video-keyboard-response","449","810496","0.0-449.0","vrrer54g","","","null","","Agent B","veridical","STIM_SET_2_144/1592951.bmp_pp80_L3_V1.0_veridical_freeview_isoTrue_fps144.mp4",""
"","","","call-function","450","810497","0.0-450.0","vrrer54g","","","","","","","",""
"5395.67499999993","{""judgement"":0}","[0]","survey-likert","451","815894","0.0-451.0","vrrer54g","","","","","","","","1"
"5286.609999999986","{""confidence"":1}","[0]","survey-likert","452","821182","0.0-452.0","vrrer54g","","","","","","","",""
"","","","call-function","453","821183","0.0-453.0","vrrer54g","","","","","","","",""
"null","","","html-keyboard-response","454","822684","0.0-454.0","vrrer54g","","<span style=""color:Black; font-size:50px;"">Agent A","null","","","","",""
"null","","","video-keyboard-response","455","825766","0.0-455.0","vrrer54g","","","null","","Agent A","scrambled","STIM_SET_5/1159956.bmp_pp59_L3_V1.0_veridical_freeview_isoTrue_Hflip_fps144.mp4",""
"null","","","html-keyboard-response","456","827269","0.0-456.0","vrrer54g","","<span style=""color:Black; font-size:50px;"">Agent B","null","","","","",""
"null","","","video-keyboard-response","457","830351","0.0-457.0","vrrer54g","","","null","","Agent B","veridical","STIM_SET_2_144/1159956.bmp_pp59_L3_V1.0_veridical_freeview_isoTrue_fps144.mp4",""
"","","","call-function","458","830351","0.0-458.0","vrrer54g","","","","","","","",""
"1489.015000000014","{""judgement"":1}","[0]","survey-likert","459","831841","0.0-459.0","vrrer54g","","","","","","","","1"
"1241.5400000000373","{""confidence"":1}","[0]","survey-likert","460","833084","0.0-460.0","vrrer54g","","","","","","","",""
"","","","call-function","461","833085","0.0-461.0","vrrer54g","","","","","","","",""
"null","","","html-keyboard-response","462","834587","0.0-462.0","vrrer54g","","<span style=""color:Black; font-size:50px;"">Agent A","null","","","","",""
"null","","","video-keyboard-response","463","837662","0.0-463.0","vrrer54g","","","null","","Agent A","scrambled","STIM_SET_5/107955.bmp_pp90_L2_V1.0_veridical_freeview_isoTrue_Hflip_fps144.mp4",""
"null","","","html-keyboard-response","464","839164","0.0-464.0","vrrer54g","","<span style=""color:Black; font-size:50px;"">Agent B","null","","","","",""
"null","","","video-keyboard-response","465","842237","0.0-465.0","vrrer54g","","","null","","Agent B","veridical","STIM_SET_2_144/107955.bmp_pp90_L2_V1.0_veridical_freeview_isoTrue_fps144.mp4",""
"","","","call-function","466","842238","0.0-466.0","vrrer54g","","","","","","","",""
"2187.329999999958","{""judgement"":1}","[0]","survey-likert","467","844426","0.0-467.0","vrrer54g","","","","","","","","1"
"1073.9450000000652","{""confidence"":1}","[0]","survey-likert","468","845501","0.0-468.0","vrrer54g","","","","","","","",""
"","","","call-function","469","845502","0.0-469.0","vrrer54g","","","","","","","",""
"null","","","html-keyboard-response","470","847005","0.0-470.0","vrrer54g","","<span style=""color:Black; font-size:50px;"">Agent A","null","","","","",""
"null","","","video-keyboard-response","471","850093","0.0-471.0","vrrer54g","","","null","","Agent A","scrambled","STIM_SET_5/61513.bmp_pp75_L1_V1.0_veridical_freeview_isoTrue_Hflip_fps144.mp4",""
"null","","","html-keyboard-response","472","851601","0.0-472.0","vrrer54g","","<span style=""color:Black; font-size:50px;"">Agent B","null","","","","",""
"null","","","video-keyboard-response","473","854689","0.0-473.0","vrrer54g","","","null","","Agent B","veridical","STIM_SET_2_144/61513.bmp_pp75_L1_V1.0_veridical_freeview_isoTrue_fps144.mp4",""
"","","","call-function","474","854690","0.0-474.0","vrrer54g","","","","","","","",""
"1943.329999999958","{""judgement"":1}","[0]","survey-likert","475","856634","0.0-475.0","vrrer54g","","","","","","","","1"
"971.9100000000326","{""confidence"":0}","[0]","survey-likert","476","857607","0.0-476.0","vrrer54g","","","","","","","",""
"","","","call-function","477","857609","0.0-477.0","vrrer54g","","","","","","","",""
"null","","","html-keyboard-response","478","859110","0.0-478.0","vrrer54g","","<span style=""color:Black; font-size:50px;"">Agent A","null","","","","",""
"null","","","video-keyboard-response","479","862183","0.0-479.0","vrrer54g","","","null","","Agent A","veridical","STIM_SET_2_144/1592568.bmp_pp71_L1_V1.0_veridical_freeview_isoTrue_fps144.mp4",""
"null","","","html-keyboard-response","480","863685","0.0-480.0","vrrer54g","","<span style=""color:Black; font-size:50px;"">Agent B","null","","","","",""
"null","","","video-keyboard-response","481","866764","0.0-481.0","vrrer54g","","","null","","Agent B","scrambled","STIM_SET_5/1592568.bmp_pp71_L1_V1.0_veridical_freeview_isoTrue_Hflip_fps144.mp4",""
"","","","call-function","482","866765","0.0-482.0","vrrer54g","","","","","","","",""
"2431.094999999972","{""judgement"":1}","[0]","survey-likert","483","869197","0.0-483.0","vrrer54g","","","","","","","","0"
"983.1550000000279","{""confidence"":1}","[0]","survey-likert","484","870181","0.0-484.0","vrrer54g","","","","","","","",""
"","","","call-function","485","870182","0.0-485.0","vrrer54g","","","","","","","",""
"null","","","html-keyboard-response","486","871683","0.0-486.0","vrrer54g","","<span style=""color:Black; font-size:50px;"">Agent A","null","","","","",""
"null","","","video-keyboard-response","487","874746","0.0-487.0","vrrer54g","","","null","","Agent A","veridical","STIM_SET_2_144/285715.bmp_pp67_L2_V1.0_veridical_freeview_isoTrue_fps144.mp4",""
"null","","","html-keyboard-response","488","876250","0.0-488.0","vrrer54g","","<span style=""color:Black; font-size:50px;"">Agent B","null","","","","",""
"null","","","video-keyboard-response","489","879313","0.0-489.0","vrrer54g","","","null","","Agent B","scrambled","STIM_SET_5/285715.bmp_pp67_L2_V1.0_veridical_freeview_isoTrue_Hflip_fps144.mp4",""
"","","","call-function","490","879313","0.0-490.0","vrrer54g","","","","","","","",""
"1199.454999999958","{""judgement"":0}","[0]","survey-likert","491","880514","0.0-491.0","vrrer54g","","","","","","","","0"
"2054.579999999958","{""confidence"":3}","[0]","survey-likert","492","882570","0.0-492.0","vrrer54g","","","","","","","",""
"","","","call-function","493","882571","0.0-493.0","vrrer54g","","","","","","","",""
"null","","","html-keyboard-response","494","884072","0.0-494.0","vrrer54g","","<span style=""color:Black; font-size:50px;"">Agent A","null","","","","",""
"null","","","video-keyboard-response","495","887157","0.0-495.0","vrrer54g","","","null","","Agent A","scrambled","STIM_SET_5/713274.bmp_pp73_L3_V1.0_veridical_freeview_isoTrue_Hflip_fps144.mp4",""
"null","","","html-keyboard-response","496","888661","0.0-496.0","vrrer54g","","<span style=""color:Black; font-size:50px;"">Agent B","null","","","","",""
"null","","","video-keyboard-response","497","891745","0.0-497.0","vrrer54g","","","null","","Agent B","veridical","STIM_SET_2_144/713274.bmp_pp73_L3_V1.0_veridical_freeview_isoTrue_fps144.mp4",""
"","","","call-function","498","891746","0.0-498.0","vrrer54g","","","","","","","",""
"1594.5749999999534","{""judgement"":1}","[0]","survey-likert","499","893342","0.0-499.0","vrrer54g","","","","","","","","1"
"4413.20000000007","{""confidence"":3}","[0]","survey-likert","500","897756","0.0-500.0","vrrer54g","","","","","","","",""
"1385.125","","","instructions","501","899142","0.0-501.0","vrrer54g","[{""page_index"":0,""viewing_time"":826.5999999999767},{""page_index"":1,""viewing_time"":416.3199999999488},{""page_index"":2,""viewing_time"":141.98500000010245}]","","","","","","",""
"660.7750000000233","","","instructions","502","899805","0.0-502.0","vrrer54g","[{""page_index"":0,""viewing_time"":142.09499999997206},{""page_index"":1,""viewing_time"":233.97000000008848},{""page_index"":2,""viewing_time"":284.6049999999814}]","","","","","","",""
"","","","call-function","503","899806","0.0-503.0","vrrer54g","","","","","","","",""
"null","","","html-keyboard-response","504","901312","0.0-504.0","vrrer54g","","<span style=""color:Black; font-size:50px;"">Agent A","null","","","","",""
"null","","","video-keyboard-response","505","904382","0.0-505.0","vrrer54g","","","null","","Agent A","veridical","STIM_SET_2_144/1160189.bmp_pp64_L1_V1.0_veridical_freeview_isoTrue_fps144.mp4",""
"null","","","html-keyboard-response","506","905887","0.0-506.0","vrrer54g","","<span style=""color:Black; font-size:50px;"">Agent B","null","","","","",""
"null","","","video-keyboard-response","507","908957","0.0-507.0","vrrer54g","","","null","","Agent B","scrambled","STIM_SET_5/1160189.bmp_pp64_L1_V1.0_veridical_freeview_isoTrue_Hflip_fps144.mp4",""
"","","","call-function","508","908958","0.0-508.0","vrrer54g","","","","","","","",""
"1521.2099999999627","{""judgement"":1}","[0]","survey-likert","509","910481","0.0-509.0","vrrer54g","","","","","","","","0"
"1759.4150000000373","{""confidence"":2}","[0]","survey-likert","510","912242","0.0-510.0","vrrer54g","","","","","","","",""
"","","","call-function","511","912242","0.0-511.0","vrrer54g","","","","","","","",""
"null","","","html-keyboard-response","512","913743","0.0-512.0","vrrer54g","","<span style=""color:Black; font-size:50px;"">Agent A","null","","","","",""
"null","","","video-keyboard-response","513","916815","0.0-513.0","vrrer54g","","","null","","Agent A","scrambled","STIM_SET_5/150277.bmp_pp65_L3_V1.0_veridical_freeview_isoTrue_Hflip_fps144.mp4",""
"null","","","html-keyboard-response","514","918320","0.0-514.0","vrrer54g","","<span style=""color:Black; font-size:50px;"">Agent B","null","","","","",""
"null","","","video-keyboard-response","515","921388","0.0-515.0","vrrer54g","","","null","","Agent B","veridical","STIM_SET_2_144/150277.bmp_pp65_L3_V1.0_veridical_freeview_isoTrue_fps144.mp4",""
"","","","call-function","516","921389","0.0-516.0","vrrer54g","","","","","","","",""
"1149.4550000000745","{""judgement"":1}","[0]","survey-likert","517","922539","0.0-517.0","vrrer54g","","","","","","","","1"
"767.734999999986","{""confidence"":2}","[0]","survey-likert","518","923309","0.0-518.0","vrrer54g","","","","","","","",""
"","","","call-function","519","923309","0.0-519.0","vrrer54g","","","","","","","",""
"null","","","html-keyboard-response","520","924812","0.0-520.0","vrrer54g","","<span style=""color:Black; font-size:50px;"">Agent A","null","","","","",""
"null","","","video-keyboard-response","521","927875","0.0-521.0","vrrer54g","","","null","","Agent A","veridical","STIM_SET_2_144/1592017.bmp_pp154_L1_V1.0_veridical_freeview_isoTrue_fps144.mp4",""
"null","","","html-keyboard-response","522","929380","0.0-522.0","vrrer54g","","<span style=""color:Black; font-size:50px;"">Agent B","null","","","","",""
"null","","","video-keyboard-response","523","932458","0.0-523.0","vrrer54g","","","null","","Agent B","scrambled","STIM_SET_5/1592017.bmp_pp154_L1_V1.0_veridical_freeview_isoTrue_Hflip_fps144.mp4",""
"","","","call-function","524","932459","0.0-524.0","vrrer54g","","","","","","","",""
"2058.6149999999907","{""judgement"":1}","[0]","survey-likert","525","934518","0.0-525.0","vrrer54g","","","","","","","","0"
"920.8149999999441","{""confidence"":1}","[0]","survey-likert","526","935441","0.0-526.0","vrrer54g","","","","","","","",""
"","","","call-function","527","935441","0.0-527.0","vrrer54g","","","","","","","",""
"null","","","html-keyboard-response","528","936943","0.0-528.0","vrrer54g","","<span style=""color:Black; font-size:50px;"">Agent A","null","","","","",""
"null","","","video-keyboard-response","529","940033","0.0-529.0","vrrer54g","","","null","","Agent A","scrambled","STIM_SET_5/713633.bmp_pp58_L1_V1.0_veridical_freeview_isoTrue_Hflip_fps144.mp4",""
"null","","","html-keyboard-response","530","941539","0.0-530.0","vrrer54g","","<span style=""color:Black; font-size:50px;"">Agent B","null","","","","",""
"null","","","video-keyboard-response","531","944627","0.0-531.0","vrrer54g","","","null","","Agent B","veridical","STIM_SET_2_144/713633.bmp_pp58_L1_V1.0_veridical_freeview_isoTrue_fps144.mp4",""
"","","","call-function","532","944627","0.0-532.0","vrrer54g","","","","","","","",""
"1095.0699999999488","{""judgement"":0}","[0]","survey-likert","533","945723","0.0-533.0","vrrer54g","","","","","","","","1"
"1361.9899999999907","{""confidence"":2}","[0]","survey-likert","534","947086","0.0-534.0","vrrer54g","","","","","","","",""
"","","","call-function","535","947087","0.0-535.0","vrrer54g","","","","","","","",""
"null","","","html-keyboard-response","536","948589","0.0-536.0","vrrer54g","","<span style=""color:Black; font-size:50px;"">Agent A","null","","","","",""
"null","","","video-keyboard-response","537","951673","0.0-537.0","vrrer54g","","","null","","Agent A","scrambled","STIM_SET_5/1159973.bmp_pp98_L1_V1.0_veridical_freeview_isoTrue_Hflip_fps144.mp4",""
"null","","","html-keyboard-response","538","953179","0.0-538.0","vrrer54g","","<span style=""color:Black; font-size:50px;"">Agent B","null","","","","",""
"null","","","video-keyboard-response","539","956265","0.0-539.0","vrrer54g","","","null","","Agent B","veridical","STIM_SET_2_144/1159973.bmp_pp98_L1_V1.0_veridical_freeview_isoTrue_fps144.mp4",""
"","","","call-function","540","956266","0.0-540.0","vrrer54g","","","","","","","",""
"1607.844999999972","{""judgement"":0}","[0]","survey-likert","541","957874","0.0-541.0","vrrer54g","","","","","","","","1"
"1169.5449999999255","{""confidence"":2}","[0]","survey-likert","542","959045","0.0-542.0","vrrer54g","","","","","","","",""
"","","","call-function","543","959046","0.0-543.0","vrrer54g","","","","","","","",""
"null","","","html-keyboard-response","544","960551","0.0-544.0","vrrer54g","","<span style=""color:Black; font-size:50px;"">Agent A","null","","","","",""
"null","","","video-keyboard-response","545","963636","0.0-545.0","vrrer54g","","","null","","Agent A","veridical","STIM_SET_2_144/713920.bmp_pp76_L1_V1.0_veridical_freeview_isoTrue_fps144.mp4",""
"null","","","html-keyboard-response","546","965139","0.0-546.0","vrrer54g","","<span style=""color:Black; font-size:50px;"">Agent B","null","","","","",""
"null","","","video-keyboard-response","547","968220","0.0-547.0","vrrer54g","","","null","","Agent B","scrambled","STIM_SET_5/713920.bmp_pp76_L1_V1.0_veridical_freeview_isoTrue_Hflip_fps144.mp4",""
"","","","call-function","548","968221","0.0-548.0","vrrer54g","","","","","","","",""
"1241.1799999999348","{""judgement"":1}","[0]","survey-likert","549","969464","0.0-549.0","vrrer54g","","","","","","","","0"
"1271.9099999999162","{""confidence"":3}","[0]","survey-likert","550","970737","0.0-550.0","vrrer54g","","","","","","","",""
"","","","call-function","551","970738","0.0-551.0","vrrer54g","","","","","","","",""
"null","","","html-keyboard-response","552","972243","0.0-552.0","vrrer54g","","<span style=""color:Black; font-size:50px;"">Agent A","null","","","","",""
"null","","","video-keyboard-response","553","975302","0.0-553.0","vrrer54g","","","null","","Agent A","veridical","STIM_SET_2_144/713689.bmp_pp153_L3_V1.0_veridical_freeview_isoTrue_fps144.mp4",""
"null","","","html-keyboard-response","554","976805","0.0-554.0","vrrer54g","","<span style=""color:Black; font-size:50px;"">Agent B","null","","","","",""
"null","","","video-keyboard-response","555","979872","0.0-555.0","vrrer54g","","","null","","Agent B","scrambled","STIM_SET_5/713689.bmp_pp153_L3_V1.0_veridical_freeview_isoTrue_Hflip_fps144.mp4",""
"","","","call-function","556","979872","0.0-556.0","vrrer54g","","","","","","","",""
"1648.0349999999162","{""judgement"":1}","[0]","survey-likert","557","981522","0.0-557.0","vrrer54g","","","","","","","","0"
"2201.3800000000047","{""confidence"":1}","[0]","survey-likert","558","983724","0.0-558.0","vrrer54g","","","","","","","",""
"","","","call-function","559","983725","0.0-559.0","vrrer54g","","","","","","","",""
"null","","","html-keyboard-response","560","985231","0.0-560.0","vrrer54g","","<span style=""color:Black; font-size:50px;"">Agent A","null","","","","",""
"null","","","video-keyboard-response","561","988309","0.0-561.0","vrrer54g","","","null","","Agent A","scrambled","STIM_SET_5/713858.bmp_pp57_L1_V1.0_veridical_freeview_isoTrue_Hflip_fps144.mp4",""
"null","","","html-keyboard-response","562","989815","0.0-562.0","vrrer54g","","<span style=""color:Black; font-size:50px;"">Agent B","null","","","","",""
"null","","","video-keyboard-response","563","992891","0.0-563.0","vrrer54g","","","null","","Agent B","veridical","STIM_SET_2_144/713858.bmp_pp57_L1_V1.0_veridical_freeview_isoTrue_fps144.mp4",""
"","","","call-function","564","992892","0.0-564.0","vrrer54g","","","","","","","",""
"2128.225000000093","{""judgement"":1}","[0]","survey-likert","565","995021","0.0-565.0","vrrer54g","","","","","","","","1"
"1021.8250000000698","{""confidence"":1}","[0]","survey-likert","566","996044","0.0-566.0","vrrer54g","","","","","","","",""
"","","","call-function","567","996045","0.0-567.0","vrrer54g","","","","","","","",""
"null","","","html-keyboard-response","568","997550","0.0-568.0","vrrer54g","","<span style=""color:Black; font-size:50px;"">Agent A","null","","","","",""
"null","","","video-keyboard-response","569","1000626","0.0-569.0","vrrer54g","","","null","","Agent A","veridical","STIM_SET_2_144/1591920.bmp_pp97_L3_V1_veridical_freeview_isoTrue_fps144.mp4",""
"null","","","html-keyboard-response","570","1002129","0.0-570.0","vrrer54g","","<span style=""color:Black; font-size:50px;"">Agent B","null","","","","",""
"null","","","video-keyboard-response","571","1005218","0.0-571.0","vrrer54g","","","null","","Agent B","scrambled","STIM_SET_5/1591920.bmp_pp97_L3_V1_veridical_freeview_isoTrue_Hflip_fps144.mp4",""
"","","","call-function","572","1005219","0.0-572.0","vrrer54g","","","","","","","",""
"2393.0950000000885","{""judgement"":0}","[0]","survey-likert","573","1007613","0.0-573.0","vrrer54g","","","","","","","","0"
"960.7150000000838","{""confidence"":1}","[0]","survey-likert","574","1008575","0.0-574.0","vrrer54g","","","","","","","",""
"","","","call-function","575","1008576","0.0-575.0","vrrer54g","","","","","","","",""
"null","","","html-keyboard-response","576","1010079","0.0-576.0","vrrer54g","","<span style=""color:Black; font-size:50px;"">Agent A","null","","","","",""
"null","","","video-keyboard-response","577","1013139","0.0-577.0","vrrer54g","","","null","","Agent A","scrambled","STIM_SET_5/1592047.bmp_pp51_L1_V1.0_veridical_freeview_isoTrue_Hflip_fps144.mp4",""
"null","","","html-keyboard-response","578","1014646","0.0-578.0","vrrer54g","","<span style=""color:Black; font-size:50px;"">Agent B","null","","","","",""
"null","","","video-keyboard-response","579","1017709","0.0-579.0","vrrer54g","","","null","","Agent B","veridical","STIM_SET_2_144/1592047.bmp_pp51_L1_V1.0_veridical_freeview_isoTrue_fps144.mp4",""
"","","","call-function","580","1017710","0.0-580.0","vrrer54g","","","","","","","",""
"1184.530000000028","{""judgement"":1}","[0]","survey-likert","581","1018896","0.0-581.0","vrrer54g","","","","","","","","1"
"1609.6350000000093","{""confidence"":2}","[0]","survey-likert","582","1020507","0.0-582.0","vrrer54g","","","","","","","",""
"1358.5699999999488","","","instructions","583","1021866","0.0-583.0","vrrer54g","[{""page_index"":0,""viewing_time"":1358.4250000000466}]","","","","","","",""
"7579.140000000014","","","instructions","584","1029446","0.0-584.0","vrrer54g","[{""page_index"":0,""viewing_time"":7579.025000000023}]","","","","","","",""
"18570.31999999995","{""post-1"":2}","[0]","survey-likert","585","1048018","0.0-585.0","vrrer54g","","","","","","","",""
"4319.5650000000605","{""post-1"":1}","[0]","survey-likert","586","1052339","0.0-586.0","vrrer54g","","","","","","","",""
"4244.409999999916","{""post-2"":2}","[0]","survey-likert","587","1056584","0.0-587.0","vrrer54g","","","","","","","",""
"1827.9550000000745","{""post-2"":1}","[0]","survey-likert","588","1058414","0.0-588.0","vrrer54g","","","","","","","",""
"6935.995000000112","{""post-3"":2}","[0]","survey-likert","589","1065351","0.0-589.0","vrrer54g","","","","","","","",""
"1669.3350000001956","{""post-3"":1}","[0]","survey-likert","590","1067022","0.0-590.0","vrrer54g","","","","","","","",""
"8206.01000000001","{""post-4"":2}","[0]","survey-likert","591","1075229","0.0-591.0","vrrer54g","","","","","","","",""
"3875.4749999998603","{""post-4"":1}","[0]","survey-likert","592","1079106","0.0-592.0","vrrer54g","","","","","","","",""
"5400.014999999898","{""post-5"":2}","[0]","survey-likert","593","1084507","0.0-593.0","vrrer54g","","","","","","","",""
"1882.4150000000373","{""post-5"":2}","[0]","survey-likert","594","1086392","0.0-594.0","vrrer54g","","","","","","","",""
"25212.975000000093","{""Q0"":""This one seemed more difficult to discern (between human-like vs. fake attention).""}","","survey-text","595","1111612","0.0-595.0","vrrer54g","","","","","","","",""
"69209.7649999999","{""Q0"":""The easiest ones were when the eye movement was way too scattered for my eyes to meet all of the hotspots - ten, I assumed it would be fake.  However, in this second part, I felt my strategy for following the hotspots with my own eyes wasn't that useful.""}","","survey-text","596","1180825","0.0-596.0","vrrer54g","","","","","","","",""
"45445.424999999814","{""Q0"":""It was hard to tell between the human-like vs. real attention - they are oddly similar (maybe because of artificial intelligence?)""}","","survey-text","597","1226274","0.0-597.0","vrrer54g","","","","","","","",""
"1018.9899999999907","","","instructions","598","1227295","0.0-598.0","vrrer54g","[{""page_index"":0,""viewing_time"":1018.8499999998603}]","","","","","","",""
"77023.02000000002","{""Experimenter_end"":[""Printed ID# vrrer54g on consent form"",""Given subject SONA credit or payment"",""Given the subject debrief form""]}","[0]","survey-multi-select","599","1304321","0.0-599.0","vrrer54g","","","","","","","",""
