"rt","responses","question_order","trial_type","trial_index","time_elapsed","internal_node_id","ID","view_history","stimulus","key_press","value","agent","condition","image","correct_answer"
"564628.77","{""Experimenter"":[""Confirmed subject's identity"",""Confirmed normal or corrected-to-normal vision"",""Obtained consent (signature and date)"",""Checked the test room lighting"",""Checked computer screen lighting"",""Checked distance from screen to chin rest (50cm)"",""Cleaned and adjusted chin rest"",""Counterbalanced the order of the tasks"",""Opened the experiment in Firefox"",""Made the experiment full screen"",""Encouraged subject to silence phone, put away distractors, etc.""]}","[0]","survey-multi-select","0","564638","0.0-0.0","vzogssju","","","","","","","",""
"179145.66000000003","","","instructions","1","743785","0.0-1.0","vzogssju","[{""page_index"":0,""viewing_time"":179145.47999999998}]","","","","","","",""
"17190.65499999991","","","instructions","2","760977","0.0-2.0","vzogssju","[{""page_index"":0,""viewing_time"":8767.66499999992},{""page_index"":1,""viewing_time"":1275.670000000042},{""page_index"":2,""viewing_time"":7147.199999999953}]","","","","","","",""
"2787.3800000000047","","","instructions","3","763765","0.0-3.0","vzogssju","[{""page_index"":0,""viewing_time"":2787.2700000000186}]","","","","","","",""
"null","","","video-keyboard-response","4","766840","0.0-4.0","vzogssju","","","null","","","","",""
"13772.270000000019","","","instructions","5","780613","0.0-5.0","vzogssju","[{""page_index"":0,""viewing_time"":3867.944999999949},{""page_index"":1,""viewing_time"":3900.155000000028},{""page_index"":2,""viewing_time"":6004.0650000000605}]","","","","","","",""
"3378.2399999999907","","","instructions","6","783992","0.0-6.0","vzogssju","[{""page_index"":0,""viewing_time"":3378.1350000000093}]","","","","","","",""
"1484.7949999999255","","","instructions","7","785477","0.0-7.0","vzogssju","[{""page_index"":0,""viewing_time"":1484.5749999999534}]","","","","","","",""
"null","","","video-keyboard-response","8","788552","0.0-8.0","vzogssju","","","null","","","","",""
"10112.390000000014","","","instructions","9","798665","0.0-9.0","vzogssju","[{""page_index"":0,""viewing_time"":872.3050000000512},{""page_index"":1,""viewing_time"":2726.0100000000093},{""page_index"":2,""viewing_time"":6513.939999999944}]","","","","","","",""
"13155.505000000005","","","instructions","10","811821","0.0-10.0","vzogssju","[{""page_index"":0,""viewing_time"":13155.390000000014}]","","","","","","",""
"","","","call-function","11","811822","0.0-11.0","vzogssju","","","","","","","",""
"null","","","html-keyboard-response","12","813324","0.0-12.0","vzogssju","","<span style=""color:Black; font-size:50px;"">Agent A","null","","","","",""
"null","","","video-keyboard-response","13","816399","0.0-13.0","vzogssju","","","null","","Agent A","scrambled","STIM_SET_2/1159329.bmp_pp61_L2_V1.0_scrambled_freeview_isoTrue.mp4",""
"null","","","html-keyboard-response","14","817902","0.0-14.0","vzogssju","","<span style=""color:Black; font-size:50px;"">Agent B","null","","","","",""
"null","","","video-keyboard-response","15","820977","0.0-15.0","vzogssju","","","null","","Agent B","veridical","STIM_SET_2/1159329.bmp_pp61_L2_V1.0_veridical_freeview_isoTrue.mp4",""
"","","","call-function","16","820977","0.0-16.0","vzogssju","","","","","","","",""
"6475.650000000023","{""judgement"":1}","[0]","survey-likert","17","827454","0.0-17.0","vzogssju","","","","","","","","1"
"4435.054999999935","{""confidence"":0}","[0]","survey-likert","18","831891","0.0-18.0","vzogssju","","","","","","","",""
"","","","call-function","19","831892","0.0-19.0","vzogssju","","","","","","","",""
"null","","","html-keyboard-response","20","833394","0.0-20.0","vzogssju","","<span style=""color:Black; font-size:50px;"">Agent A","null","","","","",""
"null","","","video-keyboard-response","21","836459","0.0-21.0","vzogssju","","","null","","Agent A","scrambled","STIM_SET_2/286034.bmp_pp69_L3_V1.0_scrambled_freeview_isoTrue.mp4",""
"null","","","html-keyboard-response","22","837961","0.0-22.0","vzogssju","","<span style=""color:Black; font-size:50px;"">Agent B","null","","","","",""
"null","","","video-keyboard-response","23","841028","0.0-23.0","vzogssju","","","null","","Agent B","veridical","STIM_SET_2/286034.bmp_pp69_L3_V1.0_veridical_freeview_isoTrue.mp4",""
"","","","call-function","24","841029","0.0-24.0","vzogssju","","","","","","","",""
"3834.8249999999534","{""judgement"":0}","[0]","survey-likert","25","844865","0.0-25.0","vzogssju","","","","","","","","1"
"1677.6699999999255","{""confidence"":2}","[0]","survey-likert","26","846544","0.0-26.0","vzogssju","","","","","","","",""
"","","","call-function","27","846544","0.0-27.0","vzogssju","","","","","","","",""
"null","","","html-keyboard-response","28","848046","0.0-28.0","vzogssju","","<span style=""color:Black; font-size:50px;"">Agent A","null","","","","",""
"null","","","video-keyboard-response","29","851117","0.0-29.0","vzogssju","","","null","","Agent A","veridical","STIM_SET_2/713652.bmp_pp89_L1_V1_veridical_freeview_isoTrue.mp4",""
"null","","","html-keyboard-response","30","852625","0.0-30.0","vzogssju","","<span style=""color:Black; font-size:50px;"">Agent B","null","","","","",""
"null","","","video-keyboard-response","31","855696","0.0-31.0","vzogssju","","","null","","Agent B","scrambled","STIM_SET_2/713652.bmp_pp89_L1_V1_scrambled_freeview_isoTrue.mp4",""
"","","","call-function","32","855696","0.0-32.0","vzogssju","","","","","","","",""
"3423.4000000000233","{""judgement"":0}","[0]","survey-likert","33","859121","0.0-33.0","vzogssju","","","","","","","","0"
"2140.8649999999907","{""confidence"":1}","[0]","survey-likert","34","861263","0.0-34.0","vzogssju","","","","","","","",""
"","","","call-function","35","861263","0.0-35.0","vzogssju","","","","","","","",""
"null","","","html-keyboard-response","36","862764","0.0-36.0","vzogssju","","<span style=""color:Black; font-size:50px;"">Agent A","null","","","","",""
"null","","","video-keyboard-response","37","865869","0.0-37.0","vzogssju","","","null","","Agent A","scrambled","STIM_SET_2/1160247.bmp_pp54_L2_V1.0_scrambled_freeview_isoTrue.mp4",""
"null","","","html-keyboard-response","38","867373","0.0-38.0","vzogssju","","<span style=""color:Black; font-size:50px;"">Agent B","null","","","","",""
"null","","","video-keyboard-response","39","870472","0.0-39.0","vzogssju","","","null","","Agent B","veridical","STIM_SET_2/1160247.bmp_pp54_L2_V1.0_veridical_freeview_isoTrue.mp4",""
"","","","call-function","40","870473","0.0-40.0","vzogssju","","","","","","","",""
"2164.54999999993","{""judgement"":1}","[0]","survey-likert","41","872638","0.0-41.0","vzogssju","","","","","","","","1"
"2015.1699999999255","{""confidence"":2}","[0]","survey-likert","42","874654","0.0-42.0","vzogssju","","","","","","","",""
"","","","call-function","43","874655","0.0-43.0","vzogssju","","","","","","","",""
"null","","","html-keyboard-response","44","876159","0.0-44.0","vzogssju","","<span style=""color:Black; font-size:50px;"">Agent A","null","","","","",""
"null","","","video-keyboard-response","45","879257","0.0-45.0","vzogssju","","","null","","Agent A","scrambled","STIM_SET_2/1592305.bmp_pp65_L3_V1.0_scrambled_freeview_isoTrue.mp4",""
"null","","","html-keyboard-response","46","880762","0.0-46.0","vzogssju","","<span style=""color:Black; font-size:50px;"">Agent B","null","","","","",""
"null","","","video-keyboard-response","47","883860","0.0-47.0","vzogssju","","","null","","Agent B","veridical","STIM_SET_2/1592305.bmp_pp65_L3_V1.0_veridical_freeview_isoTrue.mp4",""
"","","","call-function","48","883860","0.0-48.0","vzogssju","","","","","","","",""
"3886.804999999935","{""judgement"":1}","[0]","survey-likert","49","887748","0.0-49.0","vzogssju","","","","","","","","1"
"1994.3699999999953","{""confidence"":2}","[0]","survey-likert","50","889743","0.0-50.0","vzogssju","","","","","","","",""
"","","","call-function","51","889743","0.0-51.0","vzogssju","","","","","","","",""
"null","","","html-keyboard-response","52","891245","0.0-52.0","vzogssju","","<span style=""color:Black; font-size:50px;"">Agent A","null","","","","",""
"null","","","video-keyboard-response","53","894351","0.0-53.0","vzogssju","","","null","","Agent A","veridical","STIM_SET_2/713790.bmp_pp100_L3_V1_veridical_freeview_isoTrue.mp4",""
"null","","","html-keyboard-response","54","895854","0.0-54.0","vzogssju","","<span style=""color:Black; font-size:50px;"">Agent B","null","","","","",""
"null","","","video-keyboard-response","55","898963","0.0-55.0","vzogssju","","","null","","Agent B","scrambled","STIM_SET_2/713790.bmp_pp100_L3_V1_scrambled_freeview_isoTrue.mp4",""
"","","","call-function","56","898963","0.0-56.0","vzogssju","","","","","","","",""
"1576.2700000000186","{""judgement"":0}","[0]","survey-likert","57","900540","0.0-57.0","vzogssju","","","","","","","","0"
"1687.8000000000466","{""confidence"":1}","[0]","survey-likert","58","902230","0.0-58.0","vzogssju","","","","","","","",""
"","","","call-function","59","902230","0.0-59.0","vzogssju","","","","","","","",""
"null","","","html-keyboard-response","60","903735","0.0-60.0","vzogssju","","<span style=""color:Black; font-size:50px;"">Agent A","null","","","","",""
"null","","","video-keyboard-response","61","906803","0.0-61.0","vzogssju","","","null","","Agent A","veridical","STIM_SET_2/107955.bmp_pp90_L2_V1.0_veridical_freeview_isoTrue.mp4",""
"null","","","html-keyboard-response","62","908309","0.0-62.0","vzogssju","","<span style=""color:Black; font-size:50px;"">Agent B","null","","","","",""
"null","","","video-keyboard-response","63","911383","0.0-63.0","vzogssju","","","null","","Agent B","scrambled","STIM_SET_2/107955.bmp_pp90_L2_V1.0_scrambled_freeview_isoTrue.mp4",""
"","","","call-function","64","911384","0.0-64.0","vzogssju","","","","","","","",""
"3023.030000000028","{""judgement"":1}","[0]","survey-likert","65","914408","0.0-65.0","vzogssju","","","","","","","","0"
"2294.359999999986","{""confidence"":1}","[0]","survey-likert","66","916704","0.0-66.0","vzogssju","","","","","","","",""
"","","","call-function","67","916705","0.0-67.0","vzogssju","","","","","","","",""
"null","","","html-keyboard-response","68","918208","0.0-68.0","vzogssju","","<span style=""color:Black; font-size:50px;"">Agent A","null","","","","",""
"null","","","video-keyboard-response","69","921291","0.0-69.0","vzogssju","","","null","","Agent A","veridical","STIM_SET_2/1592314.bmp_pp100_L3_V1.0_veridical_freeview_isoTrue.mp4",""
"null","","","html-keyboard-response","70","922794","0.0-70.0","vzogssju","","<span style=""color:Black; font-size:50px;"">Agent B","null","","","","",""
"null","","","video-keyboard-response","71","925863","0.0-71.0","vzogssju","","","null","","Agent B","scrambled","STIM_SET_2/1592314.bmp_pp100_L3_V1.0_scrambled_freeview_isoTrue.mp4",""
"","","","call-function","72","925864","0.0-72.0","vzogssju","","","","","","","",""
"2250.8150000000605","{""judgement"":0}","[0]","survey-likert","73","928116","0.0-73.0","vzogssju","","","","","","","","0"
"4425.109999999986","{""confidence"":0}","[0]","survey-likert","74","932542","0.0-74.0","vzogssju","","","","","","","",""
"","","","call-function","75","932543","0.0-75.0","vzogssju","","","","","","","",""
"null","","","html-keyboard-response","76","934046","0.0-76.0","vzogssju","","<span style=""color:Black; font-size:50px;"">Agent A","null","","","","",""
"null","","","video-keyboard-response","77","937118","0.0-77.0","vzogssju","","","null","","Agent A","veridical","STIM_SET_2/1160189.bmp_pp64_L1_V1.0_veridical_freeview_isoTrue.mp4",""
"null","","","html-keyboard-response","78","938620","0.0-78.0","vzogssju","","<span style=""color:Black; font-size:50px;"">Agent B","null","","","","",""
"null","","","video-keyboard-response","79","941692","0.0-79.0","vzogssju","","","null","","Agent B","scrambled","STIM_SET_2/1160189.bmp_pp64_L1_V1.0_scrambled_freeview_isoTrue.mp4",""
"","","","call-function","80","941693","0.0-80.0","vzogssju","","","","","","","",""
"3557.4349999999395","{""judgement"":1}","[0]","survey-likert","81","945251","0.0-81.0","vzogssju","","","","","","","","0"
"1693.7700000000186","{""confidence"":1}","[0]","survey-likert","82","946946","0.0-82.0","vzogssju","","","","","","","",""
"","","","call-function","83","946946","0.0-83.0","vzogssju","","","","","","","",""
"null","","","html-keyboard-response","84","948447","0.0-84.0","vzogssju","","<span style=""color:Black; font-size:50px;"">Agent A","null","","","","",""
"null","","","video-keyboard-response","85","951552","0.0-85.0","vzogssju","","","null","","Agent A","scrambled","STIM_SET_2/1592047.bmp_pp51_L1_V1.0_scrambled_freeview_isoTrue.mp4",""
"null","","","html-keyboard-response","86","953054","0.0-86.0","vzogssju","","<span style=""color:Black; font-size:50px;"">Agent B","null","","","","",""
"null","","","video-keyboard-response","87","956153","0.0-87.0","vzogssju","","","null","","Agent B","veridical","STIM_SET_2/1592047.bmp_pp51_L1_V1.0_veridical_freeview_isoTrue.mp4",""
"","","","call-function","88","956153","0.0-88.0","vzogssju","","","","","","","",""
"2430.8249999999534","{""judgement"":0}","[0]","survey-likert","89","958585","0.0-89.0","vzogssju","","","","","","","","1"
"1931.3200000000652","{""confidence"":1}","[0]","survey-likert","90","960518","0.0-90.0","vzogssju","","","","","","","",""
"81353.28000000003","","","instructions","91","1041872","0.0-91.0","vzogssju","[{""page_index"":0,""viewing_time"":1896.920000000042},{""page_index"":1,""viewing_time"":78285.85999999999},{""page_index"":2,""viewing_time"":1170.1650000000373}]","","","","","","",""
"4417.939999999944","","","instructions","92","1046290","0.0-92.0","vzogssju","[{""page_index"":0,""viewing_time"":1521.030000000028},{""page_index"":1,""viewing_time"":1904.9749999999767},{""page_index"":2,""viewing_time"":991.8249999999534}]","","","","","","",""
"","","","call-function","93","1046291","0.0-93.0","vzogssju","","","","","","","",""
"null","","","html-keyboard-response","94","1047796","0.0-94.0","vzogssju","","<span style=""color:Black; font-size:50px;"">Agent A","null","","","","",""
"null","","","video-keyboard-response","95","1050868","0.0-95.0","vzogssju","","","null","","Agent A","veridical","STIM_SET_2/1592921.bmp_pp69_L3_V1.0_veridical_freeview_isoTrue.mp4",""
"null","","","html-keyboard-response","96","1052372","0.0-96.0","vzogssju","","<span style=""color:Black; font-size:50px;"">Agent B","null","","","","",""
"null","","","video-keyboard-response","97","1055448","0.0-97.0","vzogssju","","","null","","Agent B","scrambled","STIM_SET_2/1592921.bmp_pp69_L3_V1.0_scrambled_freeview_isoTrue.mp4",""
"","","","call-function","98","1055448","0.0-98.0","vzogssju","","","","","","","",""
"2262.125","{""judgement"":1}","[0]","survey-likert","99","1057711","0.0-99.0","vzogssju","","","","","","","","0"
"2255.839999999851","{""confidence"":2}","[0]","survey-likert","100","1059968","0.0-100.0","vzogssju","","","","","","","",""
"","","","call-function","101","1059968","0.0-101.0","vzogssju","","","","","","","",""
"null","","","html-keyboard-response","102","1061470","0.0-102.0","vzogssju","","<span style=""color:Black; font-size:50px;"">Agent A","null","","","","",""
"null","","","video-keyboard-response","103","1064561","0.0-103.0","vzogssju","","","null","","Agent A","scrambled","STIM_SET_2/713858.bmp_pp57_L1_V1.0_scrambled_freeview_isoTrue.mp4",""
"null","","","html-keyboard-response","104","1066065","0.0-104.0","vzogssju","","<span style=""color:Black; font-size:50px;"">Agent B","null","","","","",""
"null","","","video-keyboard-response","105","1069147","0.0-105.0","vzogssju","","","null","","Agent B","veridical","STIM_SET_2/713858.bmp_pp57_L1_V1.0_veridical_freeview_isoTrue.mp4",""
"","","","call-function","106","1069149","0.0-106.0","vzogssju","","","","","","","",""
"5785.939999999944","{""judgement"":1}","[0]","survey-likert","107","1074936","0.0-107.0","vzogssju","","","","","","","","1"
"1527.3349999999627","{""confidence"":1}","[0]","survey-likert","108","1076464","0.0-108.0","vzogssju","","","","","","","",""
"","","","call-function","109","1076465","0.0-109.0","vzogssju","","","","","","","",""
"null","","","html-keyboard-response","110","1077967","0.0-110.0","vzogssju","","<span style=""color:Black; font-size:50px;"">Agent A","null","","","","",""
"null","","","video-keyboard-response","111","1081028","0.0-111.0","vzogssju","","","null","","Agent A","veridical","STIM_SET_2/1159325.bmp_pp67_L2_V1.0_veridical_freeview_isoTrue.mp4",""
"null","","","html-keyboard-response","112","1082531","0.0-112.0","vzogssju","","<span style=""color:Black; font-size:50px;"">Agent B","null","","","","",""
"null","","","video-keyboard-response","113","1085592","0.0-113.0","vzogssju","","","null","","Agent B","scrambled","STIM_SET_2/1159325.bmp_pp67_L2_V1.0_scrambled_freeview_isoTrue.mp4",""
"","","","call-function","114","1085593","0.0-114.0","vzogssju","","","","","","","",""
"2599.2549999998882","{""judgement"":0}","[0]","survey-likert","115","1088193","0.0-115.0","vzogssju","","","","","","","","0"
"1995.2949999999255","{""confidence"":0}","[0]","survey-likert","116","1090190","0.0-116.0","vzogssju","","","","","","","",""
"","","","call-function","117","1090191","0.0-117.0","vzogssju","","","","","","","",""
"null","","","html-keyboard-response","118","1091694","0.0-118.0","vzogssju","","<span style=""color:Black; font-size:50px;"">Agent A","null","","","","",""
"null","","","video-keyboard-response","119","1094793","0.0-119.0","vzogssju","","","null","","Agent A","veridical","STIM_SET_2/498258.bmp_pp51_L1_V1.0_veridical_freeview_isoTrue.mp4",""
"null","","","html-keyboard-response","120","1096295","0.0-120.0","vzogssju","","<span style=""color:Black; font-size:50px;"">Agent B","null","","","","",""
"null","","","video-keyboard-response","121","1099392","0.0-121.0","vzogssju","","","null","","Agent B","scrambled","STIM_SET_2/498258.bmp_pp51_L1_V1.0_scrambled_freeview_isoTrue.mp4",""
"","","","call-function","122","1099392","0.0-122.0","vzogssju","","","","","","","",""
"1621.1850000000559","{""judgement"":0}","[0]","survey-likert","123","1101014","0.0-123.0","vzogssju","","","","","","","","0"
"1731.6899999999441","{""confidence"":2}","[0]","survey-likert","124","1102747","0.0-124.0","vzogssju","","","","","","","",""
"","","","call-function","125","1102747","0.0-125.0","vzogssju","","","","","","","",""
"null","","","html-keyboard-response","126","1104253","0.0-126.0","vzogssju","","<span style=""color:Black; font-size:50px;"">Agent A","null","","","","",""
"null","","","video-keyboard-response","127","1107350","0.0-127.0","vzogssju","","","null","","Agent A","scrambled","STIM_SET_2/1592201.bmp_pp97_L3_V1.0_scrambled_freeview_isoTrue.mp4",""
"null","","","html-keyboard-response","128","1108854","0.0-128.0","vzogssju","","<span style=""color:Black; font-size:50px;"">Agent B","null","","","","",""
"null","","","video-keyboard-response","129","1111954","0.0-129.0","vzogssju","","","null","","Agent B","veridical","STIM_SET_2/1592201.bmp_pp97_L3_V1.0_veridical_freeview_isoTrue.mp4",""
"","","","call-function","130","1111954","0.0-130.0","vzogssju","","","","","","","",""
"1831.7399999999907","{""judgement"":0}","[0]","survey-likert","131","1113787","0.0-131.0","vzogssju","","","","","","","","1"
"2000.3000000000466","{""confidence"":1}","[0]","survey-likert","132","1115789","0.0-132.0","vzogssju","","","","","","","",""
"","","","call-function","133","1115789","0.0-133.0","vzogssju","","","","","","","",""
"null","","","html-keyboard-response","134","1117294","0.0-134.0","vzogssju","","<span style=""color:Black; font-size:50px;"">Agent A","null","","","","",""
"null","","","video-keyboard-response","135","1120400","0.0-135.0","vzogssju","","","null","","Agent A","veridical","STIM_SET_2/713770.bmp_pp89_L1_V1.0_veridical_freeview_isoTrue.mp4",""
"null","","","html-keyboard-response","136","1121901","0.0-136.0","vzogssju","","<span style=""color:Black; font-size:50px;"">Agent B","null","","","","",""
"null","","","video-keyboard-response","137","1125011","0.0-137.0","vzogssju","","","null","","Agent B","scrambled","STIM_SET_2/713770.bmp_pp89_L1_V1.0_scrambled_freeview_isoTrue.mp4",""
"","","","call-function","138","1125012","0.0-138.0","vzogssju","","","","","","","",""
"2107.280000000028","{""judgement"":0}","[0]","survey-likert","139","1127120","0.0-139.0","vzogssju","","","","","","","","0"
"1797.684999999823","{""confidence"":1}","[0]","survey-likert","140","1128919","0.0-140.0","vzogssju","","","","","","","",""
"","","","call-function","141","1128919","0.0-141.0","vzogssju","","","","","","","",""
"null","","","html-keyboard-response","142","1130422","0.0-142.0","vzogssju","","<span style=""color:Black; font-size:50px;"">Agent A","null","","","","",""
"null","","","video-keyboard-response","143","1133494","0.0-143.0","vzogssju","","","null","","Agent A","scrambled","STIM_SET_2/1160204.bmp_pp54_L2_V1.0_scrambled_freeview_isoTrue.mp4",""
"null","","","html-keyboard-response","144","1134996","0.0-144.0","vzogssju","","<span style=""color:Black; font-size:50px;"">Agent B","null","","","","",""
"null","","","video-keyboard-response","145","1138069","0.0-145.0","vzogssju","","","null","","Agent B","veridical","STIM_SET_2/1160204.bmp_pp54_L2_V1.0_veridical_freeview_isoTrue.mp4",""
"","","","call-function","146","1138070","0.0-146.0","vzogssju","","","","","","","",""
"2349.9199999999255","{""judgement"":1}","[0]","survey-likert","147","1140421","0.0-147.0","vzogssju","","","","","","","","1"
"1915.3200000000652","{""confidence"":1}","[0]","survey-likert","148","1142338","0.0-148.0","vzogssju","","","","","","","",""
"","","","call-function","149","1142339","0.0-149.0","vzogssju","","","","","","","",""
"null","","","html-keyboard-response","150","1143840","0.0-150.0","vzogssju","","<span style=""color:Black; font-size:50px;"">Agent A","null","","","","",""
"null","","","video-keyboard-response","151","1146915","0.0-151.0","vzogssju","","","null","","Agent A","veridical","STIM_SET_2/150463.bmp_pp55_L3_V1.0_veridical_freeview_isoTrue.mp4",""
"null","","","html-keyboard-response","152","1148416","0.0-152.0","vzogssju","","<span style=""color:Black; font-size:50px;"">Agent B","null","","","","",""
"null","","","video-keyboard-response","153","1151493","0.0-153.0","vzogssju","","","null","","Agent B","scrambled","STIM_SET_2/150463.bmp_pp55_L3_V1.0_scrambled_freeview_isoTrue.mp4",""
"","","","call-function","154","1151494","0.0-154.0","vzogssju","","","","","","","",""
"2680.059999999823","{""judgement"":0}","[0]","survey-likert","155","1154175","0.0-155.0","vzogssju","","","","","","","","0"
"1763.1049999999814","{""confidence"":1}","[0]","survey-likert","156","1155939","0.0-156.0","vzogssju","","","","","","","",""
"","","","call-function","157","1155940","0.0-157.0","vzogssju","","","","","","","",""
"null","","","html-keyboard-response","158","1157441","0.0-158.0","vzogssju","","<span style=""color:Black; font-size:50px;"">Agent A","null","","","","",""
"null","","","video-keyboard-response","159","1160514","0.0-159.0","vzogssju","","","null","","Agent A","scrambled","STIM_SET_2/713274.bmp_pp73_L3_V1.0_scrambled_freeview_isoTrue.mp4",""
"null","","","html-keyboard-response","160","1162016","0.0-160.0","vzogssju","","<span style=""color:Black; font-size:50px;"">Agent B","null","","","","",""
"null","","","video-keyboard-response","161","1165081","0.0-161.0","vzogssju","","","null","","Agent B","veridical","STIM_SET_2/713274.bmp_pp73_L3_V1.0_veridical_freeview_isoTrue.mp4",""
"","","","call-function","162","1165082","0.0-162.0","vzogssju","","","","","","","",""
"2465.399999999907","{""judgement"":1}","[0]","survey-likert","163","1167548","0.0-163.0","vzogssju","","","","","","","","1"
"1415.9500000001863","{""confidence"":1}","[0]","survey-likert","164","1168965","0.0-164.0","vzogssju","","","","","","","",""
"","","","call-function","165","1168965","0.0-165.0","vzogssju","","","","","","","",""
"null","","","html-keyboard-response","166","1170471","0.0-166.0","vzogssju","","<span style=""color:Black; font-size:50px;"">Agent A","null","","","","",""
"null","","","video-keyboard-response","167","1173572","0.0-167.0","vzogssju","","","null","","Agent A","veridical","STIM_SET_2/1592350.bmp_pp55_L3_V1.0_veridical_freeview_isoTrue.mp4",""
"null","","","html-keyboard-response","168","1175073","0.0-168.0","vzogssju","","<span style=""color:Black; font-size:50px;"">Agent B","null","","","","",""
"null","","","video-keyboard-response","169","1178174","0.0-169.0","vzogssju","","","null","","Agent B","scrambled","STIM_SET_2/1592350.bmp_pp55_L3_V1.0_scrambled_freeview_isoTrue.mp4",""
"","","","call-function","170","1178174","0.0-170.0","vzogssju","","","","","","","",""
"2291.280000000028","{""judgement"":0}","[0]","survey-likert","171","1180467","0.0-171.0","vzogssju","","","","","","","","0"
"2004.0749999999534","{""confidence"":1}","[0]","survey-likert","172","1182472","0.0-172.0","vzogssju","","","","","","","",""
"23020.195000000065","","","instructions","173","1205493","0.0-173.0","vzogssju","[{""page_index"":0,""viewing_time"":17000.030000000028},{""page_index"":1,""viewing_time"":2604.2600000000093},{""page_index"":2,""viewing_time"":3415.6699999999255}]","","","","","","",""
"2425.4599999999627","","","instructions","174","1207918","0.0-174.0","vzogssju","[{""page_index"":0,""viewing_time"":529.4049999997951},{""page_index"":1,""viewing_time"":1429},{""page_index"":2,""viewing_time"":466.9450000000652}]","","","","","","",""
"","","","call-function","175","1207919","0.0-175.0","vzogssju","","","","","","","",""
"null","","","html-keyboard-response","176","1209420","0.0-176.0","vzogssju","","<span style=""color:Black; font-size:50px;"">Agent A","null","","","","",""
"null","","","video-keyboard-response","177","1212487","0.0-177.0","vzogssju","","","null","","Agent A","veridical","STIM_SET_2/1160049.bmp_pp53_L2_V1.0_veridical_freeview_isoTrue.mp4",""
"null","","","html-keyboard-response","178","1213990","0.0-178.0","vzogssju","","<span style=""color:Black; font-size:50px;"">Agent B","null","","","","",""
"null","","","video-keyboard-response","179","1217058","0.0-179.0","vzogssju","","","null","","Agent B","scrambled","STIM_SET_2/1160049.bmp_pp53_L2_V1.0_scrambled_freeview_isoTrue.mp4",""
"","","","call-function","180","1217059","0.0-180.0","vzogssju","","","","","","","",""
"2282.0250000001397","{""judgement"":0}","[0]","survey-likert","181","1219342","0.0-181.0","vzogssju","","","","","","","","0"
"1330.3000000000466","{""confidence"":1}","[0]","survey-likert","182","1220673","0.0-182.0","vzogssju","","","","","","","",""
"","","","call-function","183","1220674","0.0-183.0","vzogssju","","","","","","","",""
"null","","","html-keyboard-response","184","1222176","0.0-184.0","vzogssju","","<span style=""color:Black; font-size:50px;"">Agent A","null","","","","",""
"null","","","video-keyboard-response","185","1225240","0.0-185.0","vzogssju","","","null","","Agent A","scrambled","STIM_SET_2/1592951.bmp_pp80_L3_V1.0_scrambled_freeview_isoTrue.mp4",""
"null","","","html-keyboard-response","186","1226744","0.0-186.0","vzogssju","","<span style=""color:Black; font-size:50px;"">Agent B","null","","","","",""
"null","","","video-keyboard-response","187","1229806","0.0-187.0","vzogssju","","","null","","Agent B","veridical","STIM_SET_2/1592951.bmp_pp80_L3_V1.0_veridical_freeview_isoTrue.mp4",""
"","","","call-function","188","1229808","0.0-188.0","vzogssju","","","","","","","",""
"1635.219999999972","{""judgement"":0}","[0]","survey-likert","189","1231444","0.0-189.0","vzogssju","","","","","","","","1"
"1750.4750000000931","{""confidence"":1}","[0]","survey-likert","190","1233196","0.0-190.0","vzogssju","","","","","","","",""
"","","","call-function","191","1233197","0.0-191.0","vzogssju","","","","","","","",""
"null","","","html-keyboard-response","192","1234703","0.0-192.0","vzogssju","","<span style=""color:Black; font-size:50px;"">Agent A","null","","","","",""
"null","","","video-keyboard-response","193","1237777","0.0-193.0","vzogssju","","","null","","Agent A","veridical","STIM_SET_2/713328.bmp_pp86_L2_V1.0_veridical_freeview_isoTrue.mp4",""
"null","","","html-keyboard-response","194","1239280","0.0-194.0","vzogssju","","<span style=""color:Black; font-size:50px;"">Agent B","null","","","","",""
"null","","","video-keyboard-response","195","1242351","0.0-195.0","vzogssju","","","null","","Agent B","scrambled","STIM_SET_2/713328.bmp_pp86_L2_V1.0_scrambled_freeview_isoTrue.mp4",""
"","","","call-function","196","1242352","0.0-196.0","vzogssju","","","","","","","",""
"1570.0600000000559","{""judgement"":0}","[0]","survey-likert","197","1243923","0.0-197.0","vzogssju","","","","","","","","0"
"1764.7250000000931","{""confidence"":3}","[0]","survey-likert","198","1245689","0.0-198.0","vzogssju","","","","","","","",""
"","","","call-function","199","1245690","0.0-199.0","vzogssju","","","","","","","",""
"null","","","html-keyboard-response","200","1247192","0.0-200.0","vzogssju","","<span style=""color:Black; font-size:50px;"">Agent A","null","","","","",""
"null","","","video-keyboard-response","201","1250266","0.0-201.0","vzogssju","","","null","","Agent A","veridical","STIM_SET_2/1159819.bmp_pp151_L1_V1.0_veridical_freeview_isoTrue.mp4",""
"null","","","html-keyboard-response","202","1251770","0.0-202.0","vzogssju","","<span style=""color:Black; font-size:50px;"">Agent B","null","","","","",""
"null","","","video-keyboard-response","203","1254842","0.0-203.0","vzogssju","","","null","","Agent B","scrambled","STIM_SET_2/1159819.bmp_pp151_L1_V1.0_scrambled_freeview_isoTrue.mp4",""
"","","","call-function","204","1254843","0.0-204.0","vzogssju","","","","","","","",""
"2024.2750000001397","{""judgement"":1}","[0]","survey-likert","205","1256868","0.0-205.0","vzogssju","","","","","","","","0"
"2205.9500000001863","{""confidence"":0}","[0]","survey-likert","206","1259075","0.0-206.0","vzogssju","","","","","","","",""
"","","","call-function","207","1259076","0.0-207.0","vzogssju","","","","","","","",""
"null","","","html-keyboard-response","208","1260580","0.0-208.0","vzogssju","","<span style=""color:Black; font-size:50px;"">Agent A","null","","","","",""
"null","","","video-keyboard-response","209","1263682","0.0-209.0","vzogssju","","","null","","Agent A","scrambled","STIM_SET_2/1591781.bmp_pp63_L1_V1.0_scrambled_freeview_isoTrue.mp4",""
"null","","","html-keyboard-response","210","1265187","0.0-210.0","vzogssju","","<span style=""color:Black; font-size:50px;"">Agent B","null","","","","",""
"null","","","video-keyboard-response","211","1268286","0.0-211.0","vzogssju","","","null","","Agent B","veridical","STIM_SET_2/1591781.bmp_pp63_L1_V1.0_veridical_freeview_isoTrue.mp4",""
"","","","call-function","212","1268287","0.0-212.0","vzogssju","","","","","","","",""
"1688.994999999879","{""judgement"":1}","[0]","survey-likert","213","1269977","0.0-213.0","vzogssju","","","","","","","","1"
"1437.5449999999255","{""confidence"":1}","[0]","survey-likert","214","1271416","0.0-214.0","vzogssju","","","","","","","",""
"","","","call-function","215","1271416","0.0-215.0","vzogssju","","","","","","","",""
"null","","","html-keyboard-response","216","1272917","0.0-216.0","vzogssju","","<span style=""color:Black; font-size:50px;"">Agent A","null","","","","",""
"null","","","video-keyboard-response","217","1276014","0.0-217.0","vzogssju","","","null","","Agent A","veridical","STIM_SET_2/1592129.bmp_pp153_L3_V1.0_veridical_freeview_isoTrue.mp4",""
"null","","","html-keyboard-response","218","1277516","0.0-218.0","vzogssju","","<span style=""color:Black; font-size:50px;"">Agent B","null","","","","",""
"null","","","video-keyboard-response","219","1280614","0.0-219.0","vzogssju","","","null","","Agent B","scrambled","STIM_SET_2/1592129.bmp_pp153_L3_V1.0_scrambled_freeview_isoTrue.mp4",""
"","","","call-function","220","1280614","0.0-220.0","vzogssju","","","","","","","",""
"1832.0600000000559","{""judgement"":0}","[0]","survey-likert","221","1282447","0.0-221.0","vzogssju","","","","","","","","0"
"1269.6499999999069","{""confidence"":1}","[0]","survey-likert","222","1283718","0.0-222.0","vzogssju","","","","","","","",""
"","","","call-function","223","1283718","0.0-223.0","vzogssju","","","","","","","",""
"null","","","html-keyboard-response","224","1285221","0.0-224.0","vzogssju","","<span style=""color:Black; font-size:50px;"">Agent A","null","","","","",""
"null","","","video-keyboard-response","225","1288324","0.0-225.0","vzogssju","","","null","","Agent A","scrambled","STIM_SET_2/1592289.bmp_pp92_L3_V1.0_scrambled_freeview_isoTrue.mp4",""
"null","","","html-keyboard-response","226","1289826","0.0-226.0","vzogssju","","<span style=""color:Black; font-size:50px;"">Agent B","null","","","","",""
"null","","","video-keyboard-response","227","1292888","0.0-227.0","vzogssju","","","null","","Agent B","veridical","STIM_SET_2/1592289.bmp_pp92_L3_V1.0_veridical_freeview_isoTrue.mp4",""
"","","","call-function","228","1292889","0.0-228.0","vzogssju","","","","","","","",""
"1827.440000000177","{""judgement"":0}","[0]","survey-likert","229","1294717","0.0-229.0","vzogssju","","","","","","","","1"
"2597.5150000001304","{""confidence"":1}","[0]","survey-likert","230","1297316","0.0-230.0","vzogssju","","","","","","","",""
"","","","call-function","231","1297317","0.0-231.0","vzogssju","","","","","","","",""
"null","","","html-keyboard-response","232","1298820","0.0-232.0","vzogssju","","<span style=""color:Black; font-size:50px;"">Agent A","null","","","","",""
"null","","","video-keyboard-response","233","1301895","0.0-233.0","vzogssju","","","null","","Agent A","veridical","STIM_SET_2/150277.bmp_pp65_L3_V1.0_veridical_freeview_isoTrue.mp4",""
"null","","","html-keyboard-response","234","1303400","0.0-234.0","vzogssju","","<span style=""color:Black; font-size:50px;"">Agent B","null","","","","",""
"null","","","video-keyboard-response","235","1306477","0.0-235.0","vzogssju","","","null","","Agent B","scrambled","STIM_SET_2/150277.bmp_pp65_L3_V1.0_scrambled_freeview_isoTrue.mp4",""
"","","","call-function","236","1306477","0.0-236.0","vzogssju","","","","","","","",""
"1960.994999999879","{""judgement"":1}","[0]","survey-likert","237","1308439","0.0-237.0","vzogssju","","","","","","","","0"
"2120.714999999851","{""confidence"":1}","[0]","survey-likert","238","1310561","0.0-238.0","vzogssju","","","","","","","",""
"","","","call-function","239","1310562","0.0-239.0","vzogssju","","","","","","","",""
"null","","","html-keyboard-response","240","1312063","0.0-240.0","vzogssju","","<span style=""color:Black; font-size:50px;"">Agent A","null","","","","",""
"null","","","video-keyboard-response","241","1315138","0.0-241.0","vzogssju","","","null","","Agent A","veridical","STIM_SET_2/1592038.bmp_pp79_L2_V1.0_veridical_freeview_isoTrue.mp4",""
"null","","","html-keyboard-response","242","1316645","0.0-242.0","vzogssju","","<span style=""color:Black; font-size:50px;"">Agent B","null","","","","",""
"null","","","video-keyboard-response","243","1319721","0.0-243.0","vzogssju","","","null","","Agent B","scrambled","STIM_SET_2/1592038.bmp_pp79_L2_V1.0_scrambled_freeview_isoTrue.mp4",""
"","","","call-function","244","1319722","0.0-244.0","vzogssju","","","","","","","",""
"2205.1999999999534","{""judgement"":0}","[0]","survey-likert","245","1321928","0.0-245.0","vzogssju","","","","","","","","0"
"1269.6850000000559","{""confidence"":1}","[0]","survey-likert","246","1323200","0.0-246.0","vzogssju","","","","","","","",""
"","","","call-function","247","1323201","0.0-247.0","vzogssju","","","","","","","",""
"null","","","html-keyboard-response","248","1324704","0.0-248.0","vzogssju","","<span style=""color:Black; font-size:50px;"">Agent A","null","","","","",""
"null","","","video-keyboard-response","249","1327784","0.0-249.0","vzogssju","","","null","","Agent A","scrambled","STIM_SET_2/713633.bmp_pp58_L1_V1.0_scrambled_freeview_isoTrue.mp4",""
"null","","","html-keyboard-response","250","1329290","0.0-250.0","vzogssju","","<span style=""color:Black; font-size:50px;"">Agent B","null","","","","",""
"null","","","video-keyboard-response","251","1332370","0.0-251.0","vzogssju","","","null","","Agent B","veridical","STIM_SET_2/713633.bmp_pp58_L1_V1.0_veridical_freeview_isoTrue.mp4",""
"","","","call-function","252","1332371","0.0-252.0","vzogssju","","","","","","","",""
"4008.660000000149","{""judgement"":0}","[0]","survey-likert","253","1336380","0.0-253.0","vzogssju","","","","","","","","1"
"1935.7099999999627","{""confidence"":2}","[0]","survey-likert","254","1338317","0.0-254.0","vzogssju","","","","","","","",""
"140118.80000000005","","","instructions","255","1478437","0.0-255.0","vzogssju","[{""page_index"":0,""viewing_time"":5331.709999999963},{""page_index"":1,""viewing_time"":133339.01500000013},{""page_index"":2,""viewing_time"":1447.8649999999907}]","","","","","","",""
"2239.314999999944","","","instructions","256","1480677","0.0-256.0","vzogssju","[{""page_index"":0,""viewing_time"":626.625},{""page_index"":1,""viewing_time"":1126.8799999998882},{""page_index"":2,""viewing_time"":485.7050000000745}]","","","","","","",""
"","","","call-function","257","1480678","0.0-257.0","vzogssju","","","","","","","",""
"null","","","html-keyboard-response","258","1482182","0.0-258.0","vzogssju","","<span style=""color:Black; font-size:50px;"">Agent A","null","","","","",""
"null","","","video-keyboard-response","259","1485254","0.0-259.0","vzogssju","","","null","","Agent A","scrambled","STIM_SET_2/1592298.bmp_pp56_L3_V1.0_scrambled_freeview_isoTrue.mp4",""
"null","","","html-keyboard-response","260","1486755","0.0-260.0","vzogssju","","<span style=""color:Black; font-size:50px;"">Agent B","null","","","","",""
"null","","","video-keyboard-response","261","1489829","0.0-261.0","vzogssju","","","null","","Agent B","veridical","STIM_SET_2/1592298.bmp_pp56_L3_V1.0_veridical_freeview_isoTrue.mp4",""
"","","","call-function","262","1489830","0.0-262.0","vzogssju","","","","","","","",""
"2236.1500000001397","{""judgement"":0}","[0]","survey-likert","263","1492067","0.0-263.0","vzogssju","","","","","","","","1"
"1262.6049999999814","{""confidence"":1}","[0]","survey-likert","264","1493331","0.0-264.0","vzogssju","","","","","","","",""
"","","","call-function","265","1493331","0.0-265.0","vzogssju","","","","","","","",""
"null","","","html-keyboard-response","266","1494835","0.0-266.0","vzogssju","","<span style=""color:Black; font-size:50px;"">Agent A","null","","","","",""
"null","","","video-keyboard-response","267","1497902","0.0-267.0","vzogssju","","","null","","Agent A","veridical","STIM_SET_2/498326.bmp_pp57_L1_V1.0_veridical_freeview_isoTrue.mp4",""
"null","","","html-keyboard-response","268","1499406","0.0-268.0","vzogssju","","<span style=""color:Black; font-size:50px;"">Agent B","null","","","","",""
"null","","","video-keyboard-response","269","1502476","0.0-269.0","vzogssju","","","null","","Agent B","scrambled","STIM_SET_2/498326.bmp_pp57_L1_V1.0_scrambled_freeview_isoTrue.mp4",""
"","","","call-function","270","1502477","0.0-270.0","vzogssju","","","","","","","",""
"1948.1349999997765","{""judgement"":0}","[0]","survey-likert","271","1504427","0.0-271.0","vzogssju","","","","","","","","0"
"1218.7150000000838","{""confidence"":1}","[0]","survey-likert","272","1505647","0.0-272.0","vzogssju","","","","","","","",""
"","","","call-function","273","1505647","0.0-273.0","vzogssju","","","","","","","",""
"null","","","html-keyboard-response","274","1507149","0.0-274.0","vzogssju","","<span style=""color:Black; font-size:50px;"">Agent A","null","","","","",""
"null","","","video-keyboard-response","275","1510255","0.0-275.0","vzogssju","","","null","","Agent A","veridical","STIM_SET_2/713742.bmp_pp91_L3_V1.0_veridical_freeview_isoTrue.mp4",""
"null","","","html-keyboard-response","276","1511760","0.0-276.0","vzogssju","","<span style=""color:Black; font-size:50px;"">Agent B","null","","","","",""
"null","","","video-keyboard-response","277","1514870","0.0-277.0","vzogssju","","","null","","Agent B","scrambled","STIM_SET_2/713742.bmp_pp91_L3_V1.0_scrambled_freeview_isoTrue.mp4",""
"","","","call-function","278","1514870","0.0-278.0","vzogssju","","","","","","","",""
"2092.344999999972","{""judgement"":0}","[0]","survey-likert","279","1516964","0.0-279.0","vzogssju","","","","","","","","0"
"2083.9799999999814","{""confidence"":0}","[0]","survey-likert","280","1519049","0.0-280.0","vzogssju","","","","","","","",""
"","","","call-function","281","1519049","0.0-281.0","vzogssju","","","","","","","",""
"null","","","html-keyboard-response","282","1520551","0.0-282.0","vzogssju","","<span style=""color:Black; font-size:50px;"">Agent A","null","","","","",""
"null","","","video-keyboard-response","283","1523650","0.0-283.0","vzogssju","","","null","","Agent A","veridical","STIM_SET_2/713689.bmp_pp153_L3_V1.0_veridical_freeview_isoTrue.mp4",""
"null","","","html-keyboard-response","284","1525153","0.0-284.0","vzogssju","","<span style=""color:Black; font-size:50px;"">Agent B","null","","","","",""
"null","","","video-keyboard-response","285","1528226","0.0-285.0","vzogssju","","","null","","Agent B","scrambled","STIM_SET_2/713689.bmp_pp153_L3_V1.0_scrambled_freeview_isoTrue.mp4",""
"","","","call-function","286","1528227","0.0-286.0","vzogssju","","","","","","","",""
"1782.8599999998696","{""judgement"":0}","[0]","survey-likert","287","1530011","0.0-287.0","vzogssju","","","","","","","","0"
"1438.7650000001304","{""confidence"":1}","[0]","survey-likert","288","1531451","0.0-288.0","vzogssju","","","","","","","",""
"","","","call-function","289","1531451","0.0-289.0","vzogssju","","","","","","","",""
"null","","","html-keyboard-response","290","1532956","0.0-290.0","vzogssju","","<span style=""color:Black; font-size:50px;"">Agent A","null","","","","",""
"null","","","video-keyboard-response","291","1536029","0.0-291.0","vzogssju","","","null","","Agent A","veridical","STIM_SET_2/61513.bmp_pp75_L1_V1.0_veridical_freeview_isoTrue.mp4",""
"null","","","html-keyboard-response","292","1537530","0.0-292.0","vzogssju","","<span style=""color:Black; font-size:50px;"">Agent B","null","","","","",""
"null","","","video-keyboard-response","293","1540605","0.0-293.0","vzogssju","","","null","","Agent B","scrambled","STIM_SET_2/61513.bmp_pp75_L1_V1.0_scrambled_freeview_isoTrue.mp4",""
"","","","call-function","294","1540606","0.0-294.0","vzogssju","","","","","","","",""
"2088.185000000056","{""judgement"":0}","[0]","survey-likert","295","1542695","0.0-295.0","vzogssju","","","","","","","","0"
"1240.8500000000931","{""confidence"":1}","[0]","survey-likert","296","1543937","0.0-296.0","vzogssju","","","","","","","",""
"","","","call-function","297","1543938","0.0-297.0","vzogssju","","","","","","","",""
"null","","","html-keyboard-response","298","1545445","0.0-298.0","vzogssju","","<span style=""color:Black; font-size:50px;"">Agent A","null","","","","",""
"null","","","video-keyboard-response","299","1548515","0.0-299.0","vzogssju","","","null","","Agent A","scrambled","STIM_SET_2/1159427.bmp_pp98_L1_V1.0_scrambled_freeview_isoTrue.mp4",""
"null","","","html-keyboard-response","300","1550019","0.0-300.0","vzogssju","","<span style=""color:Black; font-size:50px;"">Agent B","null","","","","",""
"null","","","video-keyboard-response","301","1553077","0.0-301.0","vzogssju","","","null","","Agent B","veridical","STIM_SET_2/1159427.bmp_pp98_L1_V1.0_veridical_freeview_isoTrue.mp4",""
"","","","call-function","302","1553078","0.0-302.0","vzogssju","","","","","","","",""
"2049.1699999999255","{""judgement"":1}","[0]","survey-likert","303","1555128","0.0-303.0","vzogssju","","","","","","","","1"
"2084.094999999972","{""confidence"":1}","[0]","survey-likert","304","1557213","0.0-304.0","vzogssju","","","","","","","",""
"","","","call-function","305","1557214","0.0-305.0","vzogssju","","","","","","","",""
"null","","","html-keyboard-response","306","1558716","0.0-306.0","vzogssju","","<span style=""color:Black; font-size:50px;"">Agent A","null","","","","",""
"null","","","video-keyboard-response","307","1561817","0.0-307.0","vzogssju","","","null","","Agent A","veridical","STIM_SET_2/498372.bmp_pp95_L2_V1_veridical_freeview_isoTrue.mp4",""
"null","","","html-keyboard-response","308","1563320","0.0-308.0","vzogssju","","<span style=""color:Black; font-size:50px;"">Agent B","null","","","","",""
"null","","","video-keyboard-response","309","1566422","0.0-309.0","vzogssju","","","null","","Agent B","scrambled","STIM_SET_2/498372.bmp_pp95_L2_V1_scrambled_freeview_isoTrue.mp4",""
"","","","call-function","310","1566423","0.0-310.0","vzogssju","","","","","","","",""
"2858.4300000001676","{""judgement"":0}","[0]","survey-likert","311","1569283","0.0-311.0","vzogssju","","","","","","","","0"
"3518.965000000084","{""confidence"":1}","[0]","survey-likert","312","1572803","0.0-312.0","vzogssju","","","","","","","",""
"","","","call-function","313","1572803","0.0-313.0","vzogssju","","","","","","","",""
"null","","","html-keyboard-response","314","1574305","0.0-314.0","vzogssju","","<span style=""color:Black; font-size:50px;"">Agent A","null","","","","",""
"null","","","video-keyboard-response","315","1577404","0.0-315.0","vzogssju","","","null","","Agent A","scrambled","STIM_SET_2/1592150.bmp_pp77_L3_V1.0_scrambled_freeview_isoTrue.mp4",""
"null","","","html-keyboard-response","316","1578908","0.0-316.0","vzogssju","","<span style=""color:Black; font-size:50px;"">Agent B","null","","","","",""
"null","","","video-keyboard-response","317","1582001","0.0-317.0","vzogssju","","","null","","Agent B","veridical","STIM_SET_2/1592150.bmp_pp77_L3_V1.0_veridical_freeview_isoTrue.mp4",""
"","","","call-function","318","1582002","0.0-318.0","vzogssju","","","","","","","",""
"2437.089999999851","{""judgement"":1}","[0]","survey-likert","319","1584440","0.0-319.0","vzogssju","","","","","","","","1"
"1662.7049999998417","{""confidence"":2}","[0]","survey-likert","320","1586104","0.0-320.0","vzogssju","","","","","","","",""
"","","","call-function","321","1586104","0.0-321.0","vzogssju","","","","","","","",""
"null","","","html-keyboard-response","322","1587607","0.0-322.0","vzogssju","","<span style=""color:Black; font-size:50px;"">Agent A","null","","","","",""
"null","","","video-keyboard-response","323","1590707","0.0-323.0","vzogssju","","","null","","Agent A","veridical","STIM_SET_2/1591920.bmp_pp97_L3_V1_veridical_freeview_isoTrue.mp4",""
"null","","","html-keyboard-response","324","1592213","0.0-324.0","vzogssju","","<span style=""color:Black; font-size:50px;"">Agent B","null","","","","",""
"null","","","video-keyboard-response","325","1595282","0.0-325.0","vzogssju","","","null","","Agent B","scrambled","STIM_SET_2/1591920.bmp_pp97_L3_V1_scrambled_freeview_isoTrue.mp4",""
"","","","call-function","326","1595283","0.0-326.0","vzogssju","","","","","","","",""
"1341.9099999999162","{""judgement"":0}","[0]","survey-likert","327","1596626","0.0-327.0","vzogssju","","","","","","","","0"
"1556.4150000000373","{""confidence"":2}","[0]","survey-likert","328","1598184","0.0-328.0","vzogssju","","","","","","","",""
"","","","call-function","329","1598186","0.0-329.0","vzogssju","","","","","","","",""
"null","","","html-keyboard-response","330","1599689","0.0-330.0","vzogssju","","<span style=""color:Black; font-size:50px;"">Agent A","null","","","","",""
"null","","","video-keyboard-response","331","1602752","0.0-331.0","vzogssju","","","null","","Agent A","veridical","STIM_SET_2/1592567.bmp_pp70_L2_V1.0_veridical_freeview_isoTrue.mp4",""
"null","","","html-keyboard-response","332","1604255","0.0-332.0","vzogssju","","<span style=""color:Black; font-size:50px;"">Agent B","null","","","","",""
"null","","","video-keyboard-response","333","1607320","0.0-333.0","vzogssju","","","null","","Agent B","scrambled","STIM_SET_2/1592567.bmp_pp70_L2_V1.0_scrambled_freeview_isoTrue.mp4",""
"","","","call-function","334","1607321","0.0-334.0","vzogssju","","","","","","","",""
"1310.1850000000559","{""judgement"":0}","[0]","survey-likert","335","1608632","0.0-335.0","vzogssju","","","","","","","","0"
"2635.804999999935","{""confidence"":1}","[0]","survey-likert","336","1611269","0.0-336.0","vzogssju","","","","","","","",""
"2933.725000000093","","","instructions","337","1614204","0.0-337.0","vzogssju","[{""page_index"":0,""viewing_time"":1527.4850000001024},{""page_index"":1,""viewing_time"":841.0400000000373},{""page_index"":2,""viewing_time"":564.9949999998789}]","","","","","","",""
"2640.524999999907","","","instructions","338","1616845","0.0-338.0","vzogssju","[{""page_index"":0,""viewing_time"":1041.8899999998976},{""page_index"":1,""viewing_time"":1059.3049999999348},{""page_index"":2,""viewing_time"":539.2250000000931}]","","","","","","",""
"","","","call-function","339","1616845","0.0-339.0","vzogssju","","","","","","","",""
"null","","","html-keyboard-response","340","1618351","0.0-340.0","vzogssju","","<span style=""color:Black; font-size:50px;"">Agent A","null","","","","",""
"null","","","video-keyboard-response","341","1621423","0.0-341.0","vzogssju","","","null","","Agent A","veridical","STIM_SET_2/1159973.bmp_pp98_L1_V1.0_veridical_freeview_isoTrue.mp4",""
"null","","","html-keyboard-response","342","1622926","0.0-342.0","vzogssju","","<span style=""color:Black; font-size:50px;"">Agent B","null","","","","",""
"null","","","video-keyboard-response","343","1625997","0.0-343.0","vzogssju","","","null","","Agent B","scrambled","STIM_SET_2/1159973.bmp_pp98_L1_V1.0_scrambled_freeview_isoTrue.mp4",""
"","","","call-function","344","1625997","0.0-344.0","vzogssju","","","","","","","",""
"2585.7349999998696","{""judgement"":0}","[0]","survey-likert","345","1628584","0.0-345.0","vzogssju","","","","","","","","0"
"1508.1450000000186","{""confidence"":1}","[0]","survey-likert","346","1630093","0.0-346.0","vzogssju","","","","","","","",""
"","","","call-function","347","1630094","0.0-347.0","vzogssju","","","","","","","",""
"null","","","html-keyboard-response","348","1631599","0.0-348.0","vzogssju","","<span style=""color:Black; font-size:50px;"">Agent A","null","","","","",""
"null","","","video-keyboard-response","349","1634704","0.0-349.0","vzogssju","","","null","","Agent A","scrambled","STIM_SET_2/498261.bmp_pp84_L3_V1.0_scrambled_freeview_isoTrue.mp4",""
"null","","","html-keyboard-response","350","1636210","0.0-350.0","vzogssju","","<span style=""color:Black; font-size:50px;"">Agent B","null","","","","",""
"null","","","video-keyboard-response","351","1639310","0.0-351.0","vzogssju","","","null","","Agent B","veridical","STIM_SET_2/498261.bmp_pp84_L3_V1.0_veridical_freeview_isoTrue.mp4",""
"","","","call-function","352","1639311","0.0-352.0","vzogssju","","","","","","","",""
"1856.7049999998417","{""judgement"":0}","[0]","survey-likert","353","1641169","0.0-353.0","vzogssju","","","","","","","","1"
"2678.559999999823","{""confidence"":0}","[0]","survey-likert","354","1643849","0.0-354.0","vzogssju","","","","","","","",""
"","","","call-function","355","1643849","0.0-355.0","vzogssju","","","","","","","",""
"null","","","html-keyboard-response","356","1645356","0.0-356.0","vzogssju","","<span style=""color:Black; font-size:50px;"">Agent A","null","","","","",""
"null","","","video-keyboard-response","357","1648455","0.0-357.0","vzogssju","","","null","","Agent A","scrambled","STIM_SET_2/1592044.bmp_pp94_L2_V1.0_scrambled_freeview_isoTrue.mp4",""
"null","","","html-keyboard-response","358","1649956","0.0-358.0","vzogssju","","<span style=""color:Black; font-size:50px;"">Agent B","null","","","","",""
"null","","","video-keyboard-response","359","1653053","0.0-359.0","vzogssju","","","null","","Agent B","veridical","STIM_SET_2/1592044.bmp_pp94_L2_V1.0_veridical_freeview_isoTrue.mp4",""
"","","","call-function","360","1653054","0.0-360.0","vzogssju","","","","","","","",""
"1556.6899999999441","{""judgement"":1}","[0]","survey-likert","361","1654611","0.0-361.0","vzogssju","","","","","","","","1"
"1232.3999999999069","{""confidence"":2}","[0]","survey-likert","362","1655845","0.0-362.0","vzogssju","","","","","","","",""
"","","","call-function","363","1655845","0.0-363.0","vzogssju","","","","","","","",""
"null","","","html-keyboard-response","364","1657351","0.0-364.0","vzogssju","","<span style=""color:Black; font-size:50px;"">Agent A","null","","","","",""
"null","","","video-keyboard-response","365","1660441","0.0-365.0","vzogssju","","","null","","Agent A","veridical","STIM_SET_2/285946.bmp_pp79_L2_V1.0_veridical_freeview_isoTrue.mp4",""
"null","","","html-keyboard-response","366","1661945","0.0-366.0","vzogssju","","<span style=""color:Black; font-size:50px;"">Agent B","null","","","","",""
"null","","","video-keyboard-response","367","1665031","0.0-367.0","vzogssju","","","null","","Agent B","scrambled","STIM_SET_2/285946.bmp_pp79_L2_V1.0_scrambled_freeview_isoTrue.mp4",""
"","","","call-function","368","1665031","0.0-368.0","vzogssju","","","","","","","",""
"2068.7000000001863","{""judgement"":0}","[0]","survey-likert","369","1667101","0.0-369.0","vzogssju","","","","","","","","0"
"2272.719999999972","{""confidence"":2}","[0]","survey-likert","370","1669375","0.0-370.0","vzogssju","","","","","","","",""
"","","","call-function","371","1669375","0.0-371.0","vzogssju","","","","","","","",""
"null","","","html-keyboard-response","372","1670881","0.0-372.0","vzogssju","","<span style=""color:Black; font-size:50px;"">Agent A","null","","","","",""
"null","","","video-keyboard-response","373","1673942","0.0-373.0","vzogssju","","","null","","Agent A","scrambled","STIM_SET_2/285715.bmp_pp67_L2_V1.0_scrambled_freeview_isoTrue.mp4",""
"null","","","html-keyboard-response","374","1675446","0.0-374.0","vzogssju","","<span style=""color:Black; font-size:50px;"">Agent B","null","","","","",""
"null","","","video-keyboard-response","375","1678513","0.0-375.0","vzogssju","","","null","","Agent B","veridical","STIM_SET_2/285715.bmp_pp67_L2_V1.0_veridical_freeview_isoTrue.mp4",""
"","","","call-function","376","1678515","0.0-376.0","vzogssju","","","","","","","",""
"3606.035000000149","{""judgement"":1}","[0]","survey-likert","377","1682122","0.0-377.0","vzogssju","","","","","","","","1"
"2499.4499999999534","{""confidence"":1}","[0]","survey-likert","378","1684623","0.0-378.0","vzogssju","","","","","","","",""
"","","","call-function","379","1684624","0.0-379.0","vzogssju","","","","","","","",""
"null","","","html-keyboard-response","380","1686126","0.0-380.0","vzogssju","","<span style=""color:Black; font-size:50px;"">Agent A","null","","","","",""
"null","","","video-keyboard-response","381","1689201","0.0-381.0","vzogssju","","","null","","Agent A","scrambled","STIM_SET_2/498025.bmp_pp81_L1_V1.0_scrambled_freeview_isoTrue.mp4",""
"null","","","html-keyboard-response","382","1690707","0.0-382.0","vzogssju","","<span style=""color:Black; font-size:50px;"">Agent B","null","","","","",""
"null","","","video-keyboard-response","383","1693783","0.0-383.0","vzogssju","","","null","","Agent B","veridical","STIM_SET_2/498025.bmp_pp81_L1_V1.0_veridical_freeview_isoTrue.mp4",""
"","","","call-function","384","1693784","0.0-384.0","vzogssju","","","","","","","",""
"2721.5200000000186","{""judgement"":1}","[0]","survey-likert","385","1696506","0.0-385.0","vzogssju","","","","","","","","1"
"2515.774999999907","{""confidence"":0}","[0]","survey-likert","386","1699024","0.0-386.0","vzogssju","","","","","","","",""
"","","","call-function","387","1699024","0.0-387.0","vzogssju","","","","","","","",""
"null","","","html-keyboard-response","388","1700526","0.0-388.0","vzogssju","","<span style=""color:Black; font-size:50px;"">Agent A","null","","","","",""
"null","","","video-keyboard-response","389","1703594","0.0-389.0","vzogssju","","","null","","Agent A","scrambled","STIM_SET_2/1592857.bmp_pp52_L1_V1_scrambled_freeview_isoTrue.mp4",""
"null","","","html-keyboard-response","390","1705097","0.0-390.0","vzogssju","","<span style=""color:Black; font-size:50px;"">Agent B","null","","","","",""
"null","","","video-keyboard-response","391","1708194","0.0-391.0","vzogssju","","","null","","Agent B","veridical","STIM_SET_2/1592857.bmp_pp52_L1_V1_veridical_freeview_isoTrue.mp4",""
"","","","call-function","392","1708194","0.0-392.0","vzogssju","","","","","","","",""
"2156.8950000000186","{""judgement"":0}","[0]","survey-likert","393","1710352","0.0-393.0","vzogssju","","","","","","","","1"
"1848.9099999999162","{""confidence"":1}","[0]","survey-likert","394","1712202","0.0-394.0","vzogssju","","","","","","","",""
"","","","call-function","395","1712203","0.0-395.0","vzogssju","","","","","","","",""
"null","","","html-keyboard-response","396","1713705","0.0-396.0","vzogssju","","<span style=""color:Black; font-size:50px;"">Agent A","null","","","","",""
"null","","","video-keyboard-response","397","1716809","0.0-397.0","vzogssju","","","null","","Agent A","veridical","STIM_SET_2/713381.bmp_pp82_L2_V1.0_veridical_freeview_isoTrue.mp4",""
"null","","","html-keyboard-response","398","1718310","0.0-398.0","vzogssju","","<span style=""color:Black; font-size:50px;"">Agent B","null","","","","",""
"null","","","video-keyboard-response","399","1721414","0.0-399.0","vzogssju","","","null","","Agent B","scrambled","STIM_SET_2/713381.bmp_pp82_L2_V1.0_scrambled_freeview_isoTrue.mp4",""
"","","","call-function","400","1721414","0.0-400.0","vzogssju","","","","","","","",""
"2099.2399999999907","{""judgement"":1}","[0]","survey-likert","401","1723514","0.0-401.0","vzogssju","","","","","","","","0"
"1241.3500000000931","{""confidence"":2}","[0]","survey-likert","402","1724757","0.0-402.0","vzogssju","","","","","","","",""
"","","","call-function","403","1724758","0.0-403.0","vzogssju","","","","","","","",""
"null","","","html-keyboard-response","404","1726261","0.0-404.0","vzogssju","","<span style=""color:Black; font-size:50px;"">Agent A","null","","","","",""
"null","","","video-keyboard-response","405","1729365","0.0-405.0","vzogssju","","","null","","Agent A","veridical","STIM_SET_2/713920.bmp_pp76_L1_V1.0_veridical_freeview_isoTrue.mp4",""
"null","","","html-keyboard-response","406","1730869","0.0-406.0","vzogssju","","<span style=""color:Black; font-size:50px;"">Agent B","null","","","","",""
"null","","","video-keyboard-response","407","1733971","0.0-407.0","vzogssju","","","null","","Agent B","scrambled","STIM_SET_2/713920.bmp_pp76_L1_V1.0_scrambled_freeview_isoTrue.mp4",""
"","","","call-function","408","1733972","0.0-408.0","vzogssju","","","","","","","",""
"1837.1949999998324","{""judgement"":1}","[0]","survey-likert","409","1735811","0.0-409.0","vzogssju","","","","","","","","0"
"1827.0500000000466","{""confidence"":1}","[0]","survey-likert","410","1737639","0.0-410.0","vzogssju","","","","","","","",""
"","","","call-function","411","1737640","0.0-411.0","vzogssju","","","","","","","",""
"null","","","html-keyboard-response","412","1739144","0.0-412.0","vzogssju","","<span style=""color:Black; font-size:50px;"">Agent A","null","","","","",""
"null","","","video-keyboard-response","413","1742220","0.0-413.0","vzogssju","","","null","","Agent A","veridical","STIM_SET_2/1159592.bmp_pp91_L3_V1.0_veridical_freeview_isoTrue.mp4",""
"null","","","html-keyboard-response","414","1743724","0.0-414.0","vzogssju","","<span style=""color:Black; font-size:50px;"">Agent B","null","","","","",""
"null","","","video-keyboard-response","415","1746803","0.0-415.0","vzogssju","","","null","","Agent B","scrambled","STIM_SET_2/1159592.bmp_pp91_L3_V1.0_scrambled_freeview_isoTrue.mp4",""
"","","","call-function","416","1746804","0.0-416.0","vzogssju","","","","","","","",""
"4829.764999999898","{""judgement"":0}","[0]","survey-likert","417","1751635","0.0-417.0","vzogssju","","","","","","","","0"
"1474.8999999999069","{""confidence"":1}","[0]","survey-likert","418","1753111","0.0-418.0","vzogssju","","","","","","","",""
"3313.25","","","instructions","419","1756425","0.0-419.0","vzogssju","[{""page_index"":0,""viewing_time"":2384.125},{""page_index"":1,""viewing_time"":480.875},{""page_index"":2,""viewing_time"":448.05000000004657}]","","","","","","",""
"1307.2600000000093","","","instructions","420","1757733","0.0-420.0","vzogssju","[{""page_index"":0,""viewing_time"":440.24500000011176},{""page_index"":1,""viewing_time"":397.1199999998789},{""page_index"":2,""viewing_time"":469.785000000149}]","","","","","","",""
"","","","call-function","421","1757733","0.0-421.0","vzogssju","","","","","","","",""
"null","","","html-keyboard-response","422","1759235","0.0-422.0","vzogssju","","<span style=""color:Black; font-size:50px;"">Agent A","null","","","","",""
"null","","","video-keyboard-response","423","1762316","0.0-423.0","vzogssju","","","null","","Agent A","veridical","STIM_SET_2/285959.bmp_pp93_L1_V1.0_veridical_freeview_isoTrue.mp4",""
"null","","","html-keyboard-response","424","1763823","0.0-424.0","vzogssju","","<span style=""color:Black; font-size:50px;"">Agent B","null","","","","",""
"null","","","video-keyboard-response","425","1766902","0.0-425.0","vzogssju","","","null","","Agent B","scrambled","STIM_SET_2/285959.bmp_pp93_L1_V1.0_scrambled_freeview_isoTrue.mp4",""
"","","","call-function","426","1766902","0.0-426.0","vzogssju","","","","","","","",""
"2264.1649999998044","{""judgement"":0}","[0]","survey-likert","427","1769167","0.0-427.0","vzogssju","","","","","","","","0"
"1052.0150000001304","{""confidence"":1}","[0]","survey-likert","428","1770220","0.0-428.0","vzogssju","","","","","","","",""
"","","","call-function","429","1770221","0.0-429.0","vzogssju","","","","","","","",""
"null","","","html-keyboard-response","430","1771723","0.0-430.0","vzogssju","","<span style=""color:Black; font-size:50px;"">Agent A","null","","","","",""
"null","","","video-keyboard-response","431","1774830","0.0-431.0","vzogssju","","","null","","Agent A","veridical","STIM_SET_2/1592168.bmp_pp71_L1_V1.0_veridical_freeview_isoTrue.mp4",""
"null","","","html-keyboard-response","432","1776332","0.0-432.0","vzogssju","","<span style=""color:Black; font-size:50px;"">Agent B","null","","","","",""
"null","","","video-keyboard-response","433","1779401","0.0-433.0","vzogssju","","","null","","Agent B","scrambled","STIM_SET_2/1592168.bmp_pp71_L1_V1.0_scrambled_freeview_isoTrue.mp4",""
"","","","call-function","434","1779402","0.0-434.0","vzogssju","","","","","","","",""
"2109.844999999972","{""judgement"":1}","[0]","survey-likert","435","1781512","0.0-435.0","vzogssju","","","","","","","","0"
"2407.0749999999534","{""confidence"":0}","[0]","survey-likert","436","1783921","0.0-436.0","vzogssju","","","","","","","",""
"","","","call-function","437","1783921","0.0-437.0","vzogssju","","","","","","","",""
"null","","","html-keyboard-response","438","1785426","0.0-438.0","vzogssju","","<span style=""color:Black; font-size:50px;"">Agent A","null","","","","",""
"null","","","video-keyboard-response","439","1788523","0.0-439.0","vzogssju","","","null","","Agent A","veridical","STIM_SET_2/285684.bmp_pp80_L3_V1.0_veridical_freeview_isoTrue.mp4",""
"null","","","html-keyboard-response","440","1790029","0.0-440.0","vzogssju","","<span style=""color:Black; font-size:50px;"">Agent B","null","","","","",""
"null","","","video-keyboard-response","441","1793123","0.0-441.0","vzogssju","","","null","","Agent B","scrambled","STIM_SET_2/285684.bmp_pp80_L3_V1.0_scrambled_freeview_isoTrue.mp4",""
"","","","call-function","442","1793123","0.0-442.0","vzogssju","","","","","","","",""
"2840.404999999795","{""judgement"":1}","[0]","survey-likert","443","1795965","0.0-443.0","vzogssju","","","","","","","","0"
"1922.3950000000186","{""confidence"":2}","[0]","survey-likert","444","1797889","0.0-444.0","vzogssju","","","","","","","",""
"","","","call-function","445","1797889","0.0-445.0","vzogssju","","","","","","","",""
"null","","","html-keyboard-response","446","1799396","0.0-446.0","vzogssju","","<span style=""color:Black; font-size:50px;"">Agent A","null","","","","",""
"null","","","video-keyboard-response","447","1802476","0.0-447.0","vzogssju","","","null","","Agent A","veridical","STIM_SET_2/498398.bmp_pp81_L1_V1.0_veridical_freeview_isoTrue.mp4",""
"null","","","html-keyboard-response","448","1803980","0.0-448.0","vzogssju","","<span style=""color:Black; font-size:50px;"">Agent B","null","","","","",""
"null","","","video-keyboard-response","449","1807041","0.0-449.0","vzogssju","","","null","","Agent B","scrambled","STIM_SET_2/498398.bmp_pp81_L1_V1.0_scrambled_freeview_isoTrue.mp4",""
"","","","call-function","450","1807042","0.0-450.0","vzogssju","","","","","","","",""
"2234.5149999998976","{""judgement"":1}","[0]","survey-likert","451","1809278","0.0-451.0","vzogssju","","","","","","","","0"
"1354.494999999879","{""confidence"":0}","[0]","survey-likert","452","1810634","0.0-452.0","vzogssju","","","","","","","",""
"","","","call-function","453","1810634","0.0-453.0","vzogssju","","","","","","","",""
"null","","","html-keyboard-response","454","1812139","0.0-454.0","vzogssju","","<span style=""color:Black; font-size:50px;"">Agent A","null","","","","",""
"null","","","video-keyboard-response","455","1815217","0.0-455.0","vzogssju","","","null","","Agent A","scrambled","STIM_SET_2/1592530.bmp_pp75_L1_V1.0_scrambled_freeview_isoTrue.mp4",""
"null","","","html-keyboard-response","456","1816721","0.0-456.0","vzogssju","","<span style=""color:Black; font-size:50px;"">Agent B","null","","","","",""
"null","","","video-keyboard-response","457","1819819","0.0-457.0","vzogssju","","","null","","Agent B","veridical","STIM_SET_2/1592530.bmp_pp75_L1_V1.0_veridical_freeview_isoTrue.mp4",""
"","","","call-function","458","1819821","0.0-458.0","vzogssju","","","","","","","",""
"2245.6049999999814","{""judgement"":0}","[0]","survey-likert","459","1822068","0.0-459.0","vzogssju","","","","","","","","1"
"1434.2849999999162","{""confidence"":1}","[0]","survey-likert","460","1823504","0.0-460.0","vzogssju","","","","","","","",""
"","","","call-function","461","1823504","0.0-461.0","vzogssju","","","","","","","",""
"null","","","html-keyboard-response","462","1825006","0.0-462.0","vzogssju","","<span style=""color:Black; font-size:50px;"">Agent A","null","","","","",""
"null","","","video-keyboard-response","463","1828085","0.0-463.0","vzogssju","","","null","","Agent A","veridical","STIM_SET_2/107909.bmp_pp95_L2_V1.0_veridical_freeview_isoTrue.mp4",""
"null","","","html-keyboard-response","464","1829591","0.0-464.0","vzogssju","","<span style=""color:Black; font-size:50px;"">Agent B","null","","","","",""
"null","","","video-keyboard-response","465","1832672","0.0-465.0","vzogssju","","","null","","Agent B","scrambled","STIM_SET_2/107909.bmp_pp95_L2_V1.0_scrambled_freeview_isoTrue.mp4",""
"","","","call-function","466","1832674","0.0-466.0","vzogssju","","","","","","","",""
"3025.7099999999627","{""judgement"":0}","[0]","survey-likert","467","1835700","0.0-467.0","vzogssju","","","","","","","","0"
"1397.719999999972","{""confidence"":1}","[0]","survey-likert","468","1837100","0.0-468.0","vzogssju","","","","","","","",""
"","","","call-function","469","1837100","0.0-469.0","vzogssju","","","","","","","",""
"null","","","html-keyboard-response","470","1838602","0.0-470.0","vzogssju","","<span style=""color:Black; font-size:50px;"">Agent A","null","","","","",""
"null","","","video-keyboard-response","471","1841677","0.0-471.0","vzogssju","","","null","","Agent A","scrambled","STIM_SET_2/713788.bmp_pp52_L1_V1.0_scrambled_freeview_isoTrue.mp4",""
"null","","","html-keyboard-response","472","1843180","0.0-472.0","vzogssju","","<span style=""color:Black; font-size:50px;"">Agent B","null","","","","",""
"null","","","video-keyboard-response","473","1846253","0.0-473.0","vzogssju","","","null","","Agent B","veridical","STIM_SET_2/713788.bmp_pp52_L1_V1.0_veridical_freeview_isoTrue.mp4",""
"","","","call-function","474","1846254","0.0-474.0","vzogssju","","","","","","","",""
"2599.189999999944","{""judgement"":1}","[0]","survey-likert","475","1848854","0.0-475.0","vzogssju","","","","","","","","1"
"1902.2749999999069","{""confidence"":2}","[0]","survey-likert","476","1850758","0.0-476.0","vzogssju","","","","","","","",""
"","","","call-function","477","1850758","0.0-477.0","vzogssju","","","","","","","",""
"null","","","html-keyboard-response","478","1852263","0.0-478.0","vzogssju","","<span style=""color:Black; font-size:50px;"">Agent A","null","","","","",""
"null","","","video-keyboard-response","479","1855341","0.0-479.0","vzogssju","","","null","","Agent A","scrambled","STIM_SET_2/1592747.bmp_pp53_L2_V1.0_scrambled_freeview_isoTrue.mp4",""
"null","","","html-keyboard-response","480","1856842","0.0-480.0","vzogssju","","<span style=""color:Black; font-size:50px;"">Agent B","null","","","","",""
"null","","","video-keyboard-response","481","1859947","0.0-481.0","vzogssju","","","null","","Agent B","veridical","STIM_SET_2/1592747.bmp_pp53_L2_V1.0_veridical_freeview_isoTrue.mp4",""
"","","","call-function","482","1859948","0.0-482.0","vzogssju","","","","","","","",""
"1963.404999999795","{""judgement"":1}","[0]","survey-likert","483","1861912","0.0-483.0","vzogssju","","","","","","","","1"
"1583.1799999999348","{""confidence"":2}","[0]","survey-likert","484","1863497","0.0-484.0","vzogssju","","","","","","","",""
"","","","call-function","485","1863497","0.0-485.0","vzogssju","","","","","","","",""
"null","","","html-keyboard-response","486","1864999","0.0-486.0","vzogssju","","<span style=""color:Black; font-size:50px;"">Agent A","null","","","","",""
"null","","","video-keyboard-response","487","1868109","0.0-487.0","vzogssju","","","null","","Agent A","veridical","STIM_SET_2/1592568.bmp_pp71_L1_V1.0_veridical_freeview_isoTrue.mp4",""
"null","","","html-keyboard-response","488","1869615","0.0-488.0","vzogssju","","<span style=""color:Black; font-size:50px;"">Agent B","null","","","","",""
"null","","","video-keyboard-response","489","1872721","0.0-489.0","vzogssju","","","null","","Agent B","scrambled","STIM_SET_2/1592568.bmp_pp71_L1_V1.0_scrambled_freeview_isoTrue.mp4",""
"","","","call-function","490","1872721","0.0-490.0","vzogssju","","","","","","","",""
"2791.1350000000093","{""judgement"":0}","[0]","survey-likert","491","1875513","0.0-491.0","vzogssju","","","","","","","","0"
"1071.8999999999069","{""confidence"":1}","[0]","survey-likert","492","1876586","0.0-492.0","vzogssju","","","","","","","",""
"","","","call-function","493","1876587","0.0-493.0","vzogssju","","","","","","","",""
"null","","","html-keyboard-response","494","1878088","0.0-494.0","vzogssju","","<span style=""color:Black; font-size:50px;"">Agent A","null","","","","",""
"null","","","video-keyboard-response","495","1881185","0.0-495.0","vzogssju","","","null","","Agent A","scrambled","STIM_SET_2/1591975.bmp_pp88_L2_V1.0_scrambled_freeview_isoTrue.mp4",""
"null","","","html-keyboard-response","496","1882686","0.0-496.0","vzogssju","","<span style=""color:Black; font-size:50px;"">Agent B","null","","","","",""
"null","","","video-keyboard-response","497","1885780","0.0-497.0","vzogssju","","","null","","Agent B","veridical","STIM_SET_2/1591975.bmp_pp88_L2_V1.0_veridical_freeview_isoTrue.mp4",""
"","","","call-function","498","1885781","0.0-498.0","vzogssju","","","","","","","",""
"2390.2999999998137","{""judgement"":1}","[0]","survey-likert","499","1888173","0.0-499.0","vzogssju","","","","","","","","1"
"1337.5649999999441","{""confidence"":1}","[0]","survey-likert","500","1889512","0.0-500.0","vzogssju","","","","","","","",""
"2613.2299999999814","","","instructions","501","1892126","0.0-501.0","vzogssju","[{""page_index"":0,""viewing_time"":1887.2150000000838},{""page_index"":1,""viewing_time"":418.7849999999162},{""page_index"":2,""viewing_time"":307.07499999995343}]","","","","","","",""
"443605.5299999998","","","instructions","502","2335733","0.0-502.0","vzogssju","[{""page_index"":0,""viewing_time"":441980.41000000015},{""page_index"":1,""viewing_time"":1191.8899999996647},{""page_index"":2,""viewing_time"":433.07500000018626}]","","","","","","",""
"","","","call-function","503","2335735","0.0-503.0","vzogssju","","","","","","","",""
"null","","","html-keyboard-response","504","2337237","0.0-504.0","vzogssju","","<span style=""color:Black; font-size:50px;"">Agent A","null","","","","",""
"null","","","video-keyboard-response","505","2340313","0.0-505.0","vzogssju","","","null","","Agent A","scrambled","STIM_SET_2/498396.bmp_pp99_L2_V1.0_scrambled_freeview_isoTrue.mp4",""
"null","","","html-keyboard-response","506","2341815","0.0-506.0","vzogssju","","<span style=""color:Black; font-size:50px;"">Agent B","null","","","","",""
"null","","","video-keyboard-response","507","2344890","0.0-507.0","vzogssju","","","null","","Agent B","veridical","STIM_SET_2/498396.bmp_pp99_L2_V1.0_veridical_freeview_isoTrue.mp4",""
"","","","call-function","508","2344891","0.0-508.0","vzogssju","","","","","","","",""
"2241.5949999997392","{""judgement"":1}","[0]","survey-likert","509","2347134","0.0-509.0","vzogssju","","","","","","","","1"
"1157.720000000205","{""confidence"":2}","[0]","survey-likert","510","2348293","0.0-510.0","vzogssju","","","","","","","",""
"","","","call-function","511","2348294","0.0-511.0","vzogssju","","","","","","","",""
"null","","","html-keyboard-response","512","2349796","0.0-512.0","vzogssju","","<span style=""color:Black; font-size:50px;"">Agent A","null","","","","",""
"null","","","video-keyboard-response","513","2352864","0.0-513.0","vzogssju","","","null","","Agent A","scrambled","STIM_SET_2/285932.bmp_pp64_L1_V1.0_scrambled_freeview_isoTrue.mp4",""
"null","","","html-keyboard-response","514","2354365","0.0-514.0","vzogssju","","<span style=""color:Black; font-size:50px;"">Agent B","null","","","","",""
"null","","","video-keyboard-response","515","2357435","0.0-515.0","vzogssju","","","null","","Agent B","veridical","STIM_SET_2/285932.bmp_pp64_L1_V1.0_veridical_freeview_isoTrue.mp4",""
"","","","call-function","516","2357436","0.0-516.0","vzogssju","","","","","","","",""
"3326.5","{""judgement"":0}","[0]","survey-likert","517","2360763","0.0-517.0","vzogssju","","","","","","","","1"
"2452.1949999998324","{""confidence"":1}","[0]","survey-likert","518","2363217","0.0-518.0","vzogssju","","","","","","","",""
"","","","call-function","519","2363217","0.0-519.0","vzogssju","","","","","","","",""
"null","","","html-keyboard-response","520","2364719","0.0-520.0","vzogssju","","<span style=""color:Black; font-size:50px;"">Agent A","null","","","","",""
"null","","","video-keyboard-response","521","2367821","0.0-521.0","vzogssju","","","null","","Agent A","veridical","STIM_SET_2/1592025.bmp_pp68_L1_V1.0_veridical_freeview_isoTrue.mp4",""
"null","","","html-keyboard-response","522","2369324","0.0-522.0","vzogssju","","<span style=""color:Black; font-size:50px;"">Agent B","null","","","","",""
"null","","","video-keyboard-response","523","2372429","0.0-523.0","vzogssju","","","null","","Agent B","scrambled","STIM_SET_2/1592025.bmp_pp68_L1_V1.0_scrambled_freeview_isoTrue.mp4",""
"","","","call-function","524","2372430","0.0-524.0","vzogssju","","","","","","","",""
"1850.089999999851","{""judgement"":0}","[0]","survey-likert","525","2374281","0.0-525.0","vzogssju","","","","","","","","0"
"1267.0550000001676","{""confidence"":1}","[0]","survey-likert","526","2375549","0.0-526.0","vzogssju","","","","","","","",""
"","","","call-function","527","2375550","0.0-527.0","vzogssju","","","","","","","",""
"null","","","html-keyboard-response","528","2377053","0.0-528.0","vzogssju","","<span style=""color:Black; font-size:50px;"">Agent A","null","","","","",""
"null","","","video-keyboard-response","529","2380158","0.0-529.0","vzogssju","","","null","","Agent A","scrambled","STIM_SET_2/1159874.bmp_pp96_L2_V1.0_scrambled_freeview_isoTrue.mp4",""
"null","","","html-keyboard-response","530","2381664","0.0-530.0","vzogssju","","<span style=""color:Black; font-size:50px;"">Agent B","null","","","","",""
"null","","","video-keyboard-response","531","2384768","0.0-531.0","vzogssju","","","null","","Agent B","veridical","STIM_SET_2/1159874.bmp_pp96_L2_V1.0_veridical_freeview_isoTrue.mp4",""
"","","","call-function","532","2384770","0.0-532.0","vzogssju","","","","","","","",""
"3580.364999999758","{""judgement"":0}","[0]","survey-likert","533","2388352","0.0-533.0","vzogssju","","","","","","","","1"
"1169.3850000002421","{""confidence"":1}","[0]","survey-likert","534","2389523","0.0-534.0","vzogssju","","","","","","","",""
"","","","call-function","535","2389523","0.0-535.0","vzogssju","","","","","","","",""
"null","","","html-keyboard-response","536","2391026","0.0-536.0","vzogssju","","<span style=""color:Black; font-size:50px;"">Agent A","null","","","","",""
"null","","","video-keyboard-response","537","2394094","0.0-537.0","vzogssju","","","null","","Agent A","scrambled","STIM_SET_2/1159860.bmp_pp152_L2_V1.0_scrambled_freeview_isoTrue.mp4",""
"null","","","html-keyboard-response","538","2395600","0.0-538.0","vzogssju","","<span style=""color:Black; font-size:50px;"">Agent B","null","","","","",""
"null","","","video-keyboard-response","539","2398671","0.0-539.0","vzogssju","","","null","","Agent B","veridical","STIM_SET_2/1159860.bmp_pp152_L2_V1.0_veridical_freeview_isoTrue.mp4",""
"","","","call-function","540","2398672","0.0-540.0","vzogssju","","","","","","","",""
"1879.8199999998324","{""judgement"":0}","[0]","survey-likert","541","2400553","0.0-541.0","vzogssju","","","","","","","","1"
"1103.4849999998696","{""confidence"":1}","[0]","survey-likert","542","2401658","0.0-542.0","vzogssju","","","","","","","",""
"","","","call-function","543","2401659","0.0-543.0","vzogssju","","","","","","","",""
"null","","","html-keyboard-response","544","2403161","0.0-544.0","vzogssju","","<span style=""color:Black; font-size:50px;"">Agent A","null","","","","",""
"null","","","video-keyboard-response","545","2406233","0.0-545.0","vzogssju","","","null","","Agent A","veridical","STIM_SET_2/1159956.bmp_pp59_L3_V1.0_veridical_freeview_isoTrue.mp4",""
"null","","","html-keyboard-response","546","2407735","0.0-546.0","vzogssju","","<span style=""color:Black; font-size:50px;"">Agent B","null","","","","",""
"null","","","video-keyboard-response","547","2410809","0.0-547.0","vzogssju","","","null","","Agent B","scrambled","STIM_SET_2/1159956.bmp_pp59_L3_V1.0_scrambled_freeview_isoTrue.mp4",""
"","","","call-function","548","2410809","0.0-548.0","vzogssju","","","","","","","",""
"2018.4249999998137","{""judgement"":0}","[0]","survey-likert","549","2412829","0.0-549.0","vzogssju","","","","","","","","0"
"1342.5049999998882","{""confidence"":1}","[0]","survey-likert","550","2414173","0.0-550.0","vzogssju","","","","","","","",""
"","","","call-function","551","2414174","0.0-551.0","vzogssju","","","","","","","",""
"null","","","html-keyboard-response","552","2415676","0.0-552.0","vzogssju","","<span style=""color:Black; font-size:50px;"">Agent A","null","","","","",""
"null","","","video-keyboard-response","553","2418774","0.0-553.0","vzogssju","","","null","","Agent A","scrambled","STIM_SET_2/1159508.bmp_pp151_L1_V1.0_scrambled_freeview_isoTrue.mp4",""
"null","","","html-keyboard-response","554","2420279","0.0-554.0","vzogssju","","<span style=""color:Black; font-size:50px;"">Agent B","null","","","","",""
"null","","","video-keyboard-response","555","2423375","0.0-555.0","vzogssju","","","null","","Agent B","veridical","STIM_SET_2/1159508.bmp_pp151_L1_V1.0_veridical_freeview_isoTrue.mp4",""
"","","","call-function","556","2423375","0.0-556.0","vzogssju","","","","","","","",""
"2574.1550000002608","{""judgement"":1}","[0]","survey-likert","557","2425951","0.0-557.0","vzogssju","","","","","","","","1"
"1446.7150000003166","{""confidence"":0}","[0]","survey-likert","558","2427399","0.0-558.0","vzogssju","","","","","","","",""
"","","","call-function","559","2427399","0.0-559.0","vzogssju","","","","","","","",""
"null","","","html-keyboard-response","560","2428900","0.0-560.0","vzogssju","","<span style=""color:Black; font-size:50px;"">Agent A","null","","","","",""
"null","","","video-keyboard-response","561","2431998","0.0-561.0","vzogssju","","","null","","Agent A","veridical","STIM_SET_2/713829.bmp_pp60_L3_V1.0_veridical_freeview_isoTrue.mp4",""
"null","","","html-keyboard-response","562","2433501","0.0-562.0","vzogssju","","<span style=""color:Black; font-size:50px;"">Agent B","null","","","","",""
"null","","","video-keyboard-response","563","2436597","0.0-563.0","vzogssju","","","null","","Agent B","scrambled","STIM_SET_2/713829.bmp_pp60_L3_V1.0_scrambled_freeview_isoTrue.mp4",""
"","","","call-function","564","2436598","0.0-564.0","vzogssju","","","","","","","",""
"1698.6650000000373","{""judgement"":0}","[0]","survey-likert","565","2438298","0.0-565.0","vzogssju","","","","","","","","0"
"990.5800000000745","{""confidence"":1}","[0]","survey-likert","566","2439290","0.0-566.0","vzogssju","","","","","","","",""
"","","","call-function","567","2439291","0.0-567.0","vzogssju","","","","","","","",""
"null","","","html-keyboard-response","568","2440792","0.0-568.0","vzogssju","","<span style=""color:Black; font-size:50px;"">Agent A","null","","","","",""
"null","","","video-keyboard-response","569","2443858","0.0-569.0","vzogssju","","","null","","Agent A","scrambled","STIM_SET_2/1592017.bmp_pp154_L1_V1.0_scrambled_freeview_isoTrue.mp4",""
"null","","","html-keyboard-response","570","2445361","0.0-570.0","vzogssju","","<span style=""color:Black; font-size:50px;"">Agent B","null","","","","",""
"null","","","video-keyboard-response","571","2448433","0.0-571.0","vzogssju","","","null","","Agent B","veridical","STIM_SET_2/1592017.bmp_pp154_L1_V1.0_veridical_freeview_isoTrue.mp4",""
"","","","call-function","572","2448434","0.0-572.0","vzogssju","","","","","","","",""
"2237.339999999851","{""judgement"":0}","[0]","survey-likert","573","2450672","0.0-573.0","vzogssju","","","","","","","","1"
"1911.1349999997765","{""confidence"":1}","[0]","survey-likert","574","2452585","0.0-574.0","vzogssju","","","","","","","",""
"","","","call-function","575","2452586","0.0-575.0","vzogssju","","","","","","","",""
"null","","","html-keyboard-response","576","2454087","0.0-576.0","vzogssju","","<span style=""color:Black; font-size:50px;"">Agent A","null","","","","",""
"null","","","video-keyboard-response","577","2457155","0.0-577.0","vzogssju","","","null","","Agent A","scrambled","STIM_SET_2/1159392.bmp_pp96_L2_V1.0_scrambled_freeview_isoTrue.mp4",""
"null","","","html-keyboard-response","578","2458657","0.0-578.0","vzogssju","","<span style=""color:Black; font-size:50px;"">Agent B","null","","","","",""
"null","","","video-keyboard-response","579","2461722","0.0-579.0","vzogssju","","","null","","Agent B","veridical","STIM_SET_2/1159392.bmp_pp96_L2_V1.0_veridical_freeview_isoTrue.mp4",""
"","","","call-function","580","2461723","0.0-580.0","vzogssju","","","","","","","",""
"2952.8000000002794","{""judgement"":0}","[0]","survey-likert","581","2464677","0.0-581.0","vzogssju","","","","","","","","1"
"1206.0349999996834","{""confidence"":1}","[0]","survey-likert","582","2465884","0.0-582.0","vzogssju","","","","","","","",""
"2626.3849999997765","","","instructions","583","2468511","0.0-583.0","vzogssju","[{""page_index"":0,""viewing_time"":2626.0149999996647}]","","","","","","",""
"2765.510000000242","","","instructions","584","2471277","0.0-584.0","vzogssju","[{""page_index"":0,""viewing_time"":2765.4050000002608}]","","","","","","",""
"8693.260000000242","{""post-1"":1}","[0]","survey-likert","585","2479972","0.0-585.0","vzogssju","","","","","","","",""
"4019.7349999998696","{""post-1"":1}","[0]","survey-likert","586","2483993","0.0-586.0","vzogssju","","","","","","","",""
"14286.739999999758","{""post-2"":1}","[0]","survey-likert","587","2498281","0.0-587.0","vzogssju","","","","","","","",""
"2627.4449999998324","{""post-2"":1}","[0]","survey-likert","588","2500911","0.0-588.0","vzogssju","","","","","","","",""
"6470.814999999944","{""post-3"":1}","[0]","survey-likert","589","2507384","0.0-589.0","vzogssju","","","","","","","",""
"2030.3549999999814","{""post-3"":1}","[0]","survey-likert","590","2509416","0.0-590.0","vzogssju","","","","","","","",""
"14697.805000000168","{""post-4"":1}","[0]","survey-likert","591","2524115","0.0-591.0","vzogssju","","","","","","","",""
"3021.649999999907","{""post-4"":0}","[0]","survey-likert","592","2527138","0.0-592.0","vzogssju","","","","","","","",""
"4190.214999999851","{""post-5"":0}","[0]","survey-likert","593","2531329","0.0-593.0","vzogssju","","","","","","","",""
"1928.75","{""post-5"":2}","[0]","survey-likert","594","2533259","0.0-594.0","vzogssju","","","","","","","",""
"34382.935000000056","{""Q0"":""i was really confused at first, but after a while i felt as if I was able to discern between the fake agent and the human one""}","","survey-text","595","2567647","0.0-595.0","vzogssju","","","","","","","",""
"29039.040000000037","{""Q0"":""paying attention to the hotspots was easy. i didn't really have a strategy""}","","survey-text","596","2596691","0.0-596.0","vzogssju","","","","","","","",""
"19506.25","{""Q0"":""Remaining focused after the fourth chunk""}","","survey-text","597","2616200","0.0-597.0","vzogssju","","","","","","","",""
"1452.5400000000373","","","instructions","598","2617654","0.0-598.0","vzogssju","[{""page_index"":0,""viewing_time"":1452.3999999999069}]","","","","","","",""
"45721.595000000205","{""Experimenter_end"":[""Printed ID# vzogssju on consent form"",""Given subject SONA credit or payment"",""Given the subject debrief form""]}","[0]","survey-multi-select","599","2663377","0.0-599.0","vzogssju","","","","","","","",""
