"rt","responses","question_order","trial_type","trial_index","time_elapsed","internal_node_id","ID","view_history","stimulus","key_press","value","agent","condition","image","correct_answer"
"14253.78","{""Experimenter"":[""Confirmed subject's identity"",""Confirmed normal or corrected-to-normal vision"",""Obtained consent (signature and date)"",""Checked the test room lighting"",""Checked computer screen lighting"",""Checked distance from screen to chin rest (50cm)"",""Cleaned and adjusted chin rest"",""Counterbalanced the order of the tasks"",""Opened the experiment in Firefox"",""Made the experiment full screen"",""Encouraged subject to silence phone, put away distractors, etc.""]}","[0]","survey-multi-select","0","14263","0.0-0.0","w6xvdhgb","","","","","","","",""
"15551.34","","","instructions","1","29816","0.0-1.0","w6xvdhgb","[{""page_index"":0,""viewing_time"":15551.185000000001}]","","","","","","",""
"11370.929999999997","","","instructions","2","41187","0.0-2.0","w6xvdhgb","[{""page_index"":0,""viewing_time"":5139.204999999998},{""page_index"":1,""viewing_time"":1121.6949999999997},{""page_index"":2,""viewing_time"":5109.9100000000035}]","","","","","","",""
"2520.5999999999985","","","instructions","3","43708","0.0-3.0","w6xvdhgb","[{""page_index"":0,""viewing_time"":2520.4950000000026}]","","","","","","",""
"null","","","video-keyboard-response","4","46782","0.0-4.0","w6xvdhgb","","","null","","","","",""
"10479.945","","","instructions","5","57263","0.0-5.0","w6xvdhgb","[{""page_index"":0,""viewing_time"":1600.520000000004},{""page_index"":1,""viewing_time"":1874.0049999999974},{""page_index"":2,""viewing_time"":7005.305}]","","","","","","",""
"2790.2249999999985","","","instructions","6","60053","0.0-6.0","w6xvdhgb","[{""page_index"":0,""viewing_time"":2790.1200000000026}]","","","","","","",""
"1446.810000000005","","","instructions","7","61500","0.0-7.0","w6xvdhgb","[{""page_index"":0,""viewing_time"":1446.5900000000038}]","","","","","","",""
"null","","","video-keyboard-response","8","64575","0.0-8.0","w6xvdhgb","","","null","","","","",""
"9163.419999999998","","","instructions","9","73739","0.0-9.0","w6xvdhgb","[{""page_index"":0,""viewing_time"":966.0350000000035},{""page_index"":1,""viewing_time"":2625.8849999999948},{""page_index"":2,""viewing_time"":5571.354999999996}]","","","","","","",""
"5240.860000000001","","","instructions","10","78980","0.0-10.0","w6xvdhgb","[{""page_index"":0,""viewing_time"":5240.739999999991}]","","","","","","",""
"","","","call-function","11","78981","0.0-11.0","w6xvdhgb","","","","","","","",""
"null","","","html-keyboard-response","12","80487","0.0-12.0","w6xvdhgb","","<span style=""color:Black; font-size:50px;"">Agent A","null","","","","",""
"null","","","video-keyboard-response","13","83556","0.0-13.0","w6xvdhgb","","","null","","Agent A","veridical","STIM_SET_2/1592150.bmp_pp77_L3_V1.0_veridical_freeview_isoTrue.mp4",""
"null","","","html-keyboard-response","14","85059","0.0-14.0","w6xvdhgb","","<span style=""color:Black; font-size:50px;"">Agent B","null","","","","",""
"null","","","video-keyboard-response","15","88130","0.0-15.0","w6xvdhgb","","","null","","Agent B","scrambled","STIM_SET_2/1592150.bmp_pp77_L3_V1.0_scrambled_freeview_isoTrue.mp4",""
"","","","call-function","16","88131","0.0-16.0","w6xvdhgb","","","","","","","",""
"1868.9900000000052","{""judgement"":0}","[0]","survey-likert","17","90001","0.0-17.0","w6xvdhgb","","","","","","","","0"
"4764.005000000005","{""confidence"":1}","[0]","survey-likert","18","94766","0.0-18.0","w6xvdhgb","","","","","","","",""
"","","","call-function","19","94767","0.0-19.0","w6xvdhgb","","","","","","","",""
"null","","","html-keyboard-response","20","96273","0.0-20.0","w6xvdhgb","","<span style=""color:Black; font-size:50px;"">Agent A","null","","","","",""
"null","","","video-keyboard-response","21","99342","0.0-21.0","w6xvdhgb","","","null","","Agent A","scrambled","STIM_SET_2/1592025.bmp_pp68_L1_V1.0_scrambled_freeview_isoTrue.mp4",""
"null","","","html-keyboard-response","22","100848","0.0-22.0","w6xvdhgb","","<span style=""color:Black; font-size:50px;"">Agent B","null","","","","",""
"null","","","video-keyboard-response","23","103922","0.0-23.0","w6xvdhgb","","","null","","Agent B","veridical","STIM_SET_2/1592025.bmp_pp68_L1_V1.0_veridical_freeview_isoTrue.mp4",""
"","","","call-function","24","103922","0.0-24.0","w6xvdhgb","","","","","","","",""
"2105.375","{""judgement"":0}","[0]","survey-likert","25","106030","0.0-25.0","w6xvdhgb","","","","","","","","1"
"1348.2400000000052","{""confidence"":0}","[0]","survey-likert","26","107379","0.0-26.0","w6xvdhgb","","","","","","","",""
"","","","call-function","27","107380","0.0-27.0","w6xvdhgb","","","","","","","",""
"null","","","html-keyboard-response","28","108884","0.0-28.0","w6xvdhgb","","<span style=""color:Black; font-size:50px;"">Agent A","null","","","","",""
"null","","","video-keyboard-response","29","111956","0.0-29.0","w6xvdhgb","","","null","","Agent A","scrambled","STIM_SET_2/1159973.bmp_pp98_L1_V1.0_scrambled_freeview_isoTrue.mp4",""
"null","","","html-keyboard-response","30","113460","0.0-30.0","w6xvdhgb","","<span style=""color:Black; font-size:50px;"">Agent B","null","","","","",""
"null","","","video-keyboard-response","31","116554","0.0-31.0","w6xvdhgb","","","null","","Agent B","veridical","STIM_SET_2/1159973.bmp_pp98_L1_V1.0_veridical_freeview_isoTrue.mp4",""
"","","","call-function","32","116554","0.0-32.0","w6xvdhgb","","","","","","","",""
"3170.7850000000035","{""judgement"":0}","[0]","survey-likert","33","119726","0.0-33.0","w6xvdhgb","","","","","","","","1"
"1797.8800000000047","{""confidence"":0}","[0]","survey-likert","34","121525","0.0-34.0","w6xvdhgb","","","","","","","",""
"","","","call-function","35","121525","0.0-35.0","w6xvdhgb","","","","","","","",""
"null","","","html-keyboard-response","36","123028","0.0-36.0","w6xvdhgb","","<span style=""color:Black; font-size:50px;"">Agent A","null","","","","",""
"null","","","video-keyboard-response","37","126118","0.0-37.0","w6xvdhgb","","","null","","Agent A","veridical","STIM_SET_2/1159392.bmp_pp96_L2_V1.0_veridical_freeview_isoTrue.mp4",""
"null","","","html-keyboard-response","38","127625","0.0-38.0","w6xvdhgb","","<span style=""color:Black; font-size:50px;"">Agent B","null","","","","",""
"null","","","video-keyboard-response","39","130715","0.0-39.0","w6xvdhgb","","","null","","Agent B","scrambled","STIM_SET_2/1159392.bmp_pp96_L2_V1.0_scrambled_freeview_isoTrue.mp4",""
"","","","call-function","40","130715","0.0-40.0","w6xvdhgb","","","","","","","",""
"1157.070000000007","{""judgement"":0}","[0]","survey-likert","41","131873","0.0-41.0","w6xvdhgb","","","","","","","","0"
"1222.4200000000128","{""confidence"":1}","[0]","survey-likert","42","133097","0.0-42.0","w6xvdhgb","","","","","","","",""
"","","","call-function","43","133097","0.0-43.0","w6xvdhgb","","","","","","","",""
"null","","","html-keyboard-response","44","134600","0.0-44.0","w6xvdhgb","","<span style=""color:Black; font-size:50px;"">Agent A","null","","","","",""
"null","","","video-keyboard-response","45","137700","0.0-45.0","w6xvdhgb","","","null","","Agent A","scrambled","STIM_SET_2/1592350.bmp_pp55_L3_V1.0_scrambled_freeview_isoTrue.mp4",""
"null","","","html-keyboard-response","46","139203","0.0-46.0","w6xvdhgb","","<span style=""color:Black; font-size:50px;"">Agent B","null","","","","",""
"null","","","video-keyboard-response","47","142307","0.0-47.0","w6xvdhgb","","","null","","Agent B","veridical","STIM_SET_2/1592350.bmp_pp55_L3_V1.0_veridical_freeview_isoTrue.mp4",""
"","","","call-function","48","142308","0.0-48.0","w6xvdhgb","","","","","","","",""
"1691.570000000007","{""judgement"":1}","[0]","survey-likert","49","144000","0.0-49.0","w6xvdhgb","","","","","","","","1"
"949.9550000000163","{""confidence"":0}","[0]","survey-likert","50","144951","0.0-50.0","w6xvdhgb","","","","","","","",""
"","","","call-function","51","144952","0.0-51.0","w6xvdhgb","","","","","","","",""
"null","","","html-keyboard-response","52","146458","0.0-52.0","w6xvdhgb","","<span style=""color:Black; font-size:50px;"">Agent A","null","","","","",""
"null","","","video-keyboard-response","53","149555","0.0-53.0","w6xvdhgb","","","null","","Agent A","veridical","STIM_SET_2/1592530.bmp_pp75_L1_V1.0_veridical_freeview_isoTrue.mp4",""
"null","","","html-keyboard-response","54","151057","0.0-54.0","w6xvdhgb","","<span style=""color:Black; font-size:50px;"">Agent B","null","","","","",""
"null","","","video-keyboard-response","55","154130","0.0-55.0","w6xvdhgb","","","null","","Agent B","scrambled","STIM_SET_2/1592530.bmp_pp75_L1_V1.0_scrambled_freeview_isoTrue.mp4",""
"","","","call-function","56","154131","0.0-56.0","w6xvdhgb","","","","","","","",""
"3817.320000000007","{""judgement"":1}","[0]","survey-likert","57","157949","0.0-57.0","w6xvdhgb","","","","","","","","0"
"936.820000000007","{""confidence"":0}","[0]","survey-likert","58","158887","0.0-58.0","w6xvdhgb","","","","","","","",""
"","","","call-function","59","158887","0.0-59.0","w6xvdhgb","","","","","","","",""
"null","","","html-keyboard-response","60","160389","0.0-60.0","w6xvdhgb","","<span style=""color:Black; font-size:50px;"">Agent A","null","","","","",""
"null","","","video-keyboard-response","61","163465","0.0-61.0","w6xvdhgb","","","null","","Agent A","veridical","STIM_SET_2/498261.bmp_pp84_L3_V1.0_veridical_freeview_isoTrue.mp4",""
"null","","","html-keyboard-response","62","164971","0.0-62.0","w6xvdhgb","","<span style=""color:Black; font-size:50px;"">Agent B","null","","","","",""
"null","","","video-keyboard-response","63","168046","0.0-63.0","w6xvdhgb","","","null","","Agent B","scrambled","STIM_SET_2/498261.bmp_pp84_L3_V1.0_scrambled_freeview_isoTrue.mp4",""
"","","","call-function","64","168046","0.0-64.0","w6xvdhgb","","","","","","","",""
"1187.3850000000093","{""judgement"":0}","[0]","survey-likert","65","169234","0.0-65.0","w6xvdhgb","","","","","","","","0"
"2215.5750000000116","{""confidence"":1}","[0]","survey-likert","66","171451","0.0-66.0","w6xvdhgb","","","","","","","",""
"","","","call-function","67","171451","0.0-67.0","w6xvdhgb","","","","","","","",""
"null","","","html-keyboard-response","68","172954","0.0-68.0","w6xvdhgb","","<span style=""color:Black; font-size:50px;"">Agent A","null","","","","",""
"null","","","video-keyboard-response","69","176022","0.0-69.0","w6xvdhgb","","","null","","Agent A","veridical","STIM_SET_2/1591920.bmp_pp97_L3_V1_veridical_freeview_isoTrue.mp4",""
"null","","","html-keyboard-response","70","177526","0.0-70.0","w6xvdhgb","","<span style=""color:Black; font-size:50px;"">Agent B","null","","","","",""
"null","","","video-keyboard-response","71","180622","0.0-71.0","w6xvdhgb","","","null","","Agent B","scrambled","STIM_SET_2/1591920.bmp_pp97_L3_V1_scrambled_freeview_isoTrue.mp4",""
"","","","call-function","72","180623","0.0-72.0","w6xvdhgb","","","","","","","",""
"2818.3850000000093","{""judgement"":0}","[0]","survey-likert","73","183442","0.0-73.0","w6xvdhgb","","","","","","","","0"
"2644.8399999999965","{""confidence"":0}","[0]","survey-likert","74","186089","0.0-74.0","w6xvdhgb","","","","","","","",""
"","","","call-function","75","186089","0.0-75.0","w6xvdhgb","","","","","","","",""
"null","","","html-keyboard-response","76","187591","0.0-76.0","w6xvdhgb","","<span style=""color:Black; font-size:50px;"">Agent A","null","","","","",""
"null","","","video-keyboard-response","77","190661","0.0-77.0","w6xvdhgb","","","null","","Agent A","scrambled","STIM_SET_2/1591975.bmp_pp88_L2_V1.0_scrambled_freeview_isoTrue.mp4",""
"null","","","html-keyboard-response","78","192164","0.0-78.0","w6xvdhgb","","<span style=""color:Black; font-size:50px;"">Agent B","null","","","","",""
"null","","","video-keyboard-response","79","195231","0.0-79.0","w6xvdhgb","","","null","","Agent B","veridical","STIM_SET_2/1591975.bmp_pp88_L2_V1.0_veridical_freeview_isoTrue.mp4",""
"","","","call-function","80","195231","0.0-80.0","w6xvdhgb","","","","","","","",""
"1951.2950000000128","{""judgement"":1}","[0]","survey-likert","81","197184","0.0-81.0","w6xvdhgb","","","","","","","","1"
"1517.5400000000081","{""confidence"":1}","[0]","survey-likert","82","198702","0.0-82.0","w6xvdhgb","","","","","","","",""
"","","","call-function","83","198703","0.0-83.0","w6xvdhgb","","","","","","","",""
"null","","","html-keyboard-response","84","200208","0.0-84.0","w6xvdhgb","","<span style=""color:Black; font-size:50px;"">Agent A","null","","","","",""
"null","","","video-keyboard-response","85","203279","0.0-85.0","w6xvdhgb","","","null","","Agent A","scrambled","STIM_SET_2/1592017.bmp_pp154_L1_V1.0_scrambled_freeview_isoTrue.mp4",""
"null","","","html-keyboard-response","86","204781","0.0-86.0","w6xvdhgb","","<span style=""color:Black; font-size:50px;"">Agent B","null","","","","",""
"null","","","video-keyboard-response","87","207850","0.0-87.0","w6xvdhgb","","","null","","Agent B","veridical","STIM_SET_2/1592017.bmp_pp154_L1_V1.0_veridical_freeview_isoTrue.mp4",""
"","","","call-function","88","207850","0.0-88.0","w6xvdhgb","","","","","","","",""
"2075.1199999999953","{""judgement"":1}","[0]","survey-likert","89","209926","0.0-89.0","w6xvdhgb","","","","","","","","1"
"1288.5199999999895","{""confidence"":2}","[0]","survey-likert","90","211216","0.0-90.0","w6xvdhgb","","","","","","","",""
"16157.589999999997","","","instructions","91","227374","0.0-91.0","w6xvdhgb","[{""page_index"":0,""viewing_time"":1598.2350000000151},{""page_index"":1,""viewing_time"":13852.924999999988},{""page_index"":2,""viewing_time"":706.1100000000151}]","","","","","","",""
"2601.404999999999","","","instructions","92","229976","0.0-92.0","w6xvdhgb","[{""page_index"":0,""viewing_time"":543.3099999999977},{""page_index"":1,""viewing_time"":1405.1149999999907},{""page_index"":2,""viewing_time"":652.8699999999953}]","","","","","","",""
"","","","call-function","93","229976","0.0-93.0","w6xvdhgb","","","","","","","",""
"null","","","html-keyboard-response","94","231478","0.0-94.0","w6xvdhgb","","<span style=""color:Black; font-size:50px;"">Agent A","null","","","","",""
"null","","","video-keyboard-response","95","234583","0.0-95.0","w6xvdhgb","","","null","","Agent A","scrambled","STIM_SET_2/1592747.bmp_pp53_L2_V1.0_scrambled_freeview_isoTrue.mp4",""
"null","","","html-keyboard-response","96","236085","0.0-96.0","w6xvdhgb","","<span style=""color:Black; font-size:50px;"">Agent B","null","","","","",""
"null","","","video-keyboard-response","97","239188","0.0-97.0","w6xvdhgb","","","null","","Agent B","veridical","STIM_SET_2/1592747.bmp_pp53_L2_V1.0_veridical_freeview_isoTrue.mp4",""
"","","","call-function","98","239188","0.0-98.0","w6xvdhgb","","","","","","","",""
"1355.2399999999907","{""judgement"":1}","[0]","survey-likert","99","240544","0.0-99.0","w6xvdhgb","","","","","","","","1"
"1107.1149999999907","{""confidence"":2}","[0]","survey-likert","100","241652","0.0-100.0","w6xvdhgb","","","","","","","",""
"","","","call-function","101","241652","0.0-101.0","w6xvdhgb","","","","","","","",""
"null","","","html-keyboard-response","102","243154","0.0-102.0","w6xvdhgb","","<span style=""color:Black; font-size:50px;"">Agent A","null","","","","",""
"null","","","video-keyboard-response","103","246258","0.0-103.0","w6xvdhgb","","","null","","Agent A","scrambled","STIM_SET_2/713381.bmp_pp82_L2_V1.0_scrambled_freeview_isoTrue.mp4",""
"null","","","html-keyboard-response","104","247761","0.0-104.0","w6xvdhgb","","<span style=""color:Black; font-size:50px;"">Agent B","null","","","","",""
"null","","","video-keyboard-response","105","250861","0.0-105.0","w6xvdhgb","","","null","","Agent B","veridical","STIM_SET_2/713381.bmp_pp82_L2_V1.0_veridical_freeview_isoTrue.mp4",""
"","","","call-function","106","250861","0.0-106.0","w6xvdhgb","","","","","","","",""
"1318.9949999999953","{""judgement"":1}","[0]","survey-likert","107","252181","0.0-107.0","w6xvdhgb","","","","","","","","1"
"1645.1499999999942","{""confidence"":2}","[0]","survey-likert","108","253827","0.0-108.0","w6xvdhgb","","","","","","","",""
"","","","call-function","109","253828","0.0-109.0","w6xvdhgb","","","","","","","",""
"null","","","html-keyboard-response","110","255334","0.0-110.0","w6xvdhgb","","<span style=""color:Black; font-size:50px;"">Agent A","null","","","","",""
"null","","","video-keyboard-response","111","258410","0.0-111.0","w6xvdhgb","","","null","","Agent A","scrambled","STIM_SET_2/285959.bmp_pp93_L1_V1.0_scrambled_freeview_isoTrue.mp4",""
"null","","","html-keyboard-response","112","259914","0.0-112.0","w6xvdhgb","","<span style=""color:Black; font-size:50px;"">Agent B","null","","","","",""
"null","","","video-keyboard-response","113","262993","0.0-113.0","w6xvdhgb","","","null","","Agent B","veridical","STIM_SET_2/285959.bmp_pp93_L1_V1.0_veridical_freeview_isoTrue.mp4",""
"","","","call-function","114","262994","0.0-114.0","w6xvdhgb","","","","","","","",""
"1521.1149999999907","{""judgement"":1}","[0]","survey-likert","115","264516","0.0-115.0","w6xvdhgb","","","","","","","","1"
"1497.4400000000023","{""confidence"":2}","[0]","survey-likert","116","266014","0.0-116.0","w6xvdhgb","","","","","","","",""
"","","","call-function","117","266014","0.0-117.0","w6xvdhgb","","","","","","","",""
"null","","","html-keyboard-response","118","267521","0.0-118.0","w6xvdhgb","","<span style=""color:Black; font-size:50px;"">Agent A","null","","","","",""
"null","","","video-keyboard-response","119","270589","0.0-119.0","w6xvdhgb","","","null","","Agent A","scrambled","STIM_SET_2/1592314.bmp_pp100_L3_V1.0_scrambled_freeview_isoTrue.mp4",""
"null","","","html-keyboard-response","120","272090","0.0-120.0","w6xvdhgb","","<span style=""color:Black; font-size:50px;"">Agent B","null","","","","",""
"null","","","video-keyboard-response","121","275159","0.0-121.0","w6xvdhgb","","","null","","Agent B","veridical","STIM_SET_2/1592314.bmp_pp100_L3_V1.0_veridical_freeview_isoTrue.mp4",""
"","","","call-function","122","275159","0.0-122.0","w6xvdhgb","","","","","","","",""
"4610.989999999991","{""judgement"":1}","[0]","survey-likert","123","279771","0.0-123.0","w6xvdhgb","","","","","","","","1"
"1855.0350000000326","{""confidence"":0}","[0]","survey-likert","124","281628","0.0-124.0","w6xvdhgb","","","","","","","",""
"","","","call-function","125","281629","0.0-125.0","w6xvdhgb","","","","","","","",""
"null","","","html-keyboard-response","126","283132","0.0-126.0","w6xvdhgb","","<span style=""color:Black; font-size:50px;"">Agent A","null","","","","",""
"null","","","video-keyboard-response","127","286197","0.0-127.0","w6xvdhgb","","","null","","Agent A","veridical","STIM_SET_2/61513.bmp_pp75_L1_V1.0_veridical_freeview_isoTrue.mp4",""
"null","","","html-keyboard-response","128","287699","0.0-128.0","w6xvdhgb","","<span style=""color:Black; font-size:50px;"">Agent B","null","","","","",""
"null","","","video-keyboard-response","129","290763","0.0-129.0","w6xvdhgb","","","null","","Agent B","scrambled","STIM_SET_2/61513.bmp_pp75_L1_V1.0_scrambled_freeview_isoTrue.mp4",""
"","","","call-function","130","290764","0.0-130.0","w6xvdhgb","","","","","","","",""
"1730.6350000000093","{""judgement"":0}","[0]","survey-likert","131","292496","0.0-131.0","w6xvdhgb","","","","","","","","0"
"1560.5","{""confidence"":0}","[0]","survey-likert","132","294058","0.0-132.0","w6xvdhgb","","","","","","","",""
"","","","call-function","133","294059","0.0-133.0","w6xvdhgb","","","","","","","",""
"null","","","html-keyboard-response","134","295562","0.0-134.0","w6xvdhgb","","<span style=""color:Black; font-size:50px;"">Agent A","null","","","","",""
"null","","","video-keyboard-response","135","298637","0.0-135.0","w6xvdhgb","","","null","","Agent A","veridical","STIM_SET_2/1592921.bmp_pp69_L3_V1.0_veridical_freeview_isoTrue.mp4",""
"null","","","html-keyboard-response","136","300140","0.0-136.0","w6xvdhgb","","<span style=""color:Black; font-size:50px;"">Agent B","null","","","","",""
"null","","","video-keyboard-response","137","303216","0.0-137.0","w6xvdhgb","","","null","","Agent B","scrambled","STIM_SET_2/1592921.bmp_pp69_L3_V1.0_scrambled_freeview_isoTrue.mp4",""
"","","","call-function","138","303217","0.0-138.0","w6xvdhgb","","","","","","","",""
"2297.0299999999697","{""judgement"":0}","[0]","survey-likert","139","305515","0.0-139.0","w6xvdhgb","","","","","","","","0"
"1020.8699999999953","{""confidence"":1}","[0]","survey-likert","140","306537","0.0-140.0","w6xvdhgb","","","","","","","",""
"","","","call-function","141","306537","0.0-141.0","w6xvdhgb","","","","","","","",""
"null","","","html-keyboard-response","142","308040","0.0-142.0","w6xvdhgb","","<span style=""color:Black; font-size:50px;"">Agent A","null","","","","",""
"null","","","video-keyboard-response","143","311118","0.0-143.0","w6xvdhgb","","","null","","Agent A","scrambled","STIM_SET_2/1592305.bmp_pp65_L3_V1.0_scrambled_freeview_isoTrue.mp4",""
"null","","","html-keyboard-response","144","312621","0.0-144.0","w6xvdhgb","","<span style=""color:Black; font-size:50px;"">Agent B","null","","","","",""
"null","","","video-keyboard-response","145","315696","0.0-145.0","w6xvdhgb","","","null","","Agent B","veridical","STIM_SET_2/1592305.bmp_pp65_L3_V1.0_veridical_freeview_isoTrue.mp4",""
"","","","call-function","146","315697","0.0-146.0","w6xvdhgb","","","","","","","",""
"4411.700000000012","{""judgement"":0}","[0]","survey-likert","147","320109","0.0-147.0","w6xvdhgb","","","","","","","","1"
"4578.289999999979","{""confidence"":1}","[0]","survey-likert","148","324689","0.0-148.0","w6xvdhgb","","","","","","","",""
"","","","call-function","149","324689","0.0-149.0","w6xvdhgb","","","","","","","",""
"null","","","html-keyboard-response","150","326192","0.0-150.0","w6xvdhgb","","<span style=""color:Black; font-size:50px;"">Agent A","null","","","","",""
"null","","","video-keyboard-response","151","329295","0.0-151.0","w6xvdhgb","","","null","","Agent A","scrambled","STIM_SET_2/1159874.bmp_pp96_L2_V1.0_scrambled_freeview_isoTrue.mp4",""
"null","","","html-keyboard-response","152","330798","0.0-152.0","w6xvdhgb","","<span style=""color:Black; font-size:50px;"">Agent B","null","","","","",""
"null","","","video-keyboard-response","153","333898","0.0-153.0","w6xvdhgb","","","null","","Agent B","veridical","STIM_SET_2/1159874.bmp_pp96_L2_V1.0_veridical_freeview_isoTrue.mp4",""
"","","","call-function","154","333898","0.0-154.0","w6xvdhgb","","","","","","","",""
"1247.1350000000093","{""judgement"":1}","[0]","survey-likert","155","335146","0.0-155.0","w6xvdhgb","","","","","","","","1"
"1489.9899999999907","{""confidence"":2}","[0]","survey-likert","156","336637","0.0-156.0","w6xvdhgb","","","","","","","",""
"","","","call-function","157","336638","0.0-157.0","w6xvdhgb","","","","","","","",""
"null","","","html-keyboard-response","158","338143","0.0-158.0","w6xvdhgb","","<span style=""color:Black; font-size:50px;"">Agent A","null","","","","",""
"null","","","video-keyboard-response","159","341249","0.0-159.0","w6xvdhgb","","","null","","Agent A","scrambled","STIM_SET_2/498372.bmp_pp95_L2_V1_scrambled_freeview_isoTrue.mp4",""
"null","","","html-keyboard-response","160","342750","0.0-160.0","w6xvdhgb","","<span style=""color:Black; font-size:50px;"">Agent B","null","","","","",""
"null","","","video-keyboard-response","161","345850","0.0-161.0","w6xvdhgb","","","null","","Agent B","veridical","STIM_SET_2/498372.bmp_pp95_L2_V1_veridical_freeview_isoTrue.mp4",""
"","","","call-function","162","345851","0.0-162.0","w6xvdhgb","","","","","","","",""
"8070.65499999997","{""judgement"":0}","[0]","survey-likert","163","353922","0.0-163.0","w6xvdhgb","","","","","","","","1"
"4481.059999999998","{""confidence"":1}","[0]","survey-likert","164","358404","0.0-164.0","w6xvdhgb","","","","","","","",""
"","","","call-function","165","358405","0.0-165.0","w6xvdhgb","","","","","","","",""
"null","","","html-keyboard-response","166","359907","0.0-166.0","w6xvdhgb","","<span style=""color:Black; font-size:50px;"">Agent A","null","","","","",""
"null","","","video-keyboard-response","167","362974","0.0-167.0","w6xvdhgb","","","null","","Agent A","veridical","STIM_SET_2/1159427.bmp_pp98_L1_V1.0_veridical_freeview_isoTrue.mp4",""
"null","","","html-keyboard-response","168","364480","0.0-168.0","w6xvdhgb","","<span style=""color:Black; font-size:50px;"">Agent B","null","","","","",""
"null","","","video-keyboard-response","169","367550","0.0-169.0","w6xvdhgb","","","null","","Agent B","scrambled","STIM_SET_2/1159427.bmp_pp98_L1_V1.0_scrambled_freeview_isoTrue.mp4",""
"","","","call-function","170","367551","0.0-170.0","w6xvdhgb","","","","","","","",""
"3184.0400000000373","{""judgement"":0}","[0]","survey-likert","171","370736","0.0-171.0","w6xvdhgb","","","","","","","","0"
"2246.8099999999977","{""confidence"":1}","[0]","survey-likert","172","372984","0.0-172.0","w6xvdhgb","","","","","","","",""
"2213.0650000000023","","","instructions","173","375197","0.0-173.0","w6xvdhgb","[{""page_index"":0,""viewing_time"":1309.9799999999814},{""page_index"":1,""viewing_time"":472.9199999999837},{""page_index"":2,""viewing_time"":429.929999999993}]","","","","","","",""
"1557.6900000000023","","","instructions","174","376755","0.0-174.0","w6xvdhgb","[{""page_index"":0,""viewing_time"":439.5200000000186},{""page_index"":1,""viewing_time"":551.0650000000023},{""page_index"":2,""viewing_time"":566.9899999999907}]","","","","","","",""
"","","","call-function","175","376755","0.0-175.0","w6xvdhgb","","","","","","","",""
"null","","","html-keyboard-response","176","378259","0.0-176.0","w6xvdhgb","","<span style=""color:Black; font-size:50px;"">Agent A","null","","","","",""
"null","","","video-keyboard-response","177","381333","0.0-177.0","w6xvdhgb","","","null","","Agent A","scrambled","STIM_SET_2/150277.bmp_pp65_L3_V1.0_scrambled_freeview_isoTrue.mp4",""
"null","","","html-keyboard-response","178","382840","0.0-178.0","w6xvdhgb","","<span style=""color:Black; font-size:50px;"">Agent B","null","","","","",""
"null","","","video-keyboard-response","179","385911","0.0-179.0","w6xvdhgb","","","null","","Agent B","veridical","STIM_SET_2/150277.bmp_pp65_L3_V1.0_veridical_freeview_isoTrue.mp4",""
"","","","call-function","180","385912","0.0-180.0","w6xvdhgb","","","","","","","",""
"1360.445000000007","{""judgement"":1}","[0]","survey-likert","181","387273","0.0-181.0","w6xvdhgb","","","","","","","","1"
"1072.625","{""confidence"":1}","[0]","survey-likert","182","388347","0.0-182.0","w6xvdhgb","","","","","","","",""
"","","","call-function","183","388347","0.0-183.0","w6xvdhgb","","","","","","","",""
"null","","","html-keyboard-response","184","389849","0.0-184.0","w6xvdhgb","","<span style=""color:Black; font-size:50px;"">Agent A","null","","","","",""
"null","","","video-keyboard-response","185","392927","0.0-185.0","w6xvdhgb","","","null","","Agent A","veridical","STIM_SET_2/498398.bmp_pp81_L1_V1.0_veridical_freeview_isoTrue.mp4",""
"null","","","html-keyboard-response","186","394430","0.0-186.0","w6xvdhgb","","<span style=""color:Black; font-size:50px;"">Agent B","null","","","","",""
"null","","","video-keyboard-response","187","397507","0.0-187.0","w6xvdhgb","","","null","","Agent B","scrambled","STIM_SET_2/498398.bmp_pp81_L1_V1.0_scrambled_freeview_isoTrue.mp4",""
"","","","call-function","188","397508","0.0-188.0","w6xvdhgb","","","","","","","",""
"4903.835000000021","{""judgement"":1}","[0]","survey-likert","189","402414","0.0-189.0","w6xvdhgb","","","","","","","","0"
"1274.140000000014","{""confidence"":0}","[0]","survey-likert","190","403690","0.0-190.0","w6xvdhgb","","","","","","","",""
"","","","call-function","191","403691","0.0-191.0","w6xvdhgb","","","","","","","",""
"null","","","html-keyboard-response","192","405194","0.0-192.0","w6xvdhgb","","<span style=""color:Black; font-size:50px;"">Agent A","null","","","","",""
"null","","","video-keyboard-response","193","408275","0.0-193.0","w6xvdhgb","","","null","","Agent A","scrambled","STIM_SET_2/107909.bmp_pp95_L2_V1.0_scrambled_freeview_isoTrue.mp4",""
"null","","","html-keyboard-response","194","409778","0.0-194.0","w6xvdhgb","","<span style=""color:Black; font-size:50px;"">Agent B","null","","","","",""
"null","","","video-keyboard-response","195","412856","0.0-195.0","w6xvdhgb","","","null","","Agent B","veridical","STIM_SET_2/107909.bmp_pp95_L2_V1.0_veridical_freeview_isoTrue.mp4",""
"","","","call-function","196","412856","0.0-196.0","w6xvdhgb","","","","","","","",""
"2833.359999999986","{""judgement"":1}","[0]","survey-likert","197","415691","0.0-197.0","w6xvdhgb","","","","","","","","1"
"1474.9349999999977","{""confidence"":0}","[0]","survey-likert","198","417167","0.0-198.0","w6xvdhgb","","","","","","","",""
"","","","call-function","199","417167","0.0-199.0","w6xvdhgb","","","","","","","",""
"null","","","html-keyboard-response","200","418669","0.0-200.0","w6xvdhgb","","<span style=""color:Black; font-size:50px;"">Agent A","null","","","","",""
"null","","","video-keyboard-response","201","421741","0.0-201.0","w6xvdhgb","","","null","","Agent A","veridical","STIM_SET_2/1159508.bmp_pp151_L1_V1.0_veridical_freeview_isoTrue.mp4",""
"null","","","html-keyboard-response","202","423248","0.0-202.0","w6xvdhgb","","<span style=""color:Black; font-size:50px;"">Agent B","null","","","","",""
"null","","","video-keyboard-response","203","426322","0.0-203.0","w6xvdhgb","","","null","","Agent B","scrambled","STIM_SET_2/1159508.bmp_pp151_L1_V1.0_scrambled_freeview_isoTrue.mp4",""
"","","","call-function","204","426322","0.0-204.0","w6xvdhgb","","","","","","","",""
"1881.8250000000116","{""judgement"":0}","[0]","survey-likert","205","428205","0.0-205.0","w6xvdhgb","","","","","","","","0"
"1191.4400000000023","{""confidence"":2}","[0]","survey-likert","206","429397","0.0-206.0","w6xvdhgb","","","","","","","",""
"","","","call-function","207","429397","0.0-207.0","w6xvdhgb","","","","","","","",""
"null","","","html-keyboard-response","208","430902","0.0-208.0","w6xvdhgb","","<span style=""color:Black; font-size:50px;"">Agent A","null","","","","",""
"null","","","video-keyboard-response","209","434011","0.0-209.0","w6xvdhgb","","","null","","Agent A","scrambled","STIM_SET_2/1592168.bmp_pp71_L1_V1.0_scrambled_freeview_isoTrue.mp4",""
"null","","","html-keyboard-response","210","435519","0.0-210.0","w6xvdhgb","","<span style=""color:Black; font-size:50px;"">Agent B","null","","","","",""
"null","","","video-keyboard-response","211","438629","0.0-211.0","w6xvdhgb","","","null","","Agent B","veridical","STIM_SET_2/1592168.bmp_pp71_L1_V1.0_veridical_freeview_isoTrue.mp4",""
"","","","call-function","212","438629","0.0-212.0","w6xvdhgb","","","","","","","",""
"2041.25","{""judgement"":1}","[0]","survey-likert","213","440671","0.0-213.0","w6xvdhgb","","","","","","","","1"
"4773.354999999981","{""confidence"":1}","[0]","survey-likert","214","445446","0.0-214.0","w6xvdhgb","","","","","","","",""
"","","","call-function","215","445446","0.0-215.0","w6xvdhgb","","","","","","","",""
"null","","","html-keyboard-response","216","446949","0.0-216.0","w6xvdhgb","","<span style=""color:Black; font-size:50px;"">Agent A","null","","","","",""
"null","","","video-keyboard-response","217","450017","0.0-217.0","w6xvdhgb","","","null","","Agent A","scrambled","STIM_SET_2/1159325.bmp_pp67_L2_V1.0_scrambled_freeview_isoTrue.mp4",""
"null","","","html-keyboard-response","218","451519","0.0-218.0","w6xvdhgb","","<span style=""color:Black; font-size:50px;"">Agent B","null","","","","",""
"null","","","video-keyboard-response","219","454587","0.0-219.0","w6xvdhgb","","","null","","Agent B","veridical","STIM_SET_2/1159325.bmp_pp67_L2_V1.0_veridical_freeview_isoTrue.mp4",""
"","","","call-function","220","454587","0.0-220.0","w6xvdhgb","","","","","","","",""
"2036.204999999958","{""judgement"":1}","[0]","survey-likert","221","456624","0.0-221.0","w6xvdhgb","","","","","","","","1"
"2748.6900000000023","{""confidence"":1}","[0]","survey-likert","222","459375","0.0-222.0","w6xvdhgb","","","","","","","",""
"","","","call-function","223","459375","0.0-223.0","w6xvdhgb","","","","","","","",""
"null","","","html-keyboard-response","224","460879","0.0-224.0","w6xvdhgb","","<span style=""color:Black; font-size:50px;"">Agent A","null","","","","",""
"null","","","video-keyboard-response","225","463974","0.0-225.0","w6xvdhgb","","","null","","Agent A","scrambled","STIM_SET_2/713652.bmp_pp89_L1_V1_scrambled_freeview_isoTrue.mp4",""
"null","","","html-keyboard-response","226","465476","0.0-226.0","w6xvdhgb","","<span style=""color:Black; font-size:50px;"">Agent B","null","","","","",""
"null","","","video-keyboard-response","227","468573","0.0-227.0","w6xvdhgb","","","null","","Agent B","veridical","STIM_SET_2/713652.bmp_pp89_L1_V1_veridical_freeview_isoTrue.mp4",""
"","","","call-function","228","468573","0.0-228.0","w6xvdhgb","","","","","","","",""
"1781.335000000021","{""judgement"":1}","[0]","survey-likert","229","470356","0.0-229.0","w6xvdhgb","","","","","","","","1"
"4106.044999999984","{""confidence"":2}","[0]","survey-likert","230","474463","0.0-230.0","w6xvdhgb","","","","","","","",""
"","","","call-function","231","474463","0.0-231.0","w6xvdhgb","","","","","","","",""
"null","","","html-keyboard-response","232","475966","0.0-232.0","w6xvdhgb","","<span style=""color:Black; font-size:50px;"">Agent A","null","","","","",""
"null","","","video-keyboard-response","233","479036","0.0-233.0","w6xvdhgb","","","null","","Agent A","veridical","STIM_SET_2/1592129.bmp_pp153_L3_V1.0_veridical_freeview_isoTrue.mp4",""
"null","","","html-keyboard-response","234","480538","0.0-234.0","w6xvdhgb","","<span style=""color:Black; font-size:50px;"">Agent B","null","","","","",""
"null","","","video-keyboard-response","235","483608","0.0-235.0","w6xvdhgb","","","null","","Agent B","scrambled","STIM_SET_2/1592129.bmp_pp153_L3_V1.0_scrambled_freeview_isoTrue.mp4",""
"","","","call-function","236","483608","0.0-236.0","w6xvdhgb","","","","","","","",""
"2216.7200000000303","{""judgement"":0}","[0]","survey-likert","237","485826","0.0-237.0","w6xvdhgb","","","","","","","","0"
"1645.7399999999907","{""confidence"":2}","[0]","survey-likert","238","487473","0.0-238.0","w6xvdhgb","","","","","","","",""
"","","","call-function","239","487473","0.0-239.0","w6xvdhgb","","","","","","","",""
"null","","","html-keyboard-response","240","488975","0.0-240.0","w6xvdhgb","","<span style=""color:Black; font-size:50px;"">Agent A","null","","","","",""
"null","","","video-keyboard-response","241","492045","0.0-241.0","w6xvdhgb","","","null","","Agent A","scrambled","STIM_SET_2/713274.bmp_pp73_L3_V1.0_scrambled_freeview_isoTrue.mp4",""
"null","","","html-keyboard-response","242","493548","0.0-242.0","w6xvdhgb","","<span style=""color:Black; font-size:50px;"">Agent B","null","","","","",""
"null","","","video-keyboard-response","243","496621","0.0-243.0","w6xvdhgb","","","null","","Agent B","veridical","STIM_SET_2/713274.bmp_pp73_L3_V1.0_veridical_freeview_isoTrue.mp4",""
"","","","call-function","244","496622","0.0-244.0","w6xvdhgb","","","","","","","",""
"2252.3699999999953","{""judgement"":1}","[0]","survey-likert","245","498875","0.0-245.0","w6xvdhgb","","","","","","","","1"
"1728.4100000000326","{""confidence"":1}","[0]","survey-likert","246","500605","0.0-246.0","w6xvdhgb","","","","","","","",""
"","","","call-function","247","500606","0.0-247.0","w6xvdhgb","","","","","","","",""
"null","","","html-keyboard-response","248","502109","0.0-248.0","w6xvdhgb","","<span style=""color:Black; font-size:50px;"">Agent A","null","","","","",""
"null","","","video-keyboard-response","249","505182","0.0-249.0","w6xvdhgb","","","null","","Agent A","scrambled","STIM_SET_2/1159956.bmp_pp59_L3_V1.0_scrambled_freeview_isoTrue.mp4",""
"null","","","html-keyboard-response","250","506689","0.0-250.0","w6xvdhgb","","<span style=""color:Black; font-size:50px;"">Agent B","null","","","","",""
"null","","","video-keyboard-response","251","509765","0.0-251.0","w6xvdhgb","","","null","","Agent B","veridical","STIM_SET_2/1159956.bmp_pp59_L3_V1.0_veridical_freeview_isoTrue.mp4",""
"","","","call-function","252","509765","0.0-252.0","w6xvdhgb","","","","","","","",""
"2303.2249999999767","{""judgement"":0}","[0]","survey-likert","253","512070","0.0-253.0","w6xvdhgb","","","","","","","","1"
"2642.0650000000023","{""confidence"":0}","[0]","survey-likert","254","514713","0.0-254.0","w6xvdhgb","","","","","","","",""
"1734.8600000000442","","","instructions","255","516449","0.0-255.0","w6xvdhgb","[{""page_index"":0,""viewing_time"":1034.9500000000116},{""page_index"":1,""viewing_time"":405.945000000007},{""page_index"":2,""viewing_time"":293.8150000000023}]","","","","","","",""
"1933.9850000000442","","","instructions","256","518383","0.0-256.0","w6xvdhgb","[{""page_index"":0,""viewing_time"":196.8400000000256},{""page_index"":1,""viewing_time"":408.67499999998836},{""page_index"":2,""viewing_time"":1328.359999999986}]","","","","","","",""
"","","","call-function","257","518383","0.0-257.0","w6xvdhgb","","","","","","","",""
"null","","","html-keyboard-response","258","519886","0.0-258.0","w6xvdhgb","","<span style=""color:Black; font-size:50px;"">Agent A","null","","","","",""
"null","","","video-keyboard-response","259","522950","0.0-259.0","w6xvdhgb","","","null","","Agent A","scrambled","STIM_SET_2/1592951.bmp_pp80_L3_V1.0_scrambled_freeview_isoTrue.mp4",""
"null","","","html-keyboard-response","260","524455","0.0-260.0","w6xvdhgb","","<span style=""color:Black; font-size:50px;"">Agent B","null","","","","",""
"null","","","video-keyboard-response","261","527545","0.0-261.0","w6xvdhgb","","","null","","Agent B","veridical","STIM_SET_2/1592951.bmp_pp80_L3_V1.0_veridical_freeview_isoTrue.mp4",""
"","","","call-function","262","527546","0.0-262.0","w6xvdhgb","","","","","","","",""
"2076.804999999935","{""judgement"":0}","[0]","survey-likert","263","529623","0.0-263.0","w6xvdhgb","","","","","","","","1"
"3350.0849999999627","{""confidence"":2}","[0]","survey-likert","264","532974","0.0-264.0","w6xvdhgb","","","","","","","",""
"","","","call-function","265","532975","0.0-265.0","w6xvdhgb","","","","","","","",""
"null","","","html-keyboard-response","266","534476","0.0-266.0","w6xvdhgb","","<span style=""color:Black; font-size:50px;"">Agent A","null","","","","",""
"null","","","video-keyboard-response","267","537581","0.0-267.0","w6xvdhgb","","","null","","Agent A","veridical","STIM_SET_2/713790.bmp_pp100_L3_V1_veridical_freeview_isoTrue.mp4",""
"null","","","html-keyboard-response","268","539084","0.0-268.0","w6xvdhgb","","<span style=""color:Black; font-size:50px;"">Agent B","null","","","","",""
"null","","","video-keyboard-response","269","542187","0.0-269.0","w6xvdhgb","","","null","","Agent B","scrambled","STIM_SET_2/713790.bmp_pp100_L3_V1_scrambled_freeview_isoTrue.mp4",""
"","","","call-function","270","542187","0.0-270.0","w6xvdhgb","","","","","","","",""
"3156.935000000056","{""judgement"":1}","[0]","survey-likert","271","545345","0.0-271.0","w6xvdhgb","","","","","","","","0"
"1579.5349999999162","{""confidence"":0}","[0]","survey-likert","272","546925","0.0-272.0","w6xvdhgb","","","","","","","",""
"","","","call-function","273","546925","0.0-273.0","w6xvdhgb","","","","","","","",""
"null","","","html-keyboard-response","274","548427","0.0-274.0","w6xvdhgb","","<span style=""color:Black; font-size:50px;"">Agent A","null","","","","",""
"null","","","video-keyboard-response","275","551494","0.0-275.0","w6xvdhgb","","","null","","Agent A","scrambled","STIM_SET_2/1592568.bmp_pp71_L1_V1.0_scrambled_freeview_isoTrue.mp4",""
"null","","","html-keyboard-response","276","552999","0.0-276.0","w6xvdhgb","","<span style=""color:Black; font-size:50px;"">Agent B","null","","","","",""
"null","","","video-keyboard-response","277","556109","0.0-277.0","w6xvdhgb","","","null","","Agent B","veridical","STIM_SET_2/1592568.bmp_pp71_L1_V1.0_veridical_freeview_isoTrue.mp4",""
"","","","call-function","278","556109","0.0-278.0","w6xvdhgb","","","","","","","",""
"1464.1350000000093","{""judgement"":1}","[0]","survey-likert","279","557574","0.0-279.0","w6xvdhgb","","","","","","","","1"
"1621.5350000000326","{""confidence"":1}","[0]","survey-likert","280","559197","0.0-280.0","w6xvdhgb","","","","","","","",""
"","","","call-function","281","559197","0.0-281.0","w6xvdhgb","","","","","","","",""
"null","","","html-keyboard-response","282","560700","0.0-282.0","w6xvdhgb","","<span style=""color:Black; font-size:50px;"">Agent A","null","","","","",""
"null","","","video-keyboard-response","283","563768","0.0-283.0","w6xvdhgb","","","null","","Agent A","veridical","STIM_SET_2/1159860.bmp_pp152_L2_V1.0_veridical_freeview_isoTrue.mp4",""
"null","","","html-keyboard-response","284","565270","0.0-284.0","w6xvdhgb","","<span style=""color:Black; font-size:50px;"">Agent B","null","","","","",""
"null","","","video-keyboard-response","285","568346","0.0-285.0","w6xvdhgb","","","null","","Agent B","scrambled","STIM_SET_2/1159860.bmp_pp152_L2_V1.0_scrambled_freeview_isoTrue.mp4",""
"","","","call-function","286","568346","0.0-286.0","w6xvdhgb","","","","","","","",""
"2747.100000000093","{""judgement"":1}","[0]","survey-likert","287","571094","0.0-287.0","w6xvdhgb","","","","","","","","0"
"1339.9299999999348","{""confidence"":0}","[0]","survey-likert","288","572435","0.0-288.0","w6xvdhgb","","","","","","","",""
"","","","call-function","289","572436","0.0-289.0","w6xvdhgb","","","","","","","",""
"null","","","html-keyboard-response","290","573942","0.0-290.0","w6xvdhgb","","<span style=""color:Black; font-size:50px;"">Agent A","null","","","","",""
"null","","","video-keyboard-response","291","577004","0.0-291.0","w6xvdhgb","","","null","","Agent A","veridical","STIM_SET_2/285715.bmp_pp67_L2_V1.0_veridical_freeview_isoTrue.mp4",""
"null","","","html-keyboard-response","292","578507","0.0-292.0","w6xvdhgb","","<span style=""color:Black; font-size:50px;"">Agent B","null","","","","",""
"null","","","video-keyboard-response","293","581590","0.0-293.0","w6xvdhgb","","","null","","Agent B","scrambled","STIM_SET_2/285715.bmp_pp67_L2_V1.0_scrambled_freeview_isoTrue.mp4",""
"","","","call-function","294","581591","0.0-294.0","w6xvdhgb","","","","","","","",""
"3983.6650000000373","{""judgement"":0}","[0]","survey-likert","295","585575","0.0-295.0","w6xvdhgb","","","","","","","","0"
"3545.6350000000093","{""confidence"":1}","[0]","survey-likert","296","589122","0.0-296.0","w6xvdhgb","","","","","","","",""
"","","","call-function","297","589122","0.0-297.0","w6xvdhgb","","","","","","","",""
"null","","","html-keyboard-response","298","590628","0.0-298.0","w6xvdhgb","","<span style=""color:Black; font-size:50px;"">Agent A","null","","","","",""
"null","","","video-keyboard-response","299","593700","0.0-299.0","w6xvdhgb","","","null","","Agent A","scrambled","STIM_SET_2/1160189.bmp_pp64_L1_V1.0_scrambled_freeview_isoTrue.mp4",""
"null","","","html-keyboard-response","300","595206","0.0-300.0","w6xvdhgb","","<span style=""color:Black; font-size:50px;"">Agent B","null","","","","",""
"null","","","video-keyboard-response","301","598279","0.0-301.0","w6xvdhgb","","","null","","Agent B","veridical","STIM_SET_2/1160189.bmp_pp64_L1_V1.0_veridical_freeview_isoTrue.mp4",""
"","","","call-function","302","598281","0.0-302.0","w6xvdhgb","","","","","","","",""
"1407.5499999999302","{""judgement"":1}","[0]","survey-likert","303","599690","0.0-303.0","w6xvdhgb","","","","","","","","1"
"2207.5100000000093","{""confidence"":2}","[0]","survey-likert","304","601899","0.0-304.0","w6xvdhgb","","","","","","","",""
"","","","call-function","305","601899","0.0-305.0","w6xvdhgb","","","","","","","",""
"null","","","html-keyboard-response","306","603406","0.0-306.0","w6xvdhgb","","<span style=""color:Black; font-size:50px;"">Agent A","null","","","","",""
"null","","","video-keyboard-response","307","606480","0.0-307.0","w6xvdhgb","","","null","","Agent A","veridical","STIM_SET_2/1592201.bmp_pp97_L3_V1.0_veridical_freeview_isoTrue.mp4",""
"null","","","html-keyboard-response","308","607982","0.0-308.0","w6xvdhgb","","<span style=""color:Black; font-size:50px;"">Agent B","null","","","","",""
"null","","","video-keyboard-response","309","611057","0.0-309.0","w6xvdhgb","","","null","","Agent B","scrambled","STIM_SET_2/1592201.bmp_pp97_L3_V1.0_scrambled_freeview_isoTrue.mp4",""
"","","","call-function","310","611057","0.0-310.0","w6xvdhgb","","","","","","","",""
"2777.855000000098","{""judgement"":1}","[0]","survey-likert","311","613836","0.0-311.0","w6xvdhgb","","","","","","","","0"
"1742.7149999999674","{""confidence"":0}","[0]","survey-likert","312","615580","0.0-312.0","w6xvdhgb","","","","","","","",""
"","","","call-function","313","615581","0.0-313.0","w6xvdhgb","","","","","","","",""
"null","","","html-keyboard-response","314","617084","0.0-314.0","w6xvdhgb","","<span style=""color:Black; font-size:50px;"">Agent A","null","","","","",""
"null","","","video-keyboard-response","315","620153","0.0-315.0","w6xvdhgb","","","null","","Agent A","scrambled","STIM_SET_2/285932.bmp_pp64_L1_V1.0_scrambled_freeview_isoTrue.mp4",""
"null","","","html-keyboard-response","316","621658","0.0-316.0","w6xvdhgb","","<span style=""color:Black; font-size:50px;"">Agent B","null","","","","",""
"null","","","video-keyboard-response","317","624749","0.0-317.0","w6xvdhgb","","","null","","Agent B","veridical","STIM_SET_2/285932.bmp_pp64_L1_V1.0_veridical_freeview_isoTrue.mp4",""
"","","","call-function","318","624750","0.0-318.0","w6xvdhgb","","","","","","","",""
"4354.92499999993","{""judgement"":1}","[0]","survey-likert","319","629106","0.0-319.0","w6xvdhgb","","","","","","","","1"
"1423.704999999958","{""confidence"":1}","[0]","survey-likert","320","630530","0.0-320.0","w6xvdhgb","","","","","","","",""
"","","","call-function","321","630531","0.0-321.0","w6xvdhgb","","","","","","","",""
"null","","","html-keyboard-response","322","632033","0.0-322.0","w6xvdhgb","","<span style=""color:Black; font-size:50px;"">Agent A","null","","","","",""
"null","","","video-keyboard-response","323","635139","0.0-323.0","w6xvdhgb","","","null","","Agent A","veridical","STIM_SET_2/498396.bmp_pp99_L2_V1.0_veridical_freeview_isoTrue.mp4",""
"null","","","html-keyboard-response","324","636644","0.0-324.0","w6xvdhgb","","<span style=""color:Black; font-size:50px;"">Agent B","null","","","","",""
"null","","","video-keyboard-response","325","639745","0.0-325.0","w6xvdhgb","","","null","","Agent B","scrambled","STIM_SET_2/498396.bmp_pp99_L2_V1.0_scrambled_freeview_isoTrue.mp4",""
"","","","call-function","326","639745","0.0-326.0","w6xvdhgb","","","","","","","",""
"2054.960000000079","{""judgement"":1}","[0]","survey-likert","327","641801","0.0-327.0","w6xvdhgb","","","","","","","","0"
"1379.594999999972","{""confidence"":1}","[0]","survey-likert","328","643182","0.0-328.0","w6xvdhgb","","","","","","","",""
"","","","call-function","329","643182","0.0-329.0","w6xvdhgb","","","","","","","",""
"null","","","html-keyboard-response","330","644684","0.0-330.0","w6xvdhgb","","<span style=""color:Black; font-size:50px;"">Agent A","null","","","","",""
"null","","","video-keyboard-response","331","647785","0.0-331.0","w6xvdhgb","","","null","","Agent A","veridical","STIM_SET_2/1592289.bmp_pp92_L3_V1.0_veridical_freeview_isoTrue.mp4",""
"null","","","html-keyboard-response","332","649286","0.0-332.0","w6xvdhgb","","<span style=""color:Black; font-size:50px;"">Agent B","null","","","","",""
"null","","","video-keyboard-response","333","652390","0.0-333.0","w6xvdhgb","","","null","","Agent B","scrambled","STIM_SET_2/1592289.bmp_pp92_L3_V1.0_scrambled_freeview_isoTrue.mp4",""
"","","","call-function","334","652390","0.0-334.0","w6xvdhgb","","","","","","","",""
"1340.3150000000605","{""judgement"":0}","[0]","survey-likert","335","653731","0.0-335.0","w6xvdhgb","","","","","","","","0"
"1077.0050000000047","{""confidence"":2}","[0]","survey-likert","336","654809","0.0-336.0","w6xvdhgb","","","","","","","",""
"21802.109999999986","","","instructions","337","676612","0.0-337.0","w6xvdhgb","[{""page_index"":0,""viewing_time"":1681.3450000000885},{""page_index"":1,""viewing_time"":575.984999999986},{""page_index"":2,""viewing_time"":19544.619999999995}]","","","","","","",""
"1742.6199999999953","","","instructions","338","678355","0.0-338.0","w6xvdhgb","[{""page_index"":0,""viewing_time"":660.4649999999674},{""page_index"":1,""viewing_time"":588.0350000000326},{""page_index"":2,""viewing_time"":494.0100000000093}]","","","","","","",""
"","","","call-function","339","678355","0.0-339.0","w6xvdhgb","","","","","","","",""
"null","","","html-keyboard-response","340","679857","0.0-340.0","w6xvdhgb","","<span style=""color:Black; font-size:50px;"">Agent A","null","","","","",""
"null","","","video-keyboard-response","341","682930","0.0-341.0","w6xvdhgb","","","null","","Agent A","veridical","STIM_SET_2/1160204.bmp_pp54_L2_V1.0_veridical_freeview_isoTrue.mp4",""
"null","","","html-keyboard-response","342","684434","0.0-342.0","w6xvdhgb","","<span style=""color:Black; font-size:50px;"">Agent B","null","","","","",""
"null","","","video-keyboard-response","343","687504","0.0-343.0","w6xvdhgb","","","null","","Agent B","scrambled","STIM_SET_2/1160204.bmp_pp54_L2_V1.0_scrambled_freeview_isoTrue.mp4",""
"","","","call-function","344","687505","0.0-344.0","w6xvdhgb","","","","","","","",""
"2682.6750000000466","{""judgement"":0}","[0]","survey-likert","345","690188","0.0-345.0","w6xvdhgb","","","","","","","","0"
"4406.340000000084","{""confidence"":2}","[0]","survey-likert","346","694596","0.0-346.0","w6xvdhgb","","","","","","","",""
"","","","call-function","347","694596","0.0-347.0","w6xvdhgb","","","","","","","",""
"null","","","html-keyboard-response","348","696103","0.0-348.0","w6xvdhgb","","<span style=""color:Black; font-size:50px;"">Agent A","null","","","","",""
"null","","","video-keyboard-response","349","699170","0.0-349.0","w6xvdhgb","","","null","","Agent A","scrambled","STIM_SET_2/713689.bmp_pp153_L3_V1.0_scrambled_freeview_isoTrue.mp4",""
"null","","","html-keyboard-response","350","700673","0.0-350.0","w6xvdhgb","","<span style=""color:Black; font-size:50px;"">Agent B","null","","","","",""
"null","","","video-keyboard-response","351","703742","0.0-351.0","w6xvdhgb","","","null","","Agent B","veridical","STIM_SET_2/713689.bmp_pp153_L3_V1.0_veridical_freeview_isoTrue.mp4",""
"","","","call-function","352","703742","0.0-352.0","w6xvdhgb","","","","","","","",""
"2514.6650000000373","{""judgement"":0}","[0]","survey-likert","353","706257","0.0-353.0","w6xvdhgb","","","","","","","","1"
"1300.1300000000047","{""confidence"":0}","[0]","survey-likert","354","707559","0.0-354.0","w6xvdhgb","","","","","","","",""
"","","","call-function","355","707559","0.0-355.0","w6xvdhgb","","","","","","","",""
"null","","","html-keyboard-response","356","709061","0.0-356.0","w6xvdhgb","","<span style=""color:Black; font-size:50px;"">Agent A","null","","","","",""
"null","","","video-keyboard-response","357","712168","0.0-357.0","w6xvdhgb","","","null","","Agent A","veridical","STIM_SET_2/1591781.bmp_pp63_L1_V1.0_veridical_freeview_isoTrue.mp4",""
"null","","","html-keyboard-response","358","713672","0.0-358.0","w6xvdhgb","","<span style=""color:Black; font-size:50px;"">Agent B","null","","","","",""
"null","","","video-keyboard-response","359","716781","0.0-359.0","w6xvdhgb","","","null","","Agent B","scrambled","STIM_SET_2/1591781.bmp_pp63_L1_V1.0_scrambled_freeview_isoTrue.mp4",""
"","","","call-function","360","716782","0.0-360.0","w6xvdhgb","","","","","","","",""
"1914.9149999999208","{""judgement"":0}","[0]","survey-likert","361","718698","0.0-361.0","w6xvdhgb","","","","","","","","0"
"1069.0200000000186","{""confidence"":3}","[0]","survey-likert","362","719768","0.0-362.0","w6xvdhgb","","","","","","","",""
"","","","call-function","363","719768","0.0-363.0","w6xvdhgb","","","","","","","",""
"null","","","html-keyboard-response","364","721274","0.0-364.0","w6xvdhgb","","<span style=""color:Black; font-size:50px;"">Agent A","null","","","","",""
"null","","","video-keyboard-response","365","724373","0.0-365.0","w6xvdhgb","","","null","","Agent A","veridical","STIM_SET_2/1160247.bmp_pp54_L2_V1.0_veridical_freeview_isoTrue.mp4",""
"null","","","html-keyboard-response","366","725878","0.0-366.0","w6xvdhgb","","<span style=""color:Black; font-size:50px;"">Agent B","null","","","","",""
"null","","","video-keyboard-response","367","728998","0.0-367.0","w6xvdhgb","","","null","","Agent B","scrambled","STIM_SET_2/1160247.bmp_pp54_L2_V1.0_scrambled_freeview_isoTrue.mp4",""
"","","","call-function","368","728999","0.0-368.0","w6xvdhgb","","","","","","","",""
"1986.3249999999534","{""judgement"":0}","[0]","survey-likert","369","730986","0.0-369.0","w6xvdhgb","","","","","","","","0"
"1766.8000000000466","{""confidence"":3}","[0]","survey-likert","370","732755","0.0-370.0","w6xvdhgb","","","","","","","",""
"","","","call-function","371","732756","0.0-371.0","w6xvdhgb","","","","","","","",""
"null","","","html-keyboard-response","372","734261","0.0-372.0","w6xvdhgb","","<span style=""color:Black; font-size:50px;"">Agent A","null","","","","",""
"null","","","video-keyboard-response","373","737330","0.0-373.0","w6xvdhgb","","","null","","Agent A","scrambled","STIM_SET_2/1592047.bmp_pp51_L1_V1.0_scrambled_freeview_isoTrue.mp4",""
"null","","","html-keyboard-response","374","738837","0.0-374.0","w6xvdhgb","","<span style=""color:Black; font-size:50px;"">Agent B","null","","","","",""
"null","","","video-keyboard-response","375","741908","0.0-375.0","w6xvdhgb","","","null","","Agent B","veridical","STIM_SET_2/1592047.bmp_pp51_L1_V1.0_veridical_freeview_isoTrue.mp4",""
"","","","call-function","376","741908","0.0-376.0","w6xvdhgb","","","","","","","",""
"1756.6600000000326","{""judgement"":1}","[0]","survey-likert","377","743666","0.0-377.0","w6xvdhgb","","","","","","","","1"
"1185","{""confidence"":1}","[0]","survey-likert","378","744852","0.0-378.0","w6xvdhgb","","","","","","","",""
"","","","call-function","379","744852","0.0-379.0","w6xvdhgb","","","","","","","",""
"null","","","html-keyboard-response","380","746358","0.0-380.0","w6xvdhgb","","<span style=""color:Black; font-size:50px;"">Agent A","null","","","","",""
"null","","","video-keyboard-response","381","749425","0.0-381.0","w6xvdhgb","","","null","","Agent A","scrambled","STIM_SET_2/1592857.bmp_pp52_L1_V1_scrambled_freeview_isoTrue.mp4",""
"null","","","html-keyboard-response","382","750927","0.0-382.0","w6xvdhgb","","<span style=""color:Black; font-size:50px;"">Agent B","null","","","","",""
"null","","","video-keyboard-response","383","753993","0.0-383.0","w6xvdhgb","","","null","","Agent B","veridical","STIM_SET_2/1592857.bmp_pp52_L1_V1_veridical_freeview_isoTrue.mp4",""
"","","","call-function","384","753994","0.0-384.0","w6xvdhgb","","","","","","","",""
"4877.5299999999115","{""judgement"":1}","[0]","survey-likert","385","758873","0.0-385.0","w6xvdhgb","","","","","","","","1"
"3115.944999999949","{""confidence"":1}","[0]","survey-likert","386","761989","0.0-386.0","w6xvdhgb","","","","","","","",""
"","","","call-function","387","761990","0.0-387.0","w6xvdhgb","","","","","","","",""
"null","","","html-keyboard-response","388","763496","0.0-388.0","w6xvdhgb","","<span style=""color:Black; font-size:50px;"">Agent A","null","","","","",""
"null","","","video-keyboard-response","389","766596","0.0-389.0","w6xvdhgb","","","null","","Agent A","veridical","STIM_SET_2/1159329.bmp_pp61_L2_V1.0_veridical_freeview_isoTrue.mp4",""
"null","","","html-keyboard-response","390","768099","0.0-390.0","w6xvdhgb","","<span style=""color:Black; font-size:50px;"">Agent B","null","","","","",""
"null","","","video-keyboard-response","391","771196","0.0-391.0","w6xvdhgb","","","null","","Agent B","scrambled","STIM_SET_2/1159329.bmp_pp61_L2_V1.0_scrambled_freeview_isoTrue.mp4",""
"","","","call-function","392","771196","0.0-392.0","w6xvdhgb","","","","","","","",""
"1345.3200000000652","{""judgement"":0}","[0]","survey-likert","393","772543","0.0-393.0","w6xvdhgb","","","","","","","","0"
"1982.3050000000512","{""confidence"":2}","[0]","survey-likert","394","774526","0.0-394.0","w6xvdhgb","","","","","","","",""
"","","","call-function","395","774526","0.0-395.0","w6xvdhgb","","","","","","","",""
"null","","","html-keyboard-response","396","776030","0.0-396.0","w6xvdhgb","","<span style=""color:Black; font-size:50px;"">Agent A","null","","","","",""
"null","","","video-keyboard-response","397","779087","0.0-397.0","w6xvdhgb","","","null","","Agent A","scrambled","STIM_SET_2/107955.bmp_pp90_L2_V1.0_scrambled_freeview_isoTrue.mp4",""
"null","","","html-keyboard-response","398","780589","0.0-398.0","w6xvdhgb","","<span style=""color:Black; font-size:50px;"">Agent B","null","","","","",""
"null","","","video-keyboard-response","399","783646","0.0-399.0","w6xvdhgb","","","null","","Agent B","veridical","STIM_SET_2/107955.bmp_pp90_L2_V1.0_veridical_freeview_isoTrue.mp4",""
"","","","call-function","400","783646","0.0-400.0","w6xvdhgb","","","","","","","",""
"2510.6450000000186","{""judgement"":1}","[0]","survey-likert","401","786158","0.0-401.0","w6xvdhgb","","","","","","","","1"
"1119.1100000001024","{""confidence"":1}","[0]","survey-likert","402","787278","0.0-402.0","w6xvdhgb","","","","","","","",""
"","","","call-function","403","787278","0.0-403.0","w6xvdhgb","","","","","","","",""
"null","","","html-keyboard-response","404","788783","0.0-404.0","w6xvdhgb","","<span style=""color:Black; font-size:50px;"">Agent A","null","","","","",""
"null","","","video-keyboard-response","405","791887","0.0-405.0","w6xvdhgb","","","null","","Agent A","veridical","STIM_SET_2/713633.bmp_pp58_L1_V1.0_veridical_freeview_isoTrue.mp4",""
"null","","","html-keyboard-response","406","793390","0.0-406.0","w6xvdhgb","","<span style=""color:Black; font-size:50px;"">Agent B","null","","","","",""
"null","","","video-keyboard-response","407","796492","0.0-407.0","w6xvdhgb","","","null","","Agent B","scrambled","STIM_SET_2/713633.bmp_pp58_L1_V1.0_scrambled_freeview_isoTrue.mp4",""
"","","","call-function","408","796493","0.0-408.0","w6xvdhgb","","","","","","","",""
"2258.5599999999395","{""judgement"":0}","[0]","survey-likert","409","798752","0.0-409.0","w6xvdhgb","","","","","","","","0"
"928.1450000000186","{""confidence"":2}","[0]","survey-likert","410","799682","0.0-410.0","w6xvdhgb","","","","","","","",""
"","","","call-function","411","799682","0.0-411.0","w6xvdhgb","","","","","","","",""
"null","","","html-keyboard-response","412","801185","0.0-412.0","w6xvdhgb","","<span style=""color:Black; font-size:50px;"">Agent A","null","","","","",""
"null","","","video-keyboard-response","413","804260","0.0-413.0","w6xvdhgb","","","null","","Agent A","veridical","STIM_SET_2/713770.bmp_pp89_L1_V1.0_veridical_freeview_isoTrue.mp4",""
"null","","","html-keyboard-response","414","805764","0.0-414.0","w6xvdhgb","","<span style=""color:Black; font-size:50px;"">Agent B","null","","","","",""
"null","","","video-keyboard-response","415","808846","0.0-415.0","w6xvdhgb","","","null","","Agent B","scrambled","STIM_SET_2/713770.bmp_pp89_L1_V1.0_scrambled_freeview_isoTrue.mp4",""
"","","","call-function","416","808847","0.0-416.0","w6xvdhgb","","","","","","","",""
"1255.2700000000186","{""judgement"":0}","[0]","survey-likert","417","810103","0.0-417.0","w6xvdhgb","","","","","","","","0"
"2838.375","{""confidence"":2}","[0]","survey-likert","418","812943","0.0-418.0","w6xvdhgb","","","","","","","",""
"1785.1799999999348","","","instructions","419","814729","0.0-419.0","w6xvdhgb","[{""page_index"":0,""viewing_time"":1443.9949999999953},{""page_index"":1,""viewing_time"":181.09999999997672},{""page_index"":2,""viewing_time"":159.9199999999255}]","","","","","","",""
"1268.1849999999395","","","instructions","420","815997","0.0-420.0","w6xvdhgb","[{""page_index"":0,""viewing_time"":361.13000000000466},{""page_index"":1,""viewing_time"":441.9299999999348},{""page_index"":2,""viewing_time"":465.0250000000233}]","","","","","","",""
"","","","call-function","421","815998","0.0-421.0","w6xvdhgb","","","","","","","",""
"null","","","html-keyboard-response","422","817500","0.0-422.0","w6xvdhgb","","<span style=""color:Black; font-size:50px;"">Agent A","null","","","","",""
"null","","","video-keyboard-response","423","820580","0.0-423.0","w6xvdhgb","","","null","","Agent A","scrambled","STIM_SET_2/1159592.bmp_pp91_L3_V1.0_scrambled_freeview_isoTrue.mp4",""
"null","","","html-keyboard-response","424","822083","0.0-424.0","w6xvdhgb","","<span style=""color:Black; font-size:50px;"">Agent B","null","","","","",""
"null","","","video-keyboard-response","425","825159","0.0-425.0","w6xvdhgb","","","null","","Agent B","veridical","STIM_SET_2/1159592.bmp_pp91_L3_V1.0_veridical_freeview_isoTrue.mp4",""
"","","","call-function","426","825160","0.0-426.0","w6xvdhgb","","","","","","","",""
"2039.1450000000186","{""judgement"":1}","[0]","survey-likert","427","827200","0.0-427.0","w6xvdhgb","","","","","","","","1"
"1345.9350000000559","{""confidence"":0}","[0]","survey-likert","428","828547","0.0-428.0","w6xvdhgb","","","","","","","",""
"","","","call-function","429","828547","0.0-429.0","w6xvdhgb","","","","","","","",""
"null","","","html-keyboard-response","430","830052","0.0-430.0","w6xvdhgb","","<span style=""color:Black; font-size:50px;"">Agent A","null","","","","",""
"null","","","video-keyboard-response","431","833151","0.0-431.0","w6xvdhgb","","","null","","Agent A","veridical","STIM_SET_2/498258.bmp_pp51_L1_V1.0_veridical_freeview_isoTrue.mp4",""
"null","","","html-keyboard-response","432","834654","0.0-432.0","w6xvdhgb","","<span style=""color:Black; font-size:50px;"">Agent B","null","","","","",""
"null","","","video-keyboard-response","433","837751","0.0-433.0","w6xvdhgb","","","null","","Agent B","scrambled","STIM_SET_2/498258.bmp_pp51_L1_V1.0_scrambled_freeview_isoTrue.mp4",""
"","","","call-function","434","837752","0.0-434.0","w6xvdhgb","","","","","","","",""
"1672.045000000042","{""judgement"":0}","[0]","survey-likert","435","839425","0.0-435.0","w6xvdhgb","","","","","","","","0"
"949.9899999999907","{""confidence"":2}","[0]","survey-likert","436","840376","0.0-436.0","w6xvdhgb","","","","","","","",""
"","","","call-function","437","840376","0.0-437.0","w6xvdhgb","","","","","","","",""
"null","","","html-keyboard-response","438","841881","0.0-438.0","w6xvdhgb","","<span style=""color:Black; font-size:50px;"">Agent A","null","","","","",""
"null","","","video-keyboard-response","439","844972","0.0-439.0","w6xvdhgb","","","null","","Agent A","scrambled","STIM_SET_2/286034.bmp_pp69_L3_V1.0_scrambled_freeview_isoTrue.mp4",""
"null","","","html-keyboard-response","440","846478","0.0-440.0","w6xvdhgb","","<span style=""color:Black; font-size:50px;"">Agent B","null","","","","",""
"null","","","video-keyboard-response","441","849568","0.0-441.0","w6xvdhgb","","","null","","Agent B","veridical","STIM_SET_2/286034.bmp_pp69_L3_V1.0_veridical_freeview_isoTrue.mp4",""
"","","","call-function","442","849570","0.0-442.0","w6xvdhgb","","","","","","","",""
"1408.5549999999348","{""judgement"":1}","[0]","survey-likert","443","850980","0.0-443.0","w6xvdhgb","","","","","","","","1"
"1637.0850000000792","{""confidence"":3}","[0]","survey-likert","444","852618","0.0-444.0","w6xvdhgb","","","","","","","",""
"","","","call-function","445","852619","0.0-445.0","w6xvdhgb","","","","","","","",""
"null","","","html-keyboard-response","446","854120","0.0-446.0","w6xvdhgb","","<span style=""color:Black; font-size:50px;"">Agent A","null","","","","",""
"null","","","video-keyboard-response","447","857240","0.0-447.0","w6xvdhgb","","","null","","Agent A","veridical","STIM_SET_2/713788.bmp_pp52_L1_V1.0_veridical_freeview_isoTrue.mp4",""
"null","","","html-keyboard-response","448","858743","0.0-448.0","w6xvdhgb","","<span style=""color:Black; font-size:50px;"">Agent B","null","","","","",""
"null","","","video-keyboard-response","449","861817","0.0-449.0","w6xvdhgb","","","null","","Agent B","scrambled","STIM_SET_2/713788.bmp_pp52_L1_V1.0_scrambled_freeview_isoTrue.mp4",""
"","","","call-function","450","861818","0.0-450.0","w6xvdhgb","","","","","","","",""
"1838.4299999999348","{""judgement"":0}","[0]","survey-likert","451","863657","0.0-451.0","w6xvdhgb","","","","","","","","0"
"1672.875","{""confidence"":3}","[0]","survey-likert","452","865331","0.0-452.0","w6xvdhgb","","","","","","","",""
"","","","call-function","453","865332","0.0-453.0","w6xvdhgb","","","","","","","",""
"null","","","html-keyboard-response","454","866834","0.0-454.0","w6xvdhgb","","<span style=""color:Black; font-size:50px;"">Agent A","null","","","","",""
"null","","","video-keyboard-response","455","869900","0.0-455.0","w6xvdhgb","","","null","","Agent A","veridical","STIM_SET_2/285684.bmp_pp80_L3_V1.0_veridical_freeview_isoTrue.mp4",""
"null","","","html-keyboard-response","456","871406","0.0-456.0","w6xvdhgb","","<span style=""color:Black; font-size:50px;"">Agent B","null","","","","",""
"null","","","video-keyboard-response","457","874473","0.0-457.0","w6xvdhgb","","","null","","Agent B","scrambled","STIM_SET_2/285684.bmp_pp80_L3_V1.0_scrambled_freeview_isoTrue.mp4",""
"","","","call-function","458","874474","0.0-458.0","w6xvdhgb","","","","","","","",""
"2572","{""judgement"":0}","[0]","survey-likert","459","877047","0.0-459.0","w6xvdhgb","","","","","","","","0"
"1082.0700000000652","{""confidence"":3}","[0]","survey-likert","460","878130","0.0-460.0","w6xvdhgb","","","","","","","",""
"","","","call-function","461","878131","0.0-461.0","w6xvdhgb","","","","","","","",""
"null","","","html-keyboard-response","462","879633","0.0-462.0","w6xvdhgb","","<span style=""color:Black; font-size:50px;"">Agent A","null","","","","",""
"null","","","video-keyboard-response","463","882711","0.0-463.0","w6xvdhgb","","","null","","Agent A","scrambled","STIM_SET_2/1592038.bmp_pp79_L2_V1.0_scrambled_freeview_isoTrue.mp4",""
"null","","","html-keyboard-response","464","884216","0.0-464.0","w6xvdhgb","","<span style=""color:Black; font-size:50px;"">Agent B","null","","","","",""
"null","","","video-keyboard-response","465","887315","0.0-465.0","w6xvdhgb","","","null","","Agent B","veridical","STIM_SET_2/1592038.bmp_pp79_L2_V1.0_veridical_freeview_isoTrue.mp4",""
"","","","call-function","466","887316","0.0-466.0","w6xvdhgb","","","","","","","",""
"1679.4300000000512","{""judgement"":0}","[0]","survey-likert","467","888996","0.0-467.0","w6xvdhgb","","","","","","","","1"
"1850.0699999999488","{""confidence"":2}","[0]","survey-likert","468","890847","0.0-468.0","w6xvdhgb","","","","","","","",""
"","","","call-function","469","890848","0.0-469.0","w6xvdhgb","","","","","","","",""
"null","","","html-keyboard-response","470","892350","0.0-470.0","w6xvdhgb","","<span style=""color:Black; font-size:50px;"">Agent A","null","","","","",""
"null","","","video-keyboard-response","471","895444","0.0-471.0","w6xvdhgb","","","null","","Agent A","veridical","STIM_SET_2/498326.bmp_pp57_L1_V1.0_veridical_freeview_isoTrue.mp4",""
"null","","","html-keyboard-response","472","896947","0.0-472.0","w6xvdhgb","","<span style=""color:Black; font-size:50px;"">Agent B","null","","","","",""
"null","","","video-keyboard-response","473","900042","0.0-473.0","w6xvdhgb","","","null","","Agent B","scrambled","STIM_SET_2/498326.bmp_pp57_L1_V1.0_scrambled_freeview_isoTrue.mp4",""
"","","","call-function","474","900043","0.0-474.0","w6xvdhgb","","","","","","","",""
"1739.2399999999907","{""judgement"":0}","[0]","survey-likert","475","901783","0.0-475.0","w6xvdhgb","","","","","","","","0"
"2399.8549999999814","{""confidence"":2}","[0]","survey-likert","476","904184","0.0-476.0","w6xvdhgb","","","","","","","",""
"","","","call-function","477","904184","0.0-477.0","w6xvdhgb","","","","","","","",""
"null","","","html-keyboard-response","478","905687","0.0-478.0","w6xvdhgb","","<span style=""color:Black; font-size:50px;"">Agent A","null","","","","",""
"null","","","video-keyboard-response","479","908779","0.0-479.0","w6xvdhgb","","","null","","Agent A","veridical","STIM_SET_2/498025.bmp_pp81_L1_V1.0_veridical_freeview_isoTrue.mp4",""
"null","","","html-keyboard-response","480","910286","0.0-480.0","w6xvdhgb","","<span style=""color:Black; font-size:50px;"">Agent B","null","","","","",""
"null","","","video-keyboard-response","481","913373","0.0-481.0","w6xvdhgb","","","null","","Agent B","scrambled","STIM_SET_2/498025.bmp_pp81_L1_V1.0_scrambled_freeview_isoTrue.mp4",""
"","","","call-function","482","913373","0.0-482.0","w6xvdhgb","","","","","","","",""
"1065.3549999999814","{""judgement"":0}","[0]","survey-likert","483","914439","0.0-483.0","w6xvdhgb","","","","","","","","0"
"2192.115000000107","{""confidence"":2}","[0]","survey-likert","484","916633","0.0-484.0","w6xvdhgb","","","","","","","",""
"","","","call-function","485","916633","0.0-485.0","w6xvdhgb","","","","","","","",""
"null","","","html-keyboard-response","486","918137","0.0-486.0","w6xvdhgb","","<span style=""color:Black; font-size:50px;"">Agent A","null","","","","",""
"null","","","video-keyboard-response","487","921241","0.0-487.0","w6xvdhgb","","","null","","Agent A","veridical","STIM_SET_2/1592298.bmp_pp56_L3_V1.0_veridical_freeview_isoTrue.mp4",""
"null","","","html-keyboard-response","488","922744","0.0-488.0","w6xvdhgb","","<span style=""color:Black; font-size:50px;"">Agent B","null","","","","",""
"null","","","video-keyboard-response","489","925818","0.0-489.0","w6xvdhgb","","","null","","Agent B","scrambled","STIM_SET_2/1592298.bmp_pp56_L3_V1.0_scrambled_freeview_isoTrue.mp4",""
"","","","call-function","490","925819","0.0-490.0","w6xvdhgb","","","","","","","",""
"4584.175000000047","{""judgement"":1}","[0]","survey-likert","491","930404","0.0-491.0","w6xvdhgb","","","","","","","","0"
"1132.1199999999953","{""confidence"":0}","[0]","survey-likert","492","931537","0.0-492.0","w6xvdhgb","","","","","","","",""
"","","","call-function","493","931537","0.0-493.0","w6xvdhgb","","","","","","","",""
"null","","","html-keyboard-response","494","933044","0.0-494.0","w6xvdhgb","","<span style=""color:Black; font-size:50px;"">Agent A","null","","","","",""
"null","","","video-keyboard-response","495","936110","0.0-495.0","w6xvdhgb","","","null","","Agent A","scrambled","STIM_SET_2/1160049.bmp_pp53_L2_V1.0_scrambled_freeview_isoTrue.mp4",""
"null","","","html-keyboard-response","496","937616","0.0-496.0","w6xvdhgb","","<span style=""color:Black; font-size:50px;"">Agent B","null","","","","",""
"null","","","video-keyboard-response","497","940685","0.0-497.0","w6xvdhgb","","","null","","Agent B","veridical","STIM_SET_2/1160049.bmp_pp53_L2_V1.0_veridical_freeview_isoTrue.mp4",""
"","","","call-function","498","940686","0.0-498.0","w6xvdhgb","","","","","","","",""
"1197.5999999999767","{""judgement"":1}","[0]","survey-likert","499","941884","0.0-499.0","w6xvdhgb","","","","","","","","1"
"1402.7149999999674","{""confidence"":2}","[0]","survey-likert","500","943288","0.0-500.0","w6xvdhgb","","","","","","","",""
"36188.890000000014","","","instructions","501","979478","0.0-501.0","w6xvdhgb","[{""page_index"":0,""viewing_time"":35160.390000000014},{""page_index"":1,""viewing_time"":524.9200000000419},{""page_index"":2,""viewing_time"":503.43499999993946}]","","","","","","",""
"1371.1149999999907","","","instructions","502","980850","0.0-502.0","w6xvdhgb","[{""page_index"":0,""viewing_time"":426.0250000000233},{""page_index"":1,""viewing_time"":488.9099999999162},{""page_index"":2,""viewing_time"":456.06500000006054}]","","","","","","",""
"","","","call-function","503","980851","0.0-503.0","w6xvdhgb","","","","","","","",""
"null","","","html-keyboard-response","504","982356","0.0-504.0","w6xvdhgb","","<span style=""color:Black; font-size:50px;"">Agent A","null","","","","",""
"null","","","video-keyboard-response","505","985436","0.0-505.0","w6xvdhgb","","","null","","Agent A","scrambled","STIM_SET_2/713742.bmp_pp91_L3_V1.0_scrambled_freeview_isoTrue.mp4",""
"null","","","html-keyboard-response","506","986941","0.0-506.0","w6xvdhgb","","<span style=""color:Black; font-size:50px;"">Agent B","null","","","","",""
"null","","","video-keyboard-response","507","990021","0.0-507.0","w6xvdhgb","","","null","","Agent B","veridical","STIM_SET_2/713742.bmp_pp91_L3_V1.0_veridical_freeview_isoTrue.mp4",""
"","","","call-function","508","990022","0.0-508.0","w6xvdhgb","","","","","","","",""
"2876.710000000079","{""judgement"":1}","[0]","survey-likert","509","992900","0.0-509.0","w6xvdhgb","","","","","","","","1"
"860.8549999999814","{""confidence"":1}","[0]","survey-likert","510","993762","0.0-510.0","w6xvdhgb","","","","","","","",""
"","","","call-function","511","993762","0.0-511.0","w6xvdhgb","","","","","","","",""
"null","","","html-keyboard-response","512","995265","0.0-512.0","w6xvdhgb","","<span style=""color:Black; font-size:50px;"">Agent A","null","","","","",""
"null","","","video-keyboard-response","513","998344","0.0-513.0","w6xvdhgb","","","null","","Agent A","veridical","STIM_SET_2/285946.bmp_pp79_L2_V1.0_veridical_freeview_isoTrue.mp4",""
"null","","","html-keyboard-response","514","999851","0.0-514.0","w6xvdhgb","","<span style=""color:Black; font-size:50px;"">Agent B","null","","","","",""
"null","","","video-keyboard-response","515","1002928","0.0-515.0","w6xvdhgb","","","null","","Agent B","scrambled","STIM_SET_2/285946.bmp_pp79_L2_V1.0_scrambled_freeview_isoTrue.mp4",""
"","","","call-function","516","1002928","0.0-516.0","w6xvdhgb","","","","","","","",""
"4805.4349999999395","{""judgement"":1}","[0]","survey-likert","517","1007735","0.0-517.0","w6xvdhgb","","","","","","","","0"
"1135.9250000000466","{""confidence"":0}","[0]","survey-likert","518","1008872","0.0-518.0","w6xvdhgb","","","","","","","",""
"","","","call-function","519","1008872","0.0-519.0","w6xvdhgb","","","","","","","",""
"null","","","html-keyboard-response","520","1010375","0.0-520.0","w6xvdhgb","","<span style=""color:Black; font-size:50px;"">Agent A","null","","","","",""
"null","","","video-keyboard-response","521","1013471","0.0-521.0","w6xvdhgb","","","null","","Agent A","scrambled","STIM_SET_2/1592567.bmp_pp70_L2_V1.0_scrambled_freeview_isoTrue.mp4",""
"null","","","html-keyboard-response","522","1014973","0.0-522.0","w6xvdhgb","","<span style=""color:Black; font-size:50px;"">Agent B","null","","","","",""
"null","","","video-keyboard-response","523","1018059","0.0-523.0","w6xvdhgb","","","null","","Agent B","veridical","STIM_SET_2/1592567.bmp_pp70_L2_V1.0_veridical_freeview_isoTrue.mp4",""
"","","","call-function","524","1018059","0.0-524.0","w6xvdhgb","","","","","","","",""
"2997.569999999949","{""judgement"":0}","[0]","survey-likert","525","1021057","0.0-525.0","w6xvdhgb","","","","","","","","1"
"1592.1799999999348","{""confidence"":1}","[0]","survey-likert","526","1022651","0.0-526.0","w6xvdhgb","","","","","","","",""
"","","","call-function","527","1022651","0.0-527.0","w6xvdhgb","","","","","","","",""
"null","","","html-keyboard-response","528","1024152","0.0-528.0","w6xvdhgb","","<span style=""color:Black; font-size:50px;"">Agent A","null","","","","",""
"null","","","video-keyboard-response","529","1027212","0.0-529.0","w6xvdhgb","","","null","","Agent A","scrambled","STIM_SET_2/713328.bmp_pp86_L2_V1.0_scrambled_freeview_isoTrue.mp4",""
"null","","","html-keyboard-response","530","1028714","0.0-530.0","w6xvdhgb","","<span style=""color:Black; font-size:50px;"">Agent B","null","","","","",""
"null","","","video-keyboard-response","531","1031771","0.0-531.0","w6xvdhgb","","","null","","Agent B","veridical","STIM_SET_2/713328.bmp_pp86_L2_V1.0_veridical_freeview_isoTrue.mp4",""
"","","","call-function","532","1031772","0.0-532.0","w6xvdhgb","","","","","","","",""
"2990.0250000000233","{""judgement"":1}","[0]","survey-likert","533","1034763","0.0-533.0","w6xvdhgb","","","","","","","","1"
"1750.625","{""confidence"":1}","[0]","survey-likert","534","1036514","0.0-534.0","w6xvdhgb","","","","","","","",""
"","","","call-function","535","1036515","0.0-535.0","w6xvdhgb","","","","","","","",""
"null","","","html-keyboard-response","536","1038020","0.0-536.0","w6xvdhgb","","<span style=""color:Black; font-size:50px;"">Agent A","null","","","","",""
"null","","","video-keyboard-response","537","1041120","0.0-537.0","w6xvdhgb","","","null","","Agent A","veridical","STIM_SET_2/1159819.bmp_pp151_L1_V1.0_veridical_freeview_isoTrue.mp4",""
"null","","","html-keyboard-response","538","1042627","0.0-538.0","w6xvdhgb","","<span style=""color:Black; font-size:50px;"">Agent B","null","","","","",""
"null","","","video-keyboard-response","539","1045724","0.0-539.0","w6xvdhgb","","","null","","Agent B","scrambled","STIM_SET_2/1159819.bmp_pp151_L1_V1.0_scrambled_freeview_isoTrue.mp4",""
"","","","call-function","540","1045725","0.0-540.0","w6xvdhgb","","","","","","","",""
"1574.984999999986","{""judgement"":0}","[0]","survey-likert","541","1047301","0.0-541.0","w6xvdhgb","","","","","","","","0"
"1028.9449999999488","{""confidence"":3}","[0]","survey-likert","542","1048331","0.0-542.0","w6xvdhgb","","","","","","","",""
"","","","call-function","543","1048331","0.0-543.0","w6xvdhgb","","","","","","","",""
"null","","","html-keyboard-response","544","1049835","0.0-544.0","w6xvdhgb","","<span style=""color:Black; font-size:50px;"">Agent A","null","","","","",""
"null","","","video-keyboard-response","545","1052907","0.0-545.0","w6xvdhgb","","","null","","Agent A","veridical","STIM_SET_2/150463.bmp_pp55_L3_V1.0_veridical_freeview_isoTrue.mp4",""
"null","","","html-keyboard-response","546","1054411","0.0-546.0","w6xvdhgb","","<span style=""color:Black; font-size:50px;"">Agent B","null","","","","",""
"null","","","video-keyboard-response","547","1057485","0.0-547.0","w6xvdhgb","","","null","","Agent B","scrambled","STIM_SET_2/150463.bmp_pp55_L3_V1.0_scrambled_freeview_isoTrue.mp4",""
"","","","call-function","548","1057485","0.0-548.0","w6xvdhgb","","","","","","","",""
"2541.939999999944","{""judgement"":1}","[0]","survey-likert","549","1060028","0.0-549.0","w6xvdhgb","","","","","","","","0"
"1518.1149999999907","{""confidence"":1}","[0]","survey-likert","550","1061547","0.0-550.0","w6xvdhgb","","","","","","","",""
"","","","call-function","551","1061548","0.0-551.0","w6xvdhgb","","","","","","","",""
"null","","","html-keyboard-response","552","1063050","0.0-552.0","w6xvdhgb","","<span style=""color:Black; font-size:50px;"">Agent A","null","","","","",""
"null","","","video-keyboard-response","553","1066119","0.0-553.0","w6xvdhgb","","","null","","Agent A","veridical","STIM_SET_2/713829.bmp_pp60_L3_V1.0_veridical_freeview_isoTrue.mp4",""
"null","","","html-keyboard-response","554","1067625","0.0-554.0","w6xvdhgb","","<span style=""color:Black; font-size:50px;"">Agent B","null","","","","",""
"null","","","video-keyboard-response","555","1070692","0.0-555.0","w6xvdhgb","","","null","","Agent B","scrambled","STIM_SET_2/713829.bmp_pp60_L3_V1.0_scrambled_freeview_isoTrue.mp4",""
"","","","call-function","556","1070693","0.0-556.0","w6xvdhgb","","","","","","","",""
"2502.0149999998976","{""judgement"":0}","[0]","survey-likert","557","1073196","0.0-557.0","w6xvdhgb","","","","","","","","0"
"2918.5200000000186","{""confidence"":1}","[0]","survey-likert","558","1076116","0.0-558.0","w6xvdhgb","","","","","","","",""
"","","","call-function","559","1076116","0.0-559.0","w6xvdhgb","","","","","","","",""
"null","","","html-keyboard-response","560","1077618","0.0-560.0","w6xvdhgb","","<span style=""color:Black; font-size:50px;"">Agent A","null","","","","",""
"null","","","video-keyboard-response","561","1080722","0.0-561.0","w6xvdhgb","","","null","","Agent A","veridical","STIM_SET_2/713858.bmp_pp57_L1_V1.0_veridical_freeview_isoTrue.mp4",""
"null","","","html-keyboard-response","562","1082229","0.0-562.0","w6xvdhgb","","<span style=""color:Black; font-size:50px;"">Agent B","null","","","","",""
"null","","","video-keyboard-response","563","1085305","0.0-563.0","w6xvdhgb","","","null","","Agent B","scrambled","STIM_SET_2/713858.bmp_pp57_L1_V1.0_scrambled_freeview_isoTrue.mp4",""
"","","","call-function","564","1085307","0.0-564.0","w6xvdhgb","","","","","","","",""
"1645.5500000000466","{""judgement"":0}","[0]","survey-likert","565","1086954","0.0-565.0","w6xvdhgb","","","","","","","","0"
"2235.905000000028","{""confidence"":1}","[0]","survey-likert","566","1089191","0.0-566.0","w6xvdhgb","","","","","","","",""
"","","","call-function","567","1089192","0.0-567.0","w6xvdhgb","","","","","","","",""
"null","","","html-keyboard-response","568","1090694","0.0-568.0","w6xvdhgb","","<span style=""color:Black; font-size:50px;"">Agent A","null","","","","",""
"null","","","video-keyboard-response","569","1093766","0.0-569.0","w6xvdhgb","","","null","","Agent A","veridical","STIM_SET_2/713920.bmp_pp76_L1_V1.0_veridical_freeview_isoTrue.mp4",""
"null","","","html-keyboard-response","570","1095271","0.0-570.0","w6xvdhgb","","<span style=""color:Black; font-size:50px;"">Agent B","null","","","","",""
"null","","","video-keyboard-response","571","1098343","0.0-571.0","w6xvdhgb","","","null","","Agent B","scrambled","STIM_SET_2/713920.bmp_pp76_L1_V1.0_scrambled_freeview_isoTrue.mp4",""
"","","","call-function","572","1098344","0.0-572.0","w6xvdhgb","","","","","","","",""
"1481.2050000000745","{""judgement"":0}","[0]","survey-likert","573","1099826","0.0-573.0","w6xvdhgb","","","","","","","","0"
"1344.344999999972","{""confidence"":1}","[0]","survey-likert","574","1101172","0.0-574.0","w6xvdhgb","","","","","","","",""
"","","","call-function","575","1101172","0.0-575.0","w6xvdhgb","","","","","","","",""
"null","","","html-keyboard-response","576","1102679","0.0-576.0","w6xvdhgb","","<span style=""color:Black; font-size:50px;"">Agent A","null","","","","",""
"null","","","video-keyboard-response","577","1105749","0.0-577.0","w6xvdhgb","","","null","","Agent A","veridical","STIM_SET_2/1592044.bmp_pp94_L2_V1.0_veridical_freeview_isoTrue.mp4",""
"null","","","html-keyboard-response","578","1107254","0.0-578.0","w6xvdhgb","","<span style=""color:Black; font-size:50px;"">Agent B","null","","","","",""
"null","","","video-keyboard-response","579","1110350","0.0-579.0","w6xvdhgb","","","null","","Agent B","scrambled","STIM_SET_2/1592044.bmp_pp94_L2_V1.0_scrambled_freeview_isoTrue.mp4",""
"","","","call-function","580","1110351","0.0-580.0","w6xvdhgb","","","","","","","",""
"1502.5700000000652","{""judgement"":0}","[0]","survey-likert","581","1111854","0.0-581.0","w6xvdhgb","","","","","","","","0"
"2677.439999999944","{""confidence"":3}","[0]","survey-likert","582","1114533","0.0-582.0","w6xvdhgb","","","","","","","",""
"1418.1299999998882","","","instructions","583","1115951","0.0-583.0","w6xvdhgb","[{""page_index"":0,""viewing_time"":1418}]","","","","","","",""
"1501.5400000000373","","","instructions","584","1117453","0.0-584.0","w6xvdhgb","[{""page_index"":0,""viewing_time"":1501.3200000000652}]","","","","","","",""
"28896.110000000102","{""post-1"":2}","[0]","survey-likert","585","1146350","0.0-585.0","w6xvdhgb","","","","","","","",""
"3057.7649999998976","{""post-1"":0}","[0]","survey-likert","586","1149409","0.0-586.0","w6xvdhgb","","","","","","","",""
"8040.034999999916","{""post-2"":1}","[0]","survey-likert","587","1157450","0.0-587.0","w6xvdhgb","","","","","","","",""
"2810.909999999916","{""post-2"":0}","[0]","survey-likert","588","1160262","0.0-588.0","w6xvdhgb","","","","","","","",""
"6360.225000000093","{""post-3"":2}","[0]","survey-likert","589","1166624","0.0-589.0","w6xvdhgb","","","","","","","",""
"6444.179999999935","{""post-3"":1}","[0]","survey-likert","590","1173069","0.0-590.0","w6xvdhgb","","","","","","","",""
"7202.594999999972","{""post-4"":1}","[0]","survey-likert","591","1180274","0.0-591.0","w6xvdhgb","","","","","","","",""
"1929.2750000001397","{""post-4"":0}","[0]","survey-likert","592","1182205","0.0-592.0","w6xvdhgb","","","","","","","",""
"7311.440000000177","{""post-5"":1}","[0]","survey-likert","593","1189518","0.0-593.0","w6xvdhgb","","","","","","","",""
"1855.6599999999162","{""post-5"":3}","[0]","survey-likert","594","1191375","0.0-594.0","w6xvdhgb","","","","","","","",""
"68171.16500000004","{""Q0"":""This task was harder than the one with the pictures since I couldn't use other cues to come to a conclusion. ""}","","survey-text","595","1259551","0.0-595.0","w6xvdhgb","","","","","","","",""
"38051.30000000005","{""Q0"":""The videos I judged to be most human moved less randomly around the black screen and more in a continuous pattern. ""}","","survey-text","596","1297606","0.0-596.0","w6xvdhgb","","","","","","","",""
"16710.89500000002","{""Q0"":""Not having a background picture made it harder since there was no context. ""}","","survey-text","597","1314321","0.0-597.0","w6xvdhgb","","","","","","","",""
"1120.0100000000093","","","instructions","598","1315442","0.0-598.0","w6xvdhgb","[{""page_index"":0,""viewing_time"":1119.875}]","","","","","","",""
"2017102.7500000002","{""Experimenter_end"":[""Printed ID# w6xvdhgb on consent form"",""Given subject SONA credit or payment"",""Given the subject debrief form""]}","[0]","survey-multi-select","599","3332552","0.0-599.0","w6xvdhgb","","","","","","","",""
