"rt","responses","question_order","trial_type","trial_index","time_elapsed","internal_node_id","ID","view_history","stimulus","key_press","value","agent","condition","image","correct_answer"
"52302.659999999996","{""Experimenter"":[""Confirmed subject's identity"",""Confirmed normal or corrected-to-normal vision"",""Obtained consent (signature and date)"",""Checked the test room lighting"",""Checked computer screen lighting"",""Checked distance from screen to chin rest (50cm)"",""Cleaned and adjusted chin rest"",""Counterbalanced the order of the tasks"",""Opened the experiment in Firefox"",""Made the experiment full screen"",""Encouraged subject to silence phone, put away distractors, etc.""]}","[0]","survey-multi-select","0","52311","0.0-0.0","wexsd9v0","","","","","","","",""
"34143.814999999995","","","instructions","1","86457","0.0-1.0","wexsd9v0","[{""page_index"":0,""viewing_time"":34143.665}]","","","","","","",""
"18400.48999999999","","","instructions","2","104858","0.0-2.0","wexsd9v0","[{""page_index"":0,""viewing_time"":8854.12999999999},{""page_index"":1,""viewing_time"":1927.9800000000105},{""page_index"":2,""viewing_time"":7618.099999999991}]","","","","","","",""
"4003.1399999999994","","","instructions","3","108862","0.0-3.0","wexsd9v0","[{""page_index"":0,""viewing_time"":4003.029999999999}]","","","","","","",""
"null","","","video-keyboard-response","4","111936","0.0-4.0","wexsd9v0","","","null","","","","",""
"15279.86","","","instructions","5","127216","0.0-5.0","wexsd9v0","[{""page_index"":0,""viewing_time"":4243.654999999999},{""page_index"":1,""viewing_time"":5828.220000000001},{""page_index"":2,""viewing_time"":5207.875}]","","","","","","",""
"4903.360000000001","","","instructions","6","132120","0.0-6.0","wexsd9v0","[{""page_index"":0,""viewing_time"":4903.25499999999}]","","","","","","",""
"1351.6449999999895","","","instructions","7","133472","0.0-7.0","wexsd9v0","[{""page_index"":0,""viewing_time"":1351.429999999993}]","","","","","","",""
"null","","","video-keyboard-response","8","136544","0.0-8.0","wexsd9v0","","","null","","","","",""
"15385.065000000002","","","instructions","9","151930","0.0-9.0","wexsd9v0","[{""page_index"":0,""viewing_time"":1852.2549999999756},{""page_index"":1,""viewing_time"":4103.625},{""page_index"":2,""viewing_time"":9429.050000000017}]","","","","","","",""
"6228.5749999999825","","","instructions","10","158159","0.0-10.0","wexsd9v0","[{""page_index"":0,""viewing_time"":6228.454999999987}]","","","","","","",""
"","","","call-function","11","158160","0.0-11.0","wexsd9v0","","","","","","","",""
"null","","","html-keyboard-response","12","159663","0.0-12.0","wexsd9v0","","<span style=""color:Black; font-size:50px;"">Agent A","null","","","","",""
"null","","","video-keyboard-response","13","162734","0.0-13.0","wexsd9v0","","","null","","Agent A","veridical","STIM_SET_2/713652.bmp_pp89_L1_V1_veridical_freeview_isoTrue.mp4",""
"null","","","html-keyboard-response","14","164238","0.0-14.0","wexsd9v0","","<span style=""color:Black; font-size:50px;"">Agent B","null","","","","",""
"null","","","video-keyboard-response","15","167305","0.0-15.0","wexsd9v0","","","null","","Agent B","scrambled","STIM_SET_2/713652.bmp_pp89_L1_V1_scrambled_freeview_isoTrue.mp4",""
"","","","call-function","16","167305","0.0-16.0","wexsd9v0","","","","","","","",""
"9759.014999999985","{""judgement"":1}","[0]","survey-likert","17","177066","0.0-17.0","wexsd9v0","","","","","","","","0"
"3083.6849999999977","{""confidence"":1}","[0]","survey-likert","18","180151","0.0-18.0","wexsd9v0","","","","","","","",""
"","","","call-function","19","180152","0.0-19.0","wexsd9v0","","","","","","","",""
"null","","","html-keyboard-response","20","181655","0.0-20.0","wexsd9v0","","<span style=""color:Black; font-size:50px;"">Agent A","null","","","","",""
"null","","","video-keyboard-response","21","184731","0.0-21.0","wexsd9v0","","","null","","Agent A","scrambled","STIM_SET_2/713920.bmp_pp76_L1_V1.0_scrambled_freeview_isoTrue.mp4",""
"null","","","html-keyboard-response","22","186236","0.0-22.0","wexsd9v0","","<span style=""color:Black; font-size:50px;"">Agent B","null","","","","",""
"null","","","video-keyboard-response","23","189310","0.0-23.0","wexsd9v0","","","null","","Agent B","veridical","STIM_SET_2/713920.bmp_pp76_L1_V1.0_veridical_freeview_isoTrue.mp4",""
"","","","call-function","24","189311","0.0-24.0","wexsd9v0","","","","","","","",""
"2147.4250000000175","{""judgement"":1}","[0]","survey-likert","25","191459","0.0-25.0","wexsd9v0","","","","","","","","1"
"1867.015000000014","{""confidence"":2}","[0]","survey-likert","26","193328","0.0-26.0","wexsd9v0","","","","","","","",""
"","","","call-function","27","193328","0.0-27.0","wexsd9v0","","","","","","","",""
"null","","","html-keyboard-response","28","194832","0.0-28.0","wexsd9v0","","<span style=""color:Black; font-size:50px;"">Agent A","null","","","","",""
"null","","","video-keyboard-response","29","197906","0.0-29.0","wexsd9v0","","","null","","Agent A","scrambled","STIM_SET_2/1159508.bmp_pp151_L1_V1.0_scrambled_freeview_isoTrue.mp4",""
"null","","","html-keyboard-response","30","199411","0.0-30.0","wexsd9v0","","<span style=""color:Black; font-size:50px;"">Agent B","null","","","","",""
"null","","","video-keyboard-response","31","202486","0.0-31.0","wexsd9v0","","","null","","Agent B","veridical","STIM_SET_2/1159508.bmp_pp151_L1_V1.0_veridical_freeview_isoTrue.mp4",""
"","","","call-function","32","202486","0.0-32.0","wexsd9v0","","","","","","","",""
"8646.369999999995","{""judgement"":1}","[0]","survey-likert","33","211134","0.0-33.0","wexsd9v0","","","","","","","","1"
"3557.915000000008","{""confidence"":2}","[0]","survey-likert","34","214693","0.0-34.0","wexsd9v0","","","","","","","",""
"","","","call-function","35","214693","0.0-35.0","wexsd9v0","","","","","","","",""
"null","","","html-keyboard-response","36","216194","0.0-36.0","wexsd9v0","","<span style=""color:Black; font-size:50px;"">Agent A","null","","","","",""
"null","","","video-keyboard-response","37","219256","0.0-37.0","wexsd9v0","","","null","","Agent A","scrambled","STIM_SET_2/107955.bmp_pp90_L2_V1.0_scrambled_freeview_isoTrue.mp4",""
"null","","","html-keyboard-response","38","220758","0.0-38.0","wexsd9v0","","<span style=""color:Black; font-size:50px;"">Agent B","null","","","","",""
"null","","","video-keyboard-response","39","223855","0.0-39.0","wexsd9v0","","","null","","Agent B","veridical","STIM_SET_2/107955.bmp_pp90_L2_V1.0_veridical_freeview_isoTrue.mp4",""
"","","","call-function","40","223855","0.0-40.0","wexsd9v0","","","","","","","",""
"1822.2600000000093","{""judgement"":1}","[0]","survey-likert","41","225679","0.0-41.0","wexsd9v0","","","","","","","","1"
"1780.179999999993","{""confidence"":2}","[0]","survey-likert","42","227460","0.0-42.0","wexsd9v0","","","","","","","",""
"","","","call-function","43","227461","0.0-43.0","wexsd9v0","","","","","","","",""
"null","","","html-keyboard-response","44","228965","0.0-44.0","wexsd9v0","","<span style=""color:Black; font-size:50px;"">Agent A","null","","","","",""
"null","","","video-keyboard-response","45","232068","0.0-45.0","wexsd9v0","","","null","","Agent A","veridical","STIM_SET_2/1159329.bmp_pp61_L2_V1.0_veridical_freeview_isoTrue.mp4",""
"null","","","html-keyboard-response","46","233571","0.0-46.0","wexsd9v0","","<span style=""color:Black; font-size:50px;"">Agent B","null","","","","",""
"null","","","video-keyboard-response","47","236671","0.0-47.0","wexsd9v0","","","null","","Agent B","scrambled","STIM_SET_2/1159329.bmp_pp61_L2_V1.0_scrambled_freeview_isoTrue.mp4",""
"","","","call-function","48","236672","0.0-48.0","wexsd9v0","","","","","","","",""
"1884.8649999999907","{""judgement"":0}","[0]","survey-likert","49","238558","0.0-49.0","wexsd9v0","","","","","","","","0"
"2186.3649999999907","{""confidence"":2}","[0]","survey-likert","50","240745","0.0-50.0","wexsd9v0","","","","","","","",""
"","","","call-function","51","240746","0.0-51.0","wexsd9v0","","","","","","","",""
"null","","","html-keyboard-response","52","242249","0.0-52.0","wexsd9v0","","<span style=""color:Black; font-size:50px;"">Agent A","null","","","","",""
"null","","","video-keyboard-response","53","245354","0.0-53.0","wexsd9v0","","","null","","Agent A","scrambled","STIM_SET_2/1160247.bmp_pp54_L2_V1.0_scrambled_freeview_isoTrue.mp4",""
"null","","","html-keyboard-response","54","246858","0.0-54.0","wexsd9v0","","<span style=""color:Black; font-size:50px;"">Agent B","null","","","","",""
"null","","","video-keyboard-response","55","249933","0.0-55.0","wexsd9v0","","","null","","Agent B","veridical","STIM_SET_2/1160247.bmp_pp54_L2_V1.0_veridical_freeview_isoTrue.mp4",""
"","","","call-function","56","249934","0.0-56.0","wexsd9v0","","","","","","","",""
"2284.289999999979","{""judgement"":0}","[0]","survey-likert","57","252219","0.0-57.0","wexsd9v0","","","","","","","","1"
"1767.984999999986","{""confidence"":0}","[0]","survey-likert","58","253988","0.0-58.0","wexsd9v0","","","","","","","",""
"","","","call-function","59","253988","0.0-59.0","wexsd9v0","","","","","","","",""
"null","","","html-keyboard-response","60","255491","0.0-60.0","wexsd9v0","","<span style=""color:Black; font-size:50px;"">Agent A","null","","","","",""
"null","","","video-keyboard-response","61","258560","0.0-61.0","wexsd9v0","","","null","","Agent A","veridical","STIM_SET_2/286034.bmp_pp69_L3_V1.0_veridical_freeview_isoTrue.mp4",""
"null","","","html-keyboard-response","62","260065","0.0-62.0","wexsd9v0","","<span style=""color:Black; font-size:50px;"">Agent B","null","","","","",""
"null","","","video-keyboard-response","63","263133","0.0-63.0","wexsd9v0","","","null","","Agent B","scrambled","STIM_SET_2/286034.bmp_pp69_L3_V1.0_scrambled_freeview_isoTrue.mp4",""
"","","","call-function","64","263133","0.0-64.0","wexsd9v0","","","","","","","",""
"1764.2449999999953","{""judgement"":1}","[0]","survey-likert","65","264898","0.0-65.0","wexsd9v0","","","","","","","","0"
"1436.4550000000163","{""confidence"":2}","[0]","survey-likert","66","266336","0.0-66.0","wexsd9v0","","","","","","","",""
"","","","call-function","67","266336","0.0-67.0","wexsd9v0","","","","","","","",""
"null","","","html-keyboard-response","68","267843","0.0-68.0","wexsd9v0","","<span style=""color:Black; font-size:50px;"">Agent A","null","","","","",""
"null","","","video-keyboard-response","69","270916","0.0-69.0","wexsd9v0","","","null","","Agent A","scrambled","STIM_SET_2/498261.bmp_pp84_L3_V1.0_scrambled_freeview_isoTrue.mp4",""
"null","","","html-keyboard-response","70","272421","0.0-70.0","wexsd9v0","","<span style=""color:Black; font-size:50px;"">Agent B","null","","","","",""
"null","","","video-keyboard-response","71","275531","0.0-71.0","wexsd9v0","","","null","","Agent B","veridical","STIM_SET_2/498261.bmp_pp84_L3_V1.0_veridical_freeview_isoTrue.mp4",""
"","","","call-function","72","275532","0.0-72.0","wexsd9v0","","","","","","","",""
"2062.2449999999953","{""judgement"":0}","[0]","survey-likert","73","277595","0.0-73.0","wexsd9v0","","","","","","","","1"
"2023.265000000014","{""confidence"":2}","[0]","survey-likert","74","279619","0.0-74.0","wexsd9v0","","","","","","","",""
"","","","call-function","75","279620","0.0-75.0","wexsd9v0","","","","","","","",""
"null","","","html-keyboard-response","76","281122","0.0-76.0","wexsd9v0","","<span style=""color:Black; font-size:50px;"">Agent A","null","","","","",""
"null","","","video-keyboard-response","77","284217","0.0-77.0","wexsd9v0","","","null","","Agent A","veridical","STIM_SET_2/1159973.bmp_pp98_L1_V1.0_veridical_freeview_isoTrue.mp4",""
"null","","","html-keyboard-response","78","285725","0.0-78.0","wexsd9v0","","<span style=""color:Black; font-size:50px;"">Agent B","null","","","","",""
"null","","","video-keyboard-response","79","288824","0.0-79.0","wexsd9v0","","","null","","Agent B","scrambled","STIM_SET_2/1159973.bmp_pp98_L1_V1.0_scrambled_freeview_isoTrue.mp4",""
"","","","call-function","80","288825","0.0-80.0","wexsd9v0","","","","","","","",""
"7667.640000000014","{""judgement"":0}","[0]","survey-likert","81","296494","0.0-81.0","wexsd9v0","","","","","","","","0"
"2954.085000000021","{""confidence"":2}","[0]","survey-likert","82","299451","0.0-82.0","wexsd9v0","","","","","","","",""
"","","","call-function","83","299452","0.0-83.0","wexsd9v0","","","","","","","",""
"null","","","html-keyboard-response","84","300953","0.0-84.0","wexsd9v0","","<span style=""color:Black; font-size:50px;"">Agent A","null","","","","",""
"null","","","video-keyboard-response","85","304021","0.0-85.0","wexsd9v0","","","null","","Agent A","veridical","STIM_SET_2/713829.bmp_pp60_L3_V1.0_veridical_freeview_isoTrue.mp4",""
"null","","","html-keyboard-response","86","305527","0.0-86.0","wexsd9v0","","<span style=""color:Black; font-size:50px;"">Agent B","null","","","","",""
"null","","","video-keyboard-response","87","308597","0.0-87.0","wexsd9v0","","","null","","Agent B","scrambled","STIM_SET_2/713829.bmp_pp60_L3_V1.0_scrambled_freeview_isoTrue.mp4",""
"","","","call-function","88","308598","0.0-88.0","wexsd9v0","","","","","","","",""
"1793.0449999999837","{""judgement"":1}","[0]","survey-likert","89","310392","0.0-89.0","wexsd9v0","","","","","","","","0"
"2170.5050000000047","{""confidence"":1}","[0]","survey-likert","90","312564","0.0-90.0","wexsd9v0","","","","","","","",""
"5111.109999999986","","","instructions","91","317676","0.0-91.0","wexsd9v0","[{""page_index"":0,""viewing_time"":1960.9199999999837},{""page_index"":1,""viewing_time"":2087.1049999999814},{""page_index"":2,""viewing_time"":1062.8800000000047}]","","","","","","",""
"13866.914999999979","","","instructions","92","331543","0.0-92.0","wexsd9v0","[{""page_index"":0,""viewing_time"":780.8399999999674},{""page_index"":1,""viewing_time"":12418.98999999999},{""page_index"":2,""viewing_time"":666.9800000000396}]","","","","","","",""
"","","","call-function","93","331544","0.0-93.0","wexsd9v0","","","","","","","",""
"null","","","html-keyboard-response","94","333049","0.0-94.0","wexsd9v0","","<span style=""color:Black; font-size:50px;"">Agent A","null","","","","",""
"null","","","video-keyboard-response","95","336120","0.0-95.0","wexsd9v0","","","null","","Agent A","veridical","STIM_SET_2/1592044.bmp_pp94_L2_V1.0_veridical_freeview_isoTrue.mp4",""
"null","","","html-keyboard-response","96","337626","0.0-96.0","wexsd9v0","","<span style=""color:Black; font-size:50px;"">Agent B","null","","","","",""
"null","","","video-keyboard-response","97","340695","0.0-97.0","wexsd9v0","","","null","","Agent B","scrambled","STIM_SET_2/1592044.bmp_pp94_L2_V1.0_scrambled_freeview_isoTrue.mp4",""
"","","","call-function","98","340696","0.0-98.0","wexsd9v0","","","","","","","",""
"2906.4100000000326","{""judgement"":1}","[0]","survey-likert","99","343603","0.0-99.0","wexsd9v0","","","","","","","","0"
"1815.179999999993","{""confidence"":2}","[0]","survey-likert","100","345419","0.0-100.0","wexsd9v0","","","","","","","",""
"","","","call-function","101","345420","0.0-101.0","wexsd9v0","","","","","","","",""
"null","","","html-keyboard-response","102","346923","0.0-102.0","wexsd9v0","","<span style=""color:Black; font-size:50px;"">Agent A","null","","","","",""
"null","","","video-keyboard-response","103","349992","0.0-103.0","wexsd9v0","","","null","","Agent A","scrambled","STIM_SET_2/1159325.bmp_pp67_L2_V1.0_scrambled_freeview_isoTrue.mp4",""
"null","","","html-keyboard-response","104","351496","0.0-104.0","wexsd9v0","","<span style=""color:Black; font-size:50px;"">Agent B","null","","","","",""
"null","","","video-keyboard-response","105","354564","0.0-105.0","wexsd9v0","","","null","","Agent B","veridical","STIM_SET_2/1159325.bmp_pp67_L2_V1.0_veridical_freeview_isoTrue.mp4",""
"","","","call-function","106","354564","0.0-106.0","wexsd9v0","","","","","","","",""
"2837.0449999999837","{""judgement"":0}","[0]","survey-likert","107","357402","0.0-107.0","wexsd9v0","","","","","","","","1"
"1894.4400000000023","{""confidence"":1}","[0]","survey-likert","108","359297","0.0-108.0","wexsd9v0","","","","","","","",""
"","","","call-function","109","359298","0.0-109.0","wexsd9v0","","","","","","","",""
"null","","","html-keyboard-response","110","360802","0.0-110.0","wexsd9v0","","<span style=""color:Black; font-size:50px;"">Agent A","null","","","","",""
"null","","","video-keyboard-response","111","363895","0.0-111.0","wexsd9v0","","","null","","Agent A","veridical","STIM_SET_2/498326.bmp_pp57_L1_V1.0_veridical_freeview_isoTrue.mp4",""
"null","","","html-keyboard-response","112","365401","0.0-112.0","wexsd9v0","","<span style=""color:Black; font-size:50px;"">Agent B","null","","","","",""
"null","","","video-keyboard-response","113","368469","0.0-113.0","wexsd9v0","","","null","","Agent B","scrambled","STIM_SET_2/498326.bmp_pp57_L1_V1.0_scrambled_freeview_isoTrue.mp4",""
"","","","call-function","114","368469","0.0-114.0","wexsd9v0","","","","","","","",""
"2200.070000000007","{""judgement"":0}","[0]","survey-likert","115","370670","0.0-115.0","wexsd9v0","","","","","","","","0"
"1888.2700000000186","{""confidence"":2}","[0]","survey-likert","116","372560","0.0-116.0","wexsd9v0","","","","","","","",""
"","","","call-function","117","372561","0.0-117.0","wexsd9v0","","","","","","","",""
"null","","","html-keyboard-response","118","374063","0.0-118.0","wexsd9v0","","<span style=""color:Black; font-size:50px;"">Agent A","null","","","","",""
"null","","","video-keyboard-response","119","377137","0.0-119.0","wexsd9v0","","","null","","Agent A","scrambled","STIM_SET_2/61513.bmp_pp75_L1_V1.0_scrambled_freeview_isoTrue.mp4",""
"null","","","html-keyboard-response","120","378640","0.0-120.0","wexsd9v0","","<span style=""color:Black; font-size:50px;"">Agent B","null","","","","",""
"null","","","video-keyboard-response","121","381700","0.0-121.0","wexsd9v0","","","null","","Agent B","veridical","STIM_SET_2/61513.bmp_pp75_L1_V1.0_veridical_freeview_isoTrue.mp4",""
"","","","call-function","122","381701","0.0-122.0","wexsd9v0","","","","","","","",""
"3474.9649999999674","{""judgement"":1}","[0]","survey-likert","123","385177","0.0-123.0","wexsd9v0","","","","","","","","1"
"3117.8549999999814","{""confidence"":2}","[0]","survey-likert","124","388296","0.0-124.0","wexsd9v0","","","","","","","",""
"","","","call-function","125","388296","0.0-125.0","wexsd9v0","","","","","","","",""
"null","","","html-keyboard-response","126","389798","0.0-126.0","wexsd9v0","","<span style=""color:Black; font-size:50px;"">Agent A","null","","","","",""
"null","","","video-keyboard-response","127","392908","0.0-127.0","wexsd9v0","","","null","","Agent A","scrambled","STIM_SET_2/1592568.bmp_pp71_L1_V1.0_scrambled_freeview_isoTrue.mp4",""
"null","","","html-keyboard-response","128","394409","0.0-128.0","wexsd9v0","","<span style=""color:Black; font-size:50px;"">Agent B","null","","","","",""
"null","","","video-keyboard-response","129","397476","0.0-129.0","wexsd9v0","","","null","","Agent B","veridical","STIM_SET_2/1592568.bmp_pp71_L1_V1.0_veridical_freeview_isoTrue.mp4",""
"","","","call-function","130","397476","0.0-130.0","wexsd9v0","","","","","","","",""
"2331.1900000000023","{""judgement"":0}","[0]","survey-likert","131","399808","0.0-131.0","wexsd9v0","","","","","","","","1"
"3954.0200000000186","{""confidence"":2}","[0]","survey-likert","132","403764","0.0-132.0","wexsd9v0","","","","","","","",""
"","","","call-function","133","403764","0.0-133.0","wexsd9v0","","","","","","","",""
"null","","","html-keyboard-response","134","405269","0.0-134.0","wexsd9v0","","<span style=""color:Black; font-size:50px;"">Agent A","null","","","","",""
"null","","","video-keyboard-response","135","408346","0.0-135.0","wexsd9v0","","","null","","Agent A","veridical","STIM_SET_2/1159819.bmp_pp151_L1_V1.0_veridical_freeview_isoTrue.mp4",""
"null","","","html-keyboard-response","136","409849","0.0-136.0","wexsd9v0","","<span style=""color:Black; font-size:50px;"">Agent B","null","","","","",""
"null","","","video-keyboard-response","137","412923","0.0-137.0","wexsd9v0","","","null","","Agent B","scrambled","STIM_SET_2/1159819.bmp_pp151_L1_V1.0_scrambled_freeview_isoTrue.mp4",""
"","","","call-function","138","412924","0.0-138.0","wexsd9v0","","","","","","","",""
"2549.7299999999814","{""judgement"":0}","[0]","survey-likert","139","415476","0.0-139.0","wexsd9v0","","","","","","","","0"
"1874.9400000000023","{""confidence"":2}","[0]","survey-likert","140","417352","0.0-140.0","wexsd9v0","","","","","","","",""
"","","","call-function","141","417353","0.0-141.0","wexsd9v0","","","","","","","",""
"null","","","html-keyboard-response","142","418854","0.0-142.0","wexsd9v0","","<span style=""color:Black; font-size:50px;"">Agent A","null","","","","",""
"null","","","video-keyboard-response","143","421930","0.0-143.0","wexsd9v0","","","null","","Agent A","scrambled","STIM_SET_2/1159956.bmp_pp59_L3_V1.0_scrambled_freeview_isoTrue.mp4",""
"null","","","html-keyboard-response","144","423434","0.0-144.0","wexsd9v0","","<span style=""color:Black; font-size:50px;"">Agent B","null","","","","",""
"null","","","video-keyboard-response","145","426508","0.0-145.0","wexsd9v0","","","null","","Agent B","veridical","STIM_SET_2/1159956.bmp_pp59_L3_V1.0_veridical_freeview_isoTrue.mp4",""
"","","","call-function","146","426508","0.0-146.0","wexsd9v0","","","","","","","",""
"2190.7750000000233","{""judgement"":0}","[0]","survey-likert","147","428700","0.0-147.0","wexsd9v0","","","","","","","","1"
"1614.0750000000116","{""confidence"":2}","[0]","survey-likert","148","430316","0.0-148.0","wexsd9v0","","","","","","","",""
"","","","call-function","149","430316","0.0-149.0","wexsd9v0","","","","","","","",""
"null","","","html-keyboard-response","150","431820","0.0-150.0","wexsd9v0","","<span style=""color:Black; font-size:50px;"">Agent A","null","","","","",""
"null","","","video-keyboard-response","151","434887","0.0-151.0","wexsd9v0","","","null","","Agent A","scrambled","STIM_SET_2/1592857.bmp_pp52_L1_V1_scrambled_freeview_isoTrue.mp4",""
"null","","","html-keyboard-response","152","436391","0.0-152.0","wexsd9v0","","<span style=""color:Black; font-size:50px;"">Agent B","null","","","","",""
"null","","","video-keyboard-response","153","439495","0.0-153.0","wexsd9v0","","","null","","Agent B","veridical","STIM_SET_2/1592857.bmp_pp52_L1_V1_veridical_freeview_isoTrue.mp4",""
"","","","call-function","154","439495","0.0-154.0","wexsd9v0","","","","","","","",""
"3062.1900000000023","{""judgement"":1}","[0]","survey-likert","155","442558","0.0-155.0","wexsd9v0","","","","","","","","1"
"1898.7700000000186","{""confidence"":2}","[0]","survey-likert","156","444458","0.0-156.0","wexsd9v0","","","","","","","",""
"","","","call-function","157","444459","0.0-157.0","wexsd9v0","","","","","","","",""
"null","","","html-keyboard-response","158","445961","0.0-158.0","wexsd9v0","","<span style=""color:Black; font-size:50px;"">Agent A","null","","","","",""
"null","","","video-keyboard-response","159","449066","0.0-159.0","wexsd9v0","","","null","","Agent A","scrambled","STIM_SET_2/1159592.bmp_pp91_L3_V1.0_scrambled_freeview_isoTrue.mp4",""
"null","","","html-keyboard-response","160","450572","0.0-160.0","wexsd9v0","","<span style=""color:Black; font-size:50px;"">Agent B","null","","","","",""
"null","","","video-keyboard-response","161","453676","0.0-161.0","wexsd9v0","","","null","","Agent B","veridical","STIM_SET_2/1159592.bmp_pp91_L3_V1.0_veridical_freeview_isoTrue.mp4",""
"","","","call-function","162","453677","0.0-162.0","wexsd9v0","","","","","","","",""
"3952.469999999972","{""judgement"":0}","[0]","survey-likert","163","457630","0.0-163.0","wexsd9v0","","","","","","","","1"
"1578.9300000000512","{""confidence"":2}","[0]","survey-likert","164","459210","0.0-164.0","wexsd9v0","","","","","","","",""
"","","","call-function","165","459211","0.0-165.0","wexsd9v0","","","","","","","",""
"null","","","html-keyboard-response","166","460712","0.0-166.0","wexsd9v0","","<span style=""color:Black; font-size:50px;"">Agent A","null","","","","",""
"null","","","video-keyboard-response","167","463819","0.0-167.0","wexsd9v0","","","null","","Agent A","veridical","STIM_SET_2/713790.bmp_pp100_L3_V1_veridical_freeview_isoTrue.mp4",""
"null","","","html-keyboard-response","168","465320","0.0-168.0","wexsd9v0","","<span style=""color:Black; font-size:50px;"">Agent B","null","","","","",""
"null","","","video-keyboard-response","169","468423","0.0-169.0","wexsd9v0","","","null","","Agent B","scrambled","STIM_SET_2/713790.bmp_pp100_L3_V1_scrambled_freeview_isoTrue.mp4",""
"","","","call-function","170","468424","0.0-170.0","wexsd9v0","","","","","","","",""
"1851.844999999972","{""judgement"":0}","[0]","survey-likert","171","470276","0.0-171.0","wexsd9v0","","","","","","","","0"
"1840.640000000014","{""confidence"":0}","[0]","survey-likert","172","472118","0.0-172.0","wexsd9v0","","","","","","","",""
"2252.335000000021","","","instructions","173","474371","0.0-173.0","wexsd9v0","[{""page_index"":0,""viewing_time"":1183.9899999999907},{""page_index"":1,""viewing_time"":665.2250000000349},{""page_index"":2,""viewing_time"":402.91499999997905}]","","","","","","",""
"2558.3549999999814","","","instructions","174","476930","0.0-174.0","wexsd9v0","[{""page_index"":0,""viewing_time"":385.1149999999907},{""page_index"":1,""viewing_time"":1507.984999999986},{""page_index"":2,""viewing_time"":665.1199999999953}]","","","","","","",""
"","","","call-function","175","476931","0.0-175.0","wexsd9v0","","","","","","","",""
"null","","","html-keyboard-response","176","478436","0.0-176.0","wexsd9v0","","<span style=""color:Black; font-size:50px;"">Agent A","null","","","","",""
"null","","","video-keyboard-response","177","481509","0.0-177.0","wexsd9v0","","","null","","Agent A","scrambled","STIM_SET_2/1592350.bmp_pp55_L3_V1.0_scrambled_freeview_isoTrue.mp4",""
"null","","","html-keyboard-response","178","483011","0.0-178.0","wexsd9v0","","<span style=""color:Black; font-size:50px;"">Agent B","null","","","","",""
"null","","","video-keyboard-response","179","486088","0.0-179.0","wexsd9v0","","","null","","Agent B","veridical","STIM_SET_2/1592350.bmp_pp55_L3_V1.0_veridical_freeview_isoTrue.mp4",""
"","","","call-function","180","486089","0.0-180.0","wexsd9v0","","","","","","","",""
"1844.1849999999977","{""judgement"":1}","[0]","survey-likert","181","487934","0.0-181.0","wexsd9v0","","","","","","","","1"
"1927.399999999965","{""confidence"":0}","[0]","survey-likert","182","489862","0.0-182.0","wexsd9v0","","","","","","","",""
"","","","call-function","183","489863","0.0-183.0","wexsd9v0","","","","","","","",""
"null","","","html-keyboard-response","184","491365","0.0-184.0","wexsd9v0","","<span style=""color:Black; font-size:50px;"">Agent A","null","","","","",""
"null","","","video-keyboard-response","185","494440","0.0-185.0","wexsd9v0","","","null","","Agent A","veridical","STIM_SET_2/1592298.bmp_pp56_L3_V1.0_veridical_freeview_isoTrue.mp4",""
"null","","","html-keyboard-response","186","495944","0.0-186.0","wexsd9v0","","<span style=""color:Black; font-size:50px;"">Agent B","null","","","","",""
"null","","","video-keyboard-response","187","499018","0.0-187.0","wexsd9v0","","","null","","Agent B","scrambled","STIM_SET_2/1592298.bmp_pp56_L3_V1.0_scrambled_freeview_isoTrue.mp4",""
"","","","call-function","188","499018","0.0-188.0","wexsd9v0","","","","","","","",""
"3934.9949999999953","{""judgement"":0}","[0]","survey-likert","189","502954","0.0-189.0","wexsd9v0","","","","","","","","0"
"4989.759999999951","{""confidence"":2}","[0]","survey-likert","190","507945","0.0-190.0","wexsd9v0","","","","","","","",""
"","","","call-function","191","507946","0.0-191.0","wexsd9v0","","","","","","","",""
"null","","","html-keyboard-response","192","509449","0.0-192.0","wexsd9v0","","<span style=""color:Black; font-size:50px;"">Agent A","null","","","","",""
"null","","","video-keyboard-response","193","512548","0.0-193.0","wexsd9v0","","","null","","Agent A","veridical","STIM_SET_2/285932.bmp_pp64_L1_V1.0_veridical_freeview_isoTrue.mp4",""
"null","","","html-keyboard-response","194","514050","0.0-194.0","wexsd9v0","","<span style=""color:Black; font-size:50px;"">Agent B","null","","","","",""
"null","","","video-keyboard-response","195","517142","0.0-195.0","wexsd9v0","","","null","","Agent B","scrambled","STIM_SET_2/285932.bmp_pp64_L1_V1.0_scrambled_freeview_isoTrue.mp4",""
"","","","call-function","196","517144","0.0-196.0","wexsd9v0","","","","","","","",""
"2051.9249999999884","{""judgement"":0}","[0]","survey-likert","197","519197","0.0-197.0","wexsd9v0","","","","","","","","0"
"1867.9800000000396","{""confidence"":1}","[0]","survey-likert","198","521067","0.0-198.0","wexsd9v0","","","","","","","",""
"","","","call-function","199","521068","0.0-199.0","wexsd9v0","","","","","","","",""
"null","","","html-keyboard-response","200","522571","0.0-200.0","wexsd9v0","","<span style=""color:Black; font-size:50px;"">Agent A","null","","","","",""
"null","","","video-keyboard-response","201","525641","0.0-201.0","wexsd9v0","","","null","","Agent A","scrambled","STIM_SET_2/1591920.bmp_pp97_L3_V1_scrambled_freeview_isoTrue.mp4",""
"null","","","html-keyboard-response","202","527143","0.0-202.0","wexsd9v0","","<span style=""color:Black; font-size:50px;"">Agent B","null","","","","",""
"null","","","video-keyboard-response","203","530210","0.0-203.0","wexsd9v0","","","null","","Agent B","veridical","STIM_SET_2/1591920.bmp_pp97_L3_V1_veridical_freeview_isoTrue.mp4",""
"","","","call-function","204","530211","0.0-204.0","wexsd9v0","","","","","","","",""
"2755.3699999999953","{""judgement"":1}","[0]","survey-likert","205","532967","0.0-205.0","wexsd9v0","","","","","","","","1"
"1593.2550000000047","{""confidence"":1}","[0]","survey-likert","206","534562","0.0-206.0","wexsd9v0","","","","","","","",""
"","","","call-function","207","534562","0.0-207.0","wexsd9v0","","","","","","","",""
"null","","","html-keyboard-response","208","536067","0.0-208.0","wexsd9v0","","<span style=""color:Black; font-size:50px;"">Agent A","null","","","","",""
"null","","","video-keyboard-response","209","539146","0.0-209.0","wexsd9v0","","","null","","Agent A","scrambled","STIM_SET_2/285959.bmp_pp93_L1_V1.0_scrambled_freeview_isoTrue.mp4",""
"null","","","html-keyboard-response","210","540650","0.0-210.0","wexsd9v0","","<span style=""color:Black; font-size:50px;"">Agent B","null","","","","",""
"null","","","video-keyboard-response","211","543756","0.0-211.0","wexsd9v0","","","null","","Agent B","veridical","STIM_SET_2/285959.bmp_pp93_L1_V1.0_veridical_freeview_isoTrue.mp4",""
"","","","call-function","212","543757","0.0-212.0","wexsd9v0","","","","","","","",""
"1962.6300000000047","{""judgement"":0}","[0]","survey-likert","213","545720","0.0-213.0","wexsd9v0","","","","","","","","1"
"1933.625","{""confidence"":2}","[0]","survey-likert","214","547655","0.0-214.0","wexsd9v0","","","","","","","",""
"","","","call-function","215","547655","0.0-215.0","wexsd9v0","","","","","","","",""
"null","","","html-keyboard-response","216","549158","0.0-216.0","wexsd9v0","","<span style=""color:Black; font-size:50px;"">Agent A","null","","","","",""
"null","","","video-keyboard-response","217","552258","0.0-217.0","wexsd9v0","","","null","","Agent A","veridical","STIM_SET_2/1592921.bmp_pp69_L3_V1.0_veridical_freeview_isoTrue.mp4",""
"null","","","html-keyboard-response","218","553760","0.0-218.0","wexsd9v0","","<span style=""color:Black; font-size:50px;"">Agent B","null","","","","",""
"null","","","video-keyboard-response","219","556863","0.0-219.0","wexsd9v0","","","null","","Agent B","scrambled","STIM_SET_2/1592921.bmp_pp69_L3_V1.0_scrambled_freeview_isoTrue.mp4",""
"","","","call-function","220","556863","0.0-220.0","wexsd9v0","","","","","","","",""
"3638.5999999999767","{""judgement"":0}","[0]","survey-likert","221","560503","0.0-221.0","wexsd9v0","","","","","","","","0"
"1759.704999999958","{""confidence"":2}","[0]","survey-likert","222","562264","0.0-222.0","wexsd9v0","","","","","","","",""
"","","","call-function","223","562264","0.0-223.0","wexsd9v0","","","","","","","",""
"null","","","html-keyboard-response","224","563767","0.0-224.0","wexsd9v0","","<span style=""color:Black; font-size:50px;"">Agent A","null","","","","",""
"null","","","video-keyboard-response","225","566827","0.0-225.0","wexsd9v0","","","null","","Agent A","scrambled","STIM_SET_2/713328.bmp_pp86_L2_V1.0_scrambled_freeview_isoTrue.mp4",""
"null","","","html-keyboard-response","226","568330","0.0-226.0","wexsd9v0","","<span style=""color:Black; font-size:50px;"">Agent B","null","","","","",""
"null","","","video-keyboard-response","227","571388","0.0-227.0","wexsd9v0","","","null","","Agent B","veridical","STIM_SET_2/713328.bmp_pp86_L2_V1.0_veridical_freeview_isoTrue.mp4",""
"","","","call-function","228","571389","0.0-228.0","wexsd9v0","","","","","","","",""
"1460.8499999999767","{""judgement"":1}","[0]","survey-likert","229","572851","0.0-229.0","wexsd9v0","","","","","","","","1"
"1597.7550000000047","{""confidence"":3}","[0]","survey-likert","230","574449","0.0-230.0","wexsd9v0","","","","","","","",""
"","","","call-function","231","574450","0.0-231.0","wexsd9v0","","","","","","","",""
"null","","","html-keyboard-response","232","575953","0.0-232.0","wexsd9v0","","<span style=""color:Black; font-size:50px;"">Agent A","null","","","","",""
"null","","","video-keyboard-response","233","579053","0.0-233.0","wexsd9v0","","","null","","Agent A","scrambled","STIM_SET_2/498258.bmp_pp51_L1_V1.0_scrambled_freeview_isoTrue.mp4",""
"null","","","html-keyboard-response","234","580556","0.0-234.0","wexsd9v0","","<span style=""color:Black; font-size:50px;"">Agent B","null","","","","",""
"null","","","video-keyboard-response","235","583627","0.0-235.0","wexsd9v0","","","null","","Agent B","veridical","STIM_SET_2/498258.bmp_pp51_L1_V1.0_veridical_freeview_isoTrue.mp4",""
"","","","call-function","236","583627","0.0-236.0","wexsd9v0","","","","","","","",""
"1779.765000000014","{""judgement"":1}","[0]","survey-likert","237","585408","0.0-237.0","wexsd9v0","","","","","","","","1"
"1333.1650000000373","{""confidence"":2}","[0]","survey-likert","238","586742","0.0-238.0","wexsd9v0","","","","","","","",""
"","","","call-function","239","586743","0.0-239.0","wexsd9v0","","","","","","","",""
"null","","","html-keyboard-response","240","588245","0.0-240.0","wexsd9v0","","<span style=""color:Black; font-size:50px;"">Agent A","null","","","","",""
"null","","","video-keyboard-response","241","591312","0.0-241.0","wexsd9v0","","","null","","Agent A","scrambled","STIM_SET_2/1592951.bmp_pp80_L3_V1.0_scrambled_freeview_isoTrue.mp4",""
"null","","","html-keyboard-response","242","592817","0.0-242.0","wexsd9v0","","<span style=""color:Black; font-size:50px;"">Agent B","null","","","","",""
"null","","","video-keyboard-response","243","595883","0.0-243.0","wexsd9v0","","","null","","Agent B","veridical","STIM_SET_2/1592951.bmp_pp80_L3_V1.0_veridical_freeview_isoTrue.mp4",""
"","","","call-function","244","595884","0.0-244.0","wexsd9v0","","","","","","","",""
"5030.795000000042","{""judgement"":1}","[0]","survey-likert","245","600915","0.0-245.0","wexsd9v0","","","","","","","","1"
"1720.859999999986","{""confidence"":1}","[0]","survey-likert","246","602637","0.0-246.0","wexsd9v0","","","","","","","",""
"","","","call-function","247","602638","0.0-247.0","wexsd9v0","","","","","","","",""
"null","","","html-keyboard-response","248","604140","0.0-248.0","wexsd9v0","","<span style=""color:Black; font-size:50px;"">Agent A","null","","","","",""
"null","","","video-keyboard-response","249","607216","0.0-249.0","wexsd9v0","","","null","","Agent A","veridical","STIM_SET_2/150277.bmp_pp65_L3_V1.0_veridical_freeview_isoTrue.mp4",""
"null","","","html-keyboard-response","250","608720","0.0-250.0","wexsd9v0","","<span style=""color:Black; font-size:50px;"">Agent B","null","","","","",""
"null","","","video-keyboard-response","251","611821","0.0-251.0","wexsd9v0","","","null","","Agent B","scrambled","STIM_SET_2/150277.bmp_pp65_L3_V1.0_scrambled_freeview_isoTrue.mp4",""
"","","","call-function","252","611823","0.0-252.0","wexsd9v0","","","","","","","",""
"2885.9000000000233","{""judgement"":0}","[0]","survey-likert","253","614709","0.0-253.0","wexsd9v0","","","","","","","","0"
"2355.9100000000326","{""confidence"":2}","[0]","survey-likert","254","617067","0.0-254.0","wexsd9v0","","","","","","","",""
"11594.090000000084","","","instructions","255","628662","0.0-255.0","wexsd9v0","[{""page_index"":0,""viewing_time"":9342.21000000008},{""page_index"":1,""viewing_time"":1511.6599999999162},{""page_index"":2,""viewing_time"":740.0650000000605}]","","","","","","",""
"2724.715000000084","","","instructions","256","631388","0.0-256.0","wexsd9v0","[{""page_index"":0,""viewing_time"":985.3100000000559},{""page_index"":1,""viewing_time"":1097.9449999999488},{""page_index"":2,""viewing_time"":641.3450000000885}]","","","","","","",""
"","","","call-function","257","631389","0.0-257.0","wexsd9v0","","","","","","","",""
"null","","","html-keyboard-response","258","632891","0.0-258.0","wexsd9v0","","<span style=""color:Black; font-size:50px;"">Agent A","null","","","","",""
"null","","","video-keyboard-response","259","635958","0.0-259.0","wexsd9v0","","","null","","Agent A","scrambled","STIM_SET_2/1160049.bmp_pp53_L2_V1.0_scrambled_freeview_isoTrue.mp4",""
"null","","","html-keyboard-response","260","637461","0.0-260.0","wexsd9v0","","<span style=""color:Black; font-size:50px;"">Agent B","null","","","","",""
"null","","","video-keyboard-response","261","640531","0.0-261.0","wexsd9v0","","","null","","Agent B","veridical","STIM_SET_2/1160049.bmp_pp53_L2_V1.0_veridical_freeview_isoTrue.mp4",""
"","","","call-function","262","640531","0.0-262.0","wexsd9v0","","","","","","","",""
"2129.4949999999953","{""judgement"":0}","[0]","survey-likert","263","642662","0.0-263.0","wexsd9v0","","","","","","","","1"
"1412.6350000000093","{""confidence"":1}","[0]","survey-likert","264","644076","0.0-264.0","wexsd9v0","","","","","","","",""
"","","","call-function","265","644077","0.0-265.0","wexsd9v0","","","","","","","",""
"null","","","html-keyboard-response","266","645578","0.0-266.0","wexsd9v0","","<span style=""color:Black; font-size:50px;"">Agent A","null","","","","",""
"null","","","video-keyboard-response","267","648656","0.0-267.0","wexsd9v0","","","null","","Agent A","scrambled","STIM_SET_2/713381.bmp_pp82_L2_V1.0_scrambled_freeview_isoTrue.mp4",""
"null","","","html-keyboard-response","268","650159","0.0-268.0","wexsd9v0","","<span style=""color:Black; font-size:50px;"">Agent B","null","","","","",""
"null","","","video-keyboard-response","269","653234","0.0-269.0","wexsd9v0","","","null","","Agent B","veridical","STIM_SET_2/713381.bmp_pp82_L2_V1.0_veridical_freeview_isoTrue.mp4",""
"","","","call-function","270","653235","0.0-270.0","wexsd9v0","","","","","","","",""
"2536.2399999999907","{""judgement"":1}","[0]","survey-likert","271","655773","0.0-271.0","wexsd9v0","","","","","","","","1"
"2054.1149999999907","{""confidence"":2}","[0]","survey-likert","272","657828","0.0-272.0","wexsd9v0","","","","","","","",""
"","","","call-function","273","657829","0.0-273.0","wexsd9v0","","","","","","","",""
"null","","","html-keyboard-response","274","659329","0.0-274.0","wexsd9v0","","<span style=""color:Black; font-size:50px;"">Agent A","null","","","","",""
"null","","","video-keyboard-response","275","662423","0.0-275.0","wexsd9v0","","","null","","Agent A","veridical","STIM_SET_2/1592038.bmp_pp79_L2_V1.0_veridical_freeview_isoTrue.mp4",""
"null","","","html-keyboard-response","276","663925","0.0-276.0","wexsd9v0","","<span style=""color:Black; font-size:50px;"">Agent B","null","","","","",""
"null","","","video-keyboard-response","277","667022","0.0-277.0","wexsd9v0","","","null","","Agent B","scrambled","STIM_SET_2/1592038.bmp_pp79_L2_V1.0_scrambled_freeview_isoTrue.mp4",""
"","","","call-function","278","667022","0.0-278.0","wexsd9v0","","","","","","","",""
"3200.3950000000186","{""judgement"":1}","[0]","survey-likert","279","670224","0.0-279.0","wexsd9v0","","","","","","","","0"
"1946.1549999999115","{""confidence"":2}","[0]","survey-likert","280","672171","0.0-280.0","wexsd9v0","","","","","","","",""
"","","","call-function","281","672171","0.0-281.0","wexsd9v0","","","","","","","",""
"null","","","html-keyboard-response","282","673674","0.0-282.0","wexsd9v0","","<span style=""color:Black; font-size:50px;"">Agent A","null","","","","",""
"null","","","video-keyboard-response","283","676775","0.0-283.0","wexsd9v0","","","null","","Agent A","veridical","STIM_SET_2/498372.bmp_pp95_L2_V1_veridical_freeview_isoTrue.mp4",""
"null","","","html-keyboard-response","284","678275","0.0-284.0","wexsd9v0","","<span style=""color:Black; font-size:50px;"">Agent B","null","","","","",""
"null","","","video-keyboard-response","285","681383","0.0-285.0","wexsd9v0","","","null","","Agent B","scrambled","STIM_SET_2/498372.bmp_pp95_L2_V1_scrambled_freeview_isoTrue.mp4",""
"","","","call-function","286","681384","0.0-286.0","wexsd9v0","","","","","","","",""
"1814.5649999999441","{""judgement"":1}","[0]","survey-likert","287","683199","0.0-287.0","wexsd9v0","","","","","","","","0"
"1420.4750000000931","{""confidence"":2}","[0]","survey-likert","288","684621","0.0-288.0","wexsd9v0","","","","","","","",""
"","","","call-function","289","684621","0.0-289.0","wexsd9v0","","","","","","","",""
"null","","","html-keyboard-response","290","686124","0.0-290.0","wexsd9v0","","<span style=""color:Black; font-size:50px;"">Agent A","null","","","","",""
"null","","","video-keyboard-response","291","689225","0.0-291.0","wexsd9v0","","","null","","Agent A","veridical","STIM_SET_2/1592747.bmp_pp53_L2_V1.0_veridical_freeview_isoTrue.mp4",""
"null","","","html-keyboard-response","292","690727","0.0-292.0","wexsd9v0","","<span style=""color:Black; font-size:50px;"">Agent B","null","","","","",""
"null","","","video-keyboard-response","293","693829","0.0-293.0","wexsd9v0","","","null","","Agent B","scrambled","STIM_SET_2/1592747.bmp_pp53_L2_V1.0_scrambled_freeview_isoTrue.mp4",""
"","","","call-function","294","693830","0.0-294.0","wexsd9v0","","","","","","","",""
"2042.7750000000233","{""judgement"":0}","[0]","survey-likert","295","695874","0.0-295.0","wexsd9v0","","","","","","","","0"
"1698.734999999986","{""confidence"":2}","[0]","survey-likert","296","697574","0.0-296.0","wexsd9v0","","","","","","","",""
"","","","call-function","297","697574","0.0-297.0","wexsd9v0","","","","","","","",""
"null","","","html-keyboard-response","298","699077","0.0-298.0","wexsd9v0","","<span style=""color:Black; font-size:50px;"">Agent A","null","","","","",""
"null","","","video-keyboard-response","299","702140","0.0-299.0","wexsd9v0","","","null","","Agent A","scrambled","STIM_SET_2/498398.bmp_pp81_L1_V1.0_scrambled_freeview_isoTrue.mp4",""
"null","","","html-keyboard-response","300","703645","0.0-300.0","wexsd9v0","","<span style=""color:Black; font-size:50px;"">Agent B","null","","","","",""
"null","","","video-keyboard-response","301","706707","0.0-301.0","wexsd9v0","","","null","","Agent B","veridical","STIM_SET_2/498398.bmp_pp81_L1_V1.0_veridical_freeview_isoTrue.mp4",""
"","","","call-function","302","706708","0.0-302.0","wexsd9v0","","","","","","","",""
"2558.5200000000186","{""judgement"":1}","[0]","survey-likert","303","709267","0.0-303.0","wexsd9v0","","","","","","","","1"
"1690.0999999999767","{""confidence"":1}","[0]","survey-likert","304","710959","0.0-304.0","wexsd9v0","","","","","","","",""
"","","","call-function","305","710959","0.0-305.0","wexsd9v0","","","","","","","",""
"null","","","html-keyboard-response","306","712461","0.0-306.0","wexsd9v0","","<span style=""color:Black; font-size:50px;"">Agent A","null","","","","",""
"null","","","video-keyboard-response","307","715539","0.0-307.0","wexsd9v0","","","null","","Agent A","veridical","STIM_SET_2/1159874.bmp_pp96_L2_V1.0_veridical_freeview_isoTrue.mp4",""
"null","","","html-keyboard-response","308","717043","0.0-308.0","wexsd9v0","","<span style=""color:Black; font-size:50px;"">Agent B","null","","","","",""
"null","","","video-keyboard-response","309","720119","0.0-309.0","wexsd9v0","","","null","","Agent B","scrambled","STIM_SET_2/1159874.bmp_pp96_L2_V1.0_scrambled_freeview_isoTrue.mp4",""
"","","","call-function","310","720120","0.0-310.0","wexsd9v0","","","","","","","",""
"1481.8249999999534","{""judgement"":0}","[0]","survey-likert","311","721603","0.0-311.0","wexsd9v0","","","","","","","","0"
"2376.0749999999534","{""confidence"":1}","[0]","survey-likert","312","723981","0.0-312.0","wexsd9v0","","","","","","","",""
"","","","call-function","313","723982","0.0-313.0","wexsd9v0","","","","","","","",""
"null","","","html-keyboard-response","314","725488","0.0-314.0","wexsd9v0","","<span style=""color:Black; font-size:50px;"">Agent A","null","","","","",""
"null","","","video-keyboard-response","315","728560","0.0-315.0","wexsd9v0","","","null","","Agent A","scrambled","STIM_SET_2/1160204.bmp_pp54_L2_V1.0_scrambled_freeview_isoTrue.mp4",""
"null","","","html-keyboard-response","316","730065","0.0-316.0","wexsd9v0","","<span style=""color:Black; font-size:50px;"">Agent B","null","","","","",""
"null","","","video-keyboard-response","317","733139","0.0-317.0","wexsd9v0","","","null","","Agent B","veridical","STIM_SET_2/1160204.bmp_pp54_L2_V1.0_veridical_freeview_isoTrue.mp4",""
"","","","call-function","318","733140","0.0-318.0","wexsd9v0","","","","","","","",""
"1582.4749999999767","{""judgement"":1}","[0]","survey-likert","319","734723","0.0-319.0","wexsd9v0","","","","","","","","1"
"1555.8400000000838","{""confidence"":3}","[0]","survey-likert","320","736281","0.0-320.0","wexsd9v0","","","","","","","",""
"","","","call-function","321","736281","0.0-321.0","wexsd9v0","","","","","","","",""
"null","","","html-keyboard-response","322","737786","0.0-322.0","wexsd9v0","","<span style=""color:Black; font-size:50px;"">Agent A","null","","","","",""
"null","","","video-keyboard-response","323","740862","0.0-323.0","wexsd9v0","","","null","","Agent A","scrambled","STIM_SET_2/150463.bmp_pp55_L3_V1.0_scrambled_freeview_isoTrue.mp4",""
"null","","","html-keyboard-response","324","742366","0.0-324.0","wexsd9v0","","<span style=""color:Black; font-size:50px;"">Agent B","null","","","","",""
"null","","","video-keyboard-response","325","745440","0.0-325.0","wexsd9v0","","","null","","Agent B","veridical","STIM_SET_2/150463.bmp_pp55_L3_V1.0_veridical_freeview_isoTrue.mp4",""
"","","","call-function","326","745440","0.0-326.0","wexsd9v0","","","","","","","",""
"1661.4700000000885","{""judgement"":0}","[0]","survey-likert","327","747103","0.0-327.0","wexsd9v0","","","","","","","","1"
"1237.265000000014","{""confidence"":2}","[0]","survey-likert","328","748342","0.0-328.0","wexsd9v0","","","","","","","",""
"","","","call-function","329","748342","0.0-329.0","wexsd9v0","","","","","","","",""
"null","","","html-keyboard-response","330","749846","0.0-330.0","wexsd9v0","","<span style=""color:Black; font-size:50px;"">Agent A","null","","","","",""
"null","","","video-keyboard-response","331","752948","0.0-331.0","wexsd9v0","","","null","","Agent A","scrambled","STIM_SET_2/1592047.bmp_pp51_L1_V1.0_scrambled_freeview_isoTrue.mp4",""
"null","","","html-keyboard-response","332","754450","0.0-332.0","wexsd9v0","","<span style=""color:Black; font-size:50px;"">Agent B","null","","","","",""
"null","","","video-keyboard-response","333","757549","0.0-333.0","wexsd9v0","","","null","","Agent B","veridical","STIM_SET_2/1592047.bmp_pp51_L1_V1.0_veridical_freeview_isoTrue.mp4",""
"","","","call-function","334","757549","0.0-334.0","wexsd9v0","","","","","","","",""
"2393.094999999972","{""judgement"":0}","[0]","survey-likert","335","759943","0.0-335.0","wexsd9v0","","","","","","","","1"
"1842.6450000000186","{""confidence"":1}","[0]","survey-likert","336","761787","0.0-336.0","wexsd9v0","","","","","","","",""
"2168.804999999935","","","instructions","337","763957","0.0-337.0","wexsd9v0","[{""page_index"":0,""viewing_time"":1132.5699999999488},{""page_index"":1,""viewing_time"":611.9899999999907},{""page_index"":2,""viewing_time"":423.98499999998603}]","","","","","","",""
"1058.5050000000047","","","instructions","338","765016","0.0-338.0","wexsd9v0","[{""page_index"":0,""viewing_time"":379.67500000004657},{""page_index"":1,""viewing_time"":269.6049999999814},{""page_index"":2,""viewing_time"":409.1149999999907}]","","","","","","",""
"","","","call-function","339","765016","0.0-339.0","wexsd9v0","","","","","","","",""
"null","","","html-keyboard-response","340","766518","0.0-340.0","wexsd9v0","","<span style=""color:Black; font-size:50px;"">Agent A","null","","","","",""
"null","","","video-keyboard-response","341","769612","0.0-341.0","wexsd9v0","","","null","","Agent A","scrambled","STIM_SET_2/1159392.bmp_pp96_L2_V1.0_scrambled_freeview_isoTrue.mp4",""
"null","","","html-keyboard-response","342","771118","0.0-342.0","wexsd9v0","","<span style=""color:Black; font-size:50px;"">Agent B","null","","","","",""
"null","","","video-keyboard-response","343","774208","0.0-343.0","wexsd9v0","","","null","","Agent B","veridical","STIM_SET_2/1159392.bmp_pp96_L2_V1.0_veridical_freeview_isoTrue.mp4",""
"","","","call-function","344","774208","0.0-344.0","wexsd9v0","","","","","","","",""
"1898.4949999999953","{""judgement"":1}","[0]","survey-likert","345","776108","0.0-345.0","wexsd9v0","","","","","","","","1"
"1382.170000000042","{""confidence"":2}","[0]","survey-likert","346","777491","0.0-346.0","wexsd9v0","","","","","","","",""
"","","","call-function","347","777492","0.0-347.0","wexsd9v0","","","","","","","",""
"null","","","html-keyboard-response","348","778994","0.0-348.0","wexsd9v0","","<span style=""color:Black; font-size:50px;"">Agent A","null","","","","",""
"null","","","video-keyboard-response","349","782056","0.0-349.0","wexsd9v0","","","null","","Agent A","veridical","STIM_SET_2/713274.bmp_pp73_L3_V1.0_veridical_freeview_isoTrue.mp4",""
"null","","","html-keyboard-response","350","783562","0.0-350.0","wexsd9v0","","<span style=""color:Black; font-size:50px;"">Agent B","null","","","","",""
"null","","","video-keyboard-response","351","786661","0.0-351.0","wexsd9v0","","","null","","Agent B","scrambled","STIM_SET_2/713274.bmp_pp73_L3_V1.0_scrambled_freeview_isoTrue.mp4",""
"","","","call-function","352","786662","0.0-352.0","wexsd9v0","","","","","","","",""
"2083.8499999999767","{""judgement"":0}","[0]","survey-likert","353","788747","0.0-353.0","wexsd9v0","","","","","","","","0"
"2466.784999999916","{""confidence"":2}","[0]","survey-likert","354","791215","0.0-354.0","wexsd9v0","","","","","","","",""
"","","","call-function","355","791215","0.0-355.0","wexsd9v0","","","","","","","",""
"null","","","html-keyboard-response","356","792720","0.0-356.0","wexsd9v0","","<span style=""color:Black; font-size:50px;"">Agent A","null","","","","",""
"null","","","video-keyboard-response","357","795788","0.0-357.0","wexsd9v0","","","null","","Agent A","scrambled","STIM_SET_2/1159860.bmp_pp152_L2_V1.0_scrambled_freeview_isoTrue.mp4",""
"null","","","html-keyboard-response","358","797290","0.0-358.0","wexsd9v0","","<span style=""color:Black; font-size:50px;"">Agent B","null","","","","",""
"null","","","video-keyboard-response","359","800360","0.0-359.0","wexsd9v0","","","null","","Agent B","veridical","STIM_SET_2/1159860.bmp_pp152_L2_V1.0_veridical_freeview_isoTrue.mp4",""
"","","","call-function","360","800361","0.0-360.0","wexsd9v0","","","","","","","",""
"1122.7550000000047","{""judgement"":0}","[0]","survey-likert","361","801484","0.0-361.0","wexsd9v0","","","","","","","","1"
"1459.5900000000838","{""confidence"":3}","[0]","survey-likert","362","802945","0.0-362.0","wexsd9v0","","","","","","","",""
"","","","call-function","363","802945","0.0-363.0","wexsd9v0","","","","","","","",""
"null","","","html-keyboard-response","364","804449","0.0-364.0","wexsd9v0","","<span style=""color:Black; font-size:50px;"">Agent A","null","","","","",""
"null","","","video-keyboard-response","365","807524","0.0-365.0","wexsd9v0","","","null","","Agent A","veridical","STIM_SET_2/713788.bmp_pp52_L1_V1.0_veridical_freeview_isoTrue.mp4",""
"null","","","html-keyboard-response","366","809028","0.0-366.0","wexsd9v0","","<span style=""color:Black; font-size:50px;"">Agent B","null","","","","",""
"null","","","video-keyboard-response","367","812105","0.0-367.0","wexsd9v0","","","null","","Agent B","scrambled","STIM_SET_2/713788.bmp_pp52_L1_V1.0_scrambled_freeview_isoTrue.mp4",""
"","","","call-function","368","812105","0.0-368.0","wexsd9v0","","","","","","","",""
"9086.794999999925","{""judgement"":1}","[0]","survey-likert","369","821193","0.0-369.0","wexsd9v0","","","","","","","","0"
"1737.0050000000047","{""confidence"":1}","[0]","survey-likert","370","822931","0.0-370.0","wexsd9v0","","","","","","","",""
"","","","call-function","371","822932","0.0-371.0","wexsd9v0","","","","","","","",""
"null","","","html-keyboard-response","372","824435","0.0-372.0","wexsd9v0","","<span style=""color:Black; font-size:50px;"">Agent A","null","","","","",""
"null","","","video-keyboard-response","373","827493","0.0-373.0","wexsd9v0","","","null","","Agent A","veridical","STIM_SET_2/1159427.bmp_pp98_L1_V1.0_veridical_freeview_isoTrue.mp4",""
"null","","","html-keyboard-response","374","828996","0.0-374.0","wexsd9v0","","<span style=""color:Black; font-size:50px;"">Agent B","null","","","","",""
"null","","","video-keyboard-response","375","832077","0.0-375.0","wexsd9v0","","","null","","Agent B","scrambled","STIM_SET_2/1159427.bmp_pp98_L1_V1.0_scrambled_freeview_isoTrue.mp4",""
"","","","call-function","376","832078","0.0-376.0","wexsd9v0","","","","","","","",""
"1900.9099999999162","{""judgement"":1}","[0]","survey-likert","377","833981","0.0-377.0","wexsd9v0","","","","","","","","0"
"5294.349999999977","{""confidence"":0}","[0]","survey-likert","378","839277","0.0-378.0","wexsd9v0","","","","","","","",""
"","","","call-function","379","839278","0.0-379.0","wexsd9v0","","","","","","","",""
"null","","","html-keyboard-response","380","840780","0.0-380.0","wexsd9v0","","<span style=""color:Black; font-size:50px;"">Agent A","null","","","","",""
"null","","","video-keyboard-response","381","843853","0.0-381.0","wexsd9v0","","","null","","Agent A","veridical","STIM_SET_2/1592305.bmp_pp65_L3_V1.0_veridical_freeview_isoTrue.mp4",""
"null","","","html-keyboard-response","382","845357","0.0-382.0","wexsd9v0","","<span style=""color:Black; font-size:50px;"">Agent B","null","","","","",""
"null","","","video-keyboard-response","383","848428","0.0-383.0","wexsd9v0","","","null","","Agent B","scrambled","STIM_SET_2/1592305.bmp_pp65_L3_V1.0_scrambled_freeview_isoTrue.mp4",""
"","","","call-function","384","848428","0.0-384.0","wexsd9v0","","","","","","","",""
"1601.280000000028","{""judgement"":0}","[0]","survey-likert","385","850030","0.0-385.0","wexsd9v0","","","","","","","","0"
"1665.0899999999674","{""confidence"":2}","[0]","survey-likert","386","851697","0.0-386.0","wexsd9v0","","","","","","","",""
"","","","call-function","387","851698","0.0-387.0","wexsd9v0","","","","","","","",""
"null","","","html-keyboard-response","388","853199","0.0-388.0","wexsd9v0","","<span style=""color:Black; font-size:50px;"">Agent A","null","","","","",""
"null","","","video-keyboard-response","389","856280","0.0-389.0","wexsd9v0","","","null","","Agent A","scrambled","STIM_SET_2/713770.bmp_pp89_L1_V1.0_scrambled_freeview_isoTrue.mp4",""
"null","","","html-keyboard-response","390","857786","0.0-390.0","wexsd9v0","","<span style=""color:Black; font-size:50px;"">Agent B","null","","","","",""
"null","","","video-keyboard-response","391","860863","0.0-391.0","wexsd9v0","","","null","","Agent B","veridical","STIM_SET_2/713770.bmp_pp89_L1_V1.0_veridical_freeview_isoTrue.mp4",""
"","","","call-function","392","860863","0.0-392.0","wexsd9v0","","","","","","","",""
"1891.8399999999674","{""judgement"":1}","[0]","survey-likert","393","862756","0.0-393.0","wexsd9v0","","","","","","","","1"
"1349.7799999999115","{""confidence"":2}","[0]","survey-likert","394","864107","0.0-394.0","wexsd9v0","","","","","","","",""
"","","","call-function","395","864108","0.0-395.0","wexsd9v0","","","","","","","",""
"null","","","html-keyboard-response","396","865609","0.0-396.0","wexsd9v0","","<span style=""color:Black; font-size:50px;"">Agent A","null","","","","",""
"null","","","video-keyboard-response","397","868706","0.0-397.0","wexsd9v0","","","null","","Agent A","veridical","STIM_SET_2/1592201.bmp_pp97_L3_V1.0_veridical_freeview_isoTrue.mp4",""
"null","","","html-keyboard-response","398","870212","0.0-398.0","wexsd9v0","","<span style=""color:Black; font-size:50px;"">Agent B","null","","","","",""
"null","","","video-keyboard-response","399","873311","0.0-399.0","wexsd9v0","","","null","","Agent B","scrambled","STIM_SET_2/1592201.bmp_pp97_L3_V1.0_scrambled_freeview_isoTrue.mp4",""
"","","","call-function","400","873312","0.0-400.0","wexsd9v0","","","","","","","",""
"3211.8649999999907","{""judgement"":1}","[0]","survey-likert","401","876525","0.0-401.0","wexsd9v0","","","","","","","","0"
"1819.405000000028","{""confidence"":1}","[0]","survey-likert","402","878345","0.0-402.0","wexsd9v0","","","","","","","",""
"","","","call-function","403","878346","0.0-403.0","wexsd9v0","","","","","","","",""
"null","","","html-keyboard-response","404","879851","0.0-404.0","wexsd9v0","","<span style=""color:Black; font-size:50px;"">Agent A","null","","","","",""
"null","","","video-keyboard-response","405","882950","0.0-405.0","wexsd9v0","","","null","","Agent A","veridical","STIM_SET_2/1592025.bmp_pp68_L1_V1.0_veridical_freeview_isoTrue.mp4",""
"null","","","html-keyboard-response","406","884454","0.0-406.0","wexsd9v0","","<span style=""color:Black; font-size:50px;"">Agent B","null","","","","",""
"null","","","video-keyboard-response","407","887553","0.0-407.0","wexsd9v0","","","null","","Agent B","scrambled","STIM_SET_2/1592025.bmp_pp68_L1_V1.0_scrambled_freeview_isoTrue.mp4",""
"","","","call-function","408","887553","0.0-408.0","wexsd9v0","","","","","","","",""
"1936.375","{""judgement"":1}","[0]","survey-likert","409","889490","0.0-409.0","wexsd9v0","","","","","","","","0"
"1968.6300000000047","{""confidence"":2}","[0]","survey-likert","410","891461","0.0-410.0","wexsd9v0","","","","","","","",""
"","","","call-function","411","891461","0.0-411.0","wexsd9v0","","","","","","","",""
"null","","","html-keyboard-response","412","892966","0.0-412.0","wexsd9v0","","<span style=""color:Black; font-size:50px;"">Agent A","null","","","","",""
"null","","","video-keyboard-response","413","896064","0.0-413.0","wexsd9v0","","","null","","Agent A","veridical","STIM_SET_2/1592530.bmp_pp75_L1_V1.0_veridical_freeview_isoTrue.mp4",""
"null","","","html-keyboard-response","414","897567","0.0-414.0","wexsd9v0","","<span style=""color:Black; font-size:50px;"">Agent B","null","","","","",""
"null","","","video-keyboard-response","415","900666","0.0-415.0","wexsd9v0","","","null","","Agent B","scrambled","STIM_SET_2/1592530.bmp_pp75_L1_V1.0_scrambled_freeview_isoTrue.mp4",""
"","","","call-function","416","900667","0.0-416.0","wexsd9v0","","","","","","","",""
"3543.109999999986","{""judgement"":0}","[0]","survey-likert","417","904211","0.0-417.0","wexsd9v0","","","","","","","","0"
"5224.07500000007","{""confidence"":1}","[0]","survey-likert","418","909436","0.0-418.0","wexsd9v0","","","","","","","",""
"3450.04999999993","","","instructions","419","912887","0.0-419.0","wexsd9v0","[{""page_index"":0,""viewing_time"":2506.844999999972},{""page_index"":1,""viewing_time"":612.9000000000233},{""page_index"":2,""viewing_time"":330.0549999999348}]","","","","","","",""
"1805.295000000042","","","instructions","420","914693","0.0-420.0","wexsd9v0","[{""page_index"":0,""viewing_time"":380.9900000001071},{""page_index"":1,""viewing_time"":814.3999999999069},{""page_index"":2,""viewing_time"":609.7399999999907}]","","","","","","",""
"","","","call-function","421","914694","0.0-421.0","wexsd9v0","","","","","","","",""
"null","","","html-keyboard-response","422","916195","0.0-422.0","wexsd9v0","","<span style=""color:Black; font-size:50px;"">Agent A","null","","","","",""
"null","","","video-keyboard-response","423","919272","0.0-423.0","wexsd9v0","","","null","","Agent A","scrambled","STIM_SET_2/498396.bmp_pp99_L2_V1.0_scrambled_freeview_isoTrue.mp4",""
"null","","","html-keyboard-response","424","920776","0.0-424.0","wexsd9v0","","<span style=""color:Black; font-size:50px;"">Agent B","null","","","","",""
"null","","","video-keyboard-response","425","923851","0.0-425.0","wexsd9v0","","","null","","Agent B","veridical","STIM_SET_2/498396.bmp_pp99_L2_V1.0_veridical_freeview_isoTrue.mp4",""
"","","","call-function","426","923852","0.0-426.0","wexsd9v0","","","","","","","",""
"2461.6200000001118","{""judgement"":0}","[0]","survey-likert","427","926314","0.0-427.0","wexsd9v0","","","","","","","","1"
"6326.765000000014","{""confidence"":1}","[0]","survey-likert","428","932643","0.0-428.0","wexsd9v0","","","","","","","",""
"","","","call-function","429","932645","0.0-429.0","wexsd9v0","","","","","","","",""
"null","","","html-keyboard-response","430","934151","0.0-430.0","wexsd9v0","","<span style=""color:Black; font-size:50px;"">Agent A","null","","","","",""
"null","","","video-keyboard-response","431","937217","0.0-431.0","wexsd9v0","","","null","","Agent A","scrambled","STIM_SET_2/713689.bmp_pp153_L3_V1.0_scrambled_freeview_isoTrue.mp4",""
"null","","","html-keyboard-response","432","938721","0.0-432.0","wexsd9v0","","<span style=""color:Black; font-size:50px;"">Agent B","null","","","","",""
"null","","","video-keyboard-response","433","941792","0.0-433.0","wexsd9v0","","","null","","Agent B","veridical","STIM_SET_2/713689.bmp_pp153_L3_V1.0_veridical_freeview_isoTrue.mp4",""
"","","","call-function","434","941793","0.0-434.0","wexsd9v0","","","","","","","",""
"2300.094999999972","{""judgement"":1}","[0]","survey-likert","435","944095","0.0-435.0","wexsd9v0","","","","","","","","1"
"1761.670000000042","{""confidence"":1}","[0]","survey-likert","436","945858","0.0-436.0","wexsd9v0","","","","","","","",""
"","","","call-function","437","945858","0.0-437.0","wexsd9v0","","","","","","","",""
"null","","","html-keyboard-response","438","947361","0.0-438.0","wexsd9v0","","<span style=""color:Black; font-size:50px;"">Agent A","null","","","","",""
"null","","","video-keyboard-response","439","950428","0.0-439.0","wexsd9v0","","","null","","Agent A","veridical","STIM_SET_2/285684.bmp_pp80_L3_V1.0_veridical_freeview_isoTrue.mp4",""
"null","","","html-keyboard-response","440","951930","0.0-440.0","wexsd9v0","","<span style=""color:Black; font-size:50px;"">Agent B","null","","","","",""
"null","","","video-keyboard-response","441","954998","0.0-441.0","wexsd9v0","","","null","","Agent B","scrambled","STIM_SET_2/285684.bmp_pp80_L3_V1.0_scrambled_freeview_isoTrue.mp4",""
"","","","call-function","442","954999","0.0-442.0","wexsd9v0","","","","","","","",""
"2084.4649999999674","{""judgement"":0}","[0]","survey-likert","443","957084","0.0-443.0","wexsd9v0","","","","","","","","0"
"1545.0199999999022","{""confidence"":2}","[0]","survey-likert","444","958631","0.0-444.0","wexsd9v0","","","","","","","",""
"","","","call-function","445","958631","0.0-445.0","wexsd9v0","","","","","","","",""
"null","","","html-keyboard-response","446","960134","0.0-446.0","wexsd9v0","","<span style=""color:Black; font-size:50px;"">Agent A","null","","","","",""
"null","","","video-keyboard-response","447","963212","0.0-447.0","wexsd9v0","","","null","","Agent A","scrambled","STIM_SET_2/1592168.bmp_pp71_L1_V1.0_scrambled_freeview_isoTrue.mp4",""
"null","","","html-keyboard-response","448","964717","0.0-448.0","wexsd9v0","","<span style=""color:Black; font-size:50px;"">Agent B","null","","","","",""
"null","","","video-keyboard-response","449","967783","0.0-449.0","wexsd9v0","","","null","","Agent B","veridical","STIM_SET_2/1592168.bmp_pp71_L1_V1.0_veridical_freeview_isoTrue.mp4",""
"","","","call-function","450","967784","0.0-450.0","wexsd9v0","","","","","","","",""
"3158.6750000000466","{""judgement"":1}","[0]","survey-likert","451","970943","0.0-451.0","wexsd9v0","","","","","","","","1"
"2424.9499999999534","{""confidence"":2}","[0]","survey-likert","452","973370","0.0-452.0","wexsd9v0","","","","","","","",""
"","","","call-function","453","973370","0.0-453.0","wexsd9v0","","","","","","","",""
"null","","","html-keyboard-response","454","974871","0.0-454.0","wexsd9v0","","<span style=""color:Black; font-size:50px;"">Agent A","null","","","","",""
"null","","","video-keyboard-response","455","977978","0.0-455.0","wexsd9v0","","","null","","Agent A","veridical","STIM_SET_2/107909.bmp_pp95_L2_V1.0_veridical_freeview_isoTrue.mp4",""
"null","","","html-keyboard-response","456","979482","0.0-456.0","wexsd9v0","","<span style=""color:Black; font-size:50px;"">Agent B","null","","","","",""
"null","","","video-keyboard-response","457","982587","0.0-457.0","wexsd9v0","","","null","","Agent B","scrambled","STIM_SET_2/107909.bmp_pp95_L2_V1.0_scrambled_freeview_isoTrue.mp4",""
"","","","call-function","458","982588","0.0-458.0","wexsd9v0","","","","","","","",""
"2944.8649999999907","{""judgement"":0}","[0]","survey-likert","459","985534","0.0-459.0","wexsd9v0","","","","","","","","0"
"1262.4599999999627","{""confidence"":2}","[0]","survey-likert","460","986798","0.0-460.0","wexsd9v0","","","","","","","",""
"","","","call-function","461","986798","0.0-461.0","wexsd9v0","","","","","","","",""
"null","","","html-keyboard-response","462","988300","0.0-462.0","wexsd9v0","","<span style=""color:Black; font-size:50px;"">Agent A","null","","","","",""
"null","","","video-keyboard-response","463","991390","0.0-463.0","wexsd9v0","","","null","","Agent A","scrambled","STIM_SET_2/498025.bmp_pp81_L1_V1.0_scrambled_freeview_isoTrue.mp4",""
"null","","","html-keyboard-response","464","992890","0.0-464.0","wexsd9v0","","<span style=""color:Black; font-size:50px;"">Agent B","null","","","","",""
"null","","","video-keyboard-response","465","995981","0.0-465.0","wexsd9v0","","","null","","Agent B","veridical","STIM_SET_2/498025.bmp_pp81_L1_V1.0_veridical_freeview_isoTrue.mp4",""
"","","","call-function","466","995982","0.0-466.0","wexsd9v0","","","","","","","",""
"1702.7350000001024","{""judgement"":1}","[0]","survey-likert","467","997686","0.0-467.0","wexsd9v0","","","","","","","","1"
"1425.625","{""confidence"":2}","[0]","survey-likert","468","999112","0.0-468.0","wexsd9v0","","","","","","","",""
"","","","call-function","469","999113","0.0-469.0","wexsd9v0","","","","","","","",""
"null","","","html-keyboard-response","470","1000620","0.0-470.0","wexsd9v0","","<span style=""color:Black; font-size:50px;"">Agent A","null","","","","",""
"null","","","video-keyboard-response","471","1003726","0.0-471.0","wexsd9v0","","","null","","Agent A","veridical","STIM_SET_2/1591781.bmp_pp63_L1_V1.0_veridical_freeview_isoTrue.mp4",""
"null","","","html-keyboard-response","472","1005227","0.0-472.0","wexsd9v0","","<span style=""color:Black; font-size:50px;"">Agent B","null","","","","",""
"null","","","video-keyboard-response","473","1008303","0.0-473.0","wexsd9v0","","","null","","Agent B","scrambled","STIM_SET_2/1591781.bmp_pp63_L1_V1.0_scrambled_freeview_isoTrue.mp4",""
"","","","call-function","474","1008304","0.0-474.0","wexsd9v0","","","","","","","",""
"1673.5600000000559","{""judgement"":0}","[0]","survey-likert","475","1009979","0.0-475.0","wexsd9v0","","","","","","","","0"
"1500.829999999958","{""confidence"":1}","[0]","survey-likert","476","1011481","0.0-476.0","wexsd9v0","","","","","","","",""
"","","","call-function","477","1011481","0.0-477.0","wexsd9v0","","","","","","","",""
"null","","","html-keyboard-response","478","1012985","0.0-478.0","wexsd9v0","","<span style=""color:Black; font-size:50px;"">Agent A","null","","","","",""
"null","","","video-keyboard-response","479","1016062","0.0-479.0","wexsd9v0","","","null","","Agent A","veridical","STIM_SET_2/713742.bmp_pp91_L3_V1.0_veridical_freeview_isoTrue.mp4",""
"null","","","html-keyboard-response","480","1017563","0.0-480.0","wexsd9v0","","<span style=""color:Black; font-size:50px;"">Agent B","null","","","","",""
"null","","","video-keyboard-response","481","1020639","0.0-481.0","wexsd9v0","","","null","","Agent B","scrambled","STIM_SET_2/713742.bmp_pp91_L3_V1.0_scrambled_freeview_isoTrue.mp4",""
"","","","call-function","482","1020640","0.0-482.0","wexsd9v0","","","","","","","",""
"2625.094999999972","{""judgement"":0}","[0]","survey-likert","483","1023266","0.0-483.0","wexsd9v0","","","","","","","","0"
"1792.655000000028","{""confidence"":3}","[0]","survey-likert","484","1025061","0.0-484.0","wexsd9v0","","","","","","","",""
"","","","call-function","485","1025062","0.0-485.0","wexsd9v0","","","","","","","",""
"null","","","html-keyboard-response","486","1026563","0.0-486.0","wexsd9v0","","<span style=""color:Black; font-size:50px;"">Agent A","null","","","","",""
"null","","","video-keyboard-response","487","1029627","0.0-487.0","wexsd9v0","","","null","","Agent A","scrambled","STIM_SET_2/285715.bmp_pp67_L2_V1.0_scrambled_freeview_isoTrue.mp4",""
"null","","","html-keyboard-response","488","1031133","0.0-488.0","wexsd9v0","","<span style=""color:Black; font-size:50px;"">Agent B","null","","","","",""
"null","","","video-keyboard-response","489","1034200","0.0-489.0","wexsd9v0","","","null","","Agent B","veridical","STIM_SET_2/285715.bmp_pp67_L2_V1.0_veridical_freeview_isoTrue.mp4",""
"","","","call-function","490","1034201","0.0-490.0","wexsd9v0","","","","","","","",""
"1928.9400000000605","{""judgement"":1}","[0]","survey-likert","491","1036131","0.0-491.0","wexsd9v0","","","","","","","","1"
"1739.3499999999767","{""confidence"":3}","[0]","survey-likert","492","1037872","0.0-492.0","wexsd9v0","","","","","","","",""
"","","","call-function","493","1037873","0.0-493.0","wexsd9v0","","","","","","","",""
"null","","","html-keyboard-response","494","1039375","0.0-494.0","wexsd9v0","","<span style=""color:Black; font-size:50px;"">Agent A","null","","","","",""
"null","","","video-keyboard-response","495","1042447","0.0-495.0","wexsd9v0","","","null","","Agent A","scrambled","STIM_SET_2/1160189.bmp_pp64_L1_V1.0_scrambled_freeview_isoTrue.mp4",""
"null","","","html-keyboard-response","496","1043949","0.0-496.0","wexsd9v0","","<span style=""color:Black; font-size:50px;"">Agent B","null","","","","",""
"null","","","video-keyboard-response","497","1047025","0.0-497.0","wexsd9v0","","","null","","Agent B","veridical","STIM_SET_2/1160189.bmp_pp64_L1_V1.0_veridical_freeview_isoTrue.mp4",""
"","","","call-function","498","1047026","0.0-498.0","wexsd9v0","","","","","","","",""
"1573.4450000000652","{""judgement"":1}","[0]","survey-likert","499","1048601","0.0-499.0","wexsd9v0","","","","","","","","1"
"1622.969999999972","{""confidence"":3}","[0]","survey-likert","500","1050225","0.0-500.0","wexsd9v0","","","","","","","",""
"2819.929999999935","","","instructions","501","1053045","0.0-501.0","wexsd9v0","[{""page_index"":0,""viewing_time"":1860.6949999998324},{""page_index"":1,""viewing_time"":356.9200000001583},{""page_index"":2,""viewing_time"":602.1599999999162}]","","","","","","",""
"897.3000000000466","","","instructions","502","1053943","0.0-502.0","wexsd9v0","[{""page_index"":0,""viewing_time"":424.29000000003725},{""page_index"":1,""viewing_time"":163.19499999983236},{""page_index"":2,""viewing_time"":309.70999999996275}]","","","","","","",""
"","","","call-function","503","1053944","0.0-503.0","wexsd9v0","","","","","","","",""
"null","","","html-keyboard-response","504","1055445","0.0-504.0","wexsd9v0","","<span style=""color:Black; font-size:50px;"">Agent A","null","","","","",""
"null","","","video-keyboard-response","505","1058539","0.0-505.0","wexsd9v0","","","null","","Agent A","veridical","STIM_SET_2/285946.bmp_pp79_L2_V1.0_veridical_freeview_isoTrue.mp4",""
"null","","","html-keyboard-response","506","1060041","0.0-506.0","wexsd9v0","","<span style=""color:Black; font-size:50px;"">Agent B","null","","","","",""
"null","","","video-keyboard-response","507","1063133","0.0-507.0","wexsd9v0","","","null","","Agent B","scrambled","STIM_SET_2/285946.bmp_pp79_L2_V1.0_scrambled_freeview_isoTrue.mp4",""
"","","","call-function","508","1063133","0.0-508.0","wexsd9v0","","","","","","","",""
"2148.155000000028","{""judgement"":1}","[0]","survey-likert","509","1065282","0.0-509.0","wexsd9v0","","","","","","","","0"
"1443.1100000001024","{""confidence"":2}","[0]","survey-likert","510","1066727","0.0-510.0","wexsd9v0","","","","","","","",""
"","","","call-function","511","1066727","0.0-511.0","wexsd9v0","","","","","","","",""
"null","","","html-keyboard-response","512","1068234","0.0-512.0","wexsd9v0","","<span style=""color:Black; font-size:50px;"">Agent A","null","","","","",""
"null","","","video-keyboard-response","513","1071337","0.0-513.0","wexsd9v0","","","null","","Agent A","scrambled","STIM_SET_2/713858.bmp_pp57_L1_V1.0_scrambled_freeview_isoTrue.mp4",""
"null","","","html-keyboard-response","514","1072843","0.0-514.0","wexsd9v0","","<span style=""color:Black; font-size:50px;"">Agent B","null","","","","",""
"null","","","video-keyboard-response","515","1075949","0.0-515.0","wexsd9v0","","","null","","Agent B","veridical","STIM_SET_2/713858.bmp_pp57_L1_V1.0_veridical_freeview_isoTrue.mp4",""
"","","","call-function","516","1075950","0.0-516.0","wexsd9v0","","","","","","","",""
"1990.9750000000931","{""judgement"":1}","[0]","survey-likert","517","1077942","0.0-517.0","wexsd9v0","","","","","","","","1"
"1232.2250000000931","{""confidence"":2}","[0]","survey-likert","518","1079175","0.0-518.0","wexsd9v0","","","","","","","",""
"","","","call-function","519","1079176","0.0-519.0","wexsd9v0","","","","","","","",""
"null","","","html-keyboard-response","520","1080679","0.0-520.0","wexsd9v0","","<span style=""color:Black; font-size:50px;"">Agent A","null","","","","",""
"null","","","video-keyboard-response","521","1083775","0.0-521.0","wexsd9v0","","","null","","Agent A","veridical","STIM_SET_2/1591975.bmp_pp88_L2_V1.0_veridical_freeview_isoTrue.mp4",""
"null","","","html-keyboard-response","522","1085280","0.0-522.0","wexsd9v0","","<span style=""color:Black; font-size:50px;"">Agent B","null","","","","",""
"null","","","video-keyboard-response","523","1088374","0.0-523.0","wexsd9v0","","","null","","Agent B","scrambled","STIM_SET_2/1591975.bmp_pp88_L2_V1.0_scrambled_freeview_isoTrue.mp4",""
"","","","call-function","524","1088375","0.0-524.0","wexsd9v0","","","","","","","",""
"2158.935000000056","{""judgement"":0}","[0]","survey-likert","525","1090535","0.0-525.0","wexsd9v0","","","","","","","","0"
"1377.4750000000931","{""confidence"":3}","[0]","survey-likert","526","1091914","0.0-526.0","wexsd9v0","","","","","","","",""
"","","","call-function","527","1091914","0.0-527.0","wexsd9v0","","","","","","","",""
"null","","","html-keyboard-response","528","1093418","0.0-528.0","wexsd9v0","","<span style=""color:Black; font-size:50px;"">Agent A","null","","","","",""
"null","","","video-keyboard-response","529","1096486","0.0-529.0","wexsd9v0","","","null","","Agent A","veridical","STIM_SET_2/1592129.bmp_pp153_L3_V1.0_veridical_freeview_isoTrue.mp4",""
"null","","","html-keyboard-response","530","1097990","0.0-530.0","wexsd9v0","","<span style=""color:Black; font-size:50px;"">Agent B","null","","","","",""
"null","","","video-keyboard-response","531","1101061","0.0-531.0","wexsd9v0","","","null","","Agent B","scrambled","STIM_SET_2/1592129.bmp_pp153_L3_V1.0_scrambled_freeview_isoTrue.mp4",""
"","","","call-function","532","1101062","0.0-532.0","wexsd9v0","","","","","","","",""
"1878.4749999998603","{""judgement"":0}","[0]","survey-likert","533","1102941","0.0-533.0","wexsd9v0","","","","","","","","0"
"1148.9199999999255","{""confidence"":2}","[0]","survey-likert","534","1104091","0.0-534.0","wexsd9v0","","","","","","","",""
"","","","call-function","535","1104092","0.0-535.0","wexsd9v0","","","","","","","",""
"null","","","html-keyboard-response","536","1105594","0.0-536.0","wexsd9v0","","<span style=""color:Black; font-size:50px;"">Agent A","null","","","","",""
"null","","","video-keyboard-response","537","1108660","0.0-537.0","wexsd9v0","","","null","","Agent A","scrambled","STIM_SET_2/1592017.bmp_pp154_L1_V1.0_scrambled_freeview_isoTrue.mp4",""
"null","","","html-keyboard-response","538","1110163","0.0-538.0","wexsd9v0","","<span style=""color:Black; font-size:50px;"">Agent B","null","","","","",""
"null","","","video-keyboard-response","539","1113234","0.0-539.0","wexsd9v0","","","null","","Agent B","veridical","STIM_SET_2/1592017.bmp_pp154_L1_V1.0_veridical_freeview_isoTrue.mp4",""
"","","","call-function","540","1113235","0.0-540.0","wexsd9v0","","","","","","","",""
"2789.7099999999627","{""judgement"":1}","[0]","survey-likert","541","1116026","0.0-541.0","wexsd9v0","","","","","","","","1"
"1470.9799999999814","{""confidence"":2}","[0]","survey-likert","542","1117498","0.0-542.0","wexsd9v0","","","","","","","",""
"","","","call-function","543","1117498","0.0-543.0","wexsd9v0","","","","","","","",""
"null","","","html-keyboard-response","544","1119003","0.0-544.0","wexsd9v0","","<span style=""color:Black; font-size:50px;"">Agent A","null","","","","",""
"null","","","video-keyboard-response","545","1122100","0.0-545.0","wexsd9v0","","","null","","Agent A","scrambled","STIM_SET_2/1592150.bmp_pp77_L3_V1.0_scrambled_freeview_isoTrue.mp4",""
"null","","","html-keyboard-response","546","1123606","0.0-546.0","wexsd9v0","","<span style=""color:Black; font-size:50px;"">Agent B","null","","","","",""
"null","","","video-keyboard-response","547","1126703","0.0-547.0","wexsd9v0","","","null","","Agent B","veridical","STIM_SET_2/1592150.bmp_pp77_L3_V1.0_veridical_freeview_isoTrue.mp4",""
"","","","call-function","548","1126704","0.0-548.0","wexsd9v0","","","","","","","",""
"1547.3900000001304","{""judgement"":1}","[0]","survey-likert","549","1128252","0.0-549.0","wexsd9v0","","","","","","","","1"
"1026.4150000000373","{""confidence"":2}","[0]","survey-likert","550","1129281","0.0-550.0","wexsd9v0","","","","","","","",""
"","","","call-function","551","1129281","0.0-551.0","wexsd9v0","","","","","","","",""
"null","","","html-keyboard-response","552","1130782","0.0-552.0","wexsd9v0","","<span style=""color:Black; font-size:50px;"">Agent A","null","","","","",""
"null","","","video-keyboard-response","553","1133892","0.0-553.0","wexsd9v0","","","null","","Agent A","scrambled","STIM_SET_2/1592289.bmp_pp92_L3_V1.0_scrambled_freeview_isoTrue.mp4",""
"null","","","html-keyboard-response","554","1135396","0.0-554.0","wexsd9v0","","<span style=""color:Black; font-size:50px;"">Agent B","null","","","","",""
"null","","","video-keyboard-response","555","1138501","0.0-555.0","wexsd9v0","","","null","","Agent B","veridical","STIM_SET_2/1592289.bmp_pp92_L3_V1.0_veridical_freeview_isoTrue.mp4",""
"","","","call-function","556","1138502","0.0-556.0","wexsd9v0","","","","","","","",""
"1492.5749999999534","{""judgement"":1}","[0]","survey-likert","557","1139996","0.0-557.0","wexsd9v0","","","","","","","","1"
"1359.2099999999627","{""confidence"":3}","[0]","survey-likert","558","1141357","0.0-558.0","wexsd9v0","","","","","","","",""
"","","","call-function","559","1141359","0.0-559.0","wexsd9v0","","","","","","","",""
"null","","","html-keyboard-response","560","1142862","0.0-560.0","wexsd9v0","","<span style=""color:Black; font-size:50px;"">Agent A","null","","","","",""
"null","","","video-keyboard-response","561","1145925","0.0-561.0","wexsd9v0","","","null","","Agent A","veridical","STIM_SET_2/1592567.bmp_pp70_L2_V1.0_veridical_freeview_isoTrue.mp4",""
"null","","","html-keyboard-response","562","1147427","0.0-562.0","wexsd9v0","","<span style=""color:Black; font-size:50px;"">Agent B","null","","","","",""
"null","","","video-keyboard-response","563","1150490","0.0-563.0","wexsd9v0","","","null","","Agent B","scrambled","STIM_SET_2/1592567.bmp_pp70_L2_V1.0_scrambled_freeview_isoTrue.mp4",""
"","","","call-function","564","1150491","0.0-564.0","wexsd9v0","","","","","","","",""
"2321.475000000093","{""judgement"":0}","[0]","survey-likert","565","1152814","0.0-565.0","wexsd9v0","","","","","","","","0"
"1578.1599999999162","{""confidence"":3}","[0]","survey-likert","566","1154393","0.0-566.0","wexsd9v0","","","","","","","",""
"","","","call-function","567","1154394","0.0-567.0","wexsd9v0","","","","","","","",""
"null","","","html-keyboard-response","568","1155900","0.0-568.0","wexsd9v0","","<span style=""color:Black; font-size:50px;"">Agent A","null","","","","",""
"null","","","video-keyboard-response","569","1158980","0.0-569.0","wexsd9v0","","","null","","Agent A","veridical","STIM_SET_2/713633.bmp_pp58_L1_V1.0_veridical_freeview_isoTrue.mp4",""
"null","","","html-keyboard-response","570","1160482","0.0-570.0","wexsd9v0","","<span style=""color:Black; font-size:50px;"">Agent B","null","","","","",""
"null","","","video-keyboard-response","571","1163558","0.0-571.0","wexsd9v0","","","null","","Agent B","scrambled","STIM_SET_2/713633.bmp_pp58_L1_V1.0_scrambled_freeview_isoTrue.mp4",""
"","","","call-function","572","1163558","0.0-572.0","wexsd9v0","","","","","","","",""
"3698.935000000056","{""judgement"":0}","[0]","survey-likert","573","1167258","0.0-573.0","wexsd9v0","","","","","","","","0"
"2728.560000000056","{""confidence"":3}","[0]","survey-likert","574","1169988","0.0-574.0","wexsd9v0","","","","","","","",""
"","","","call-function","575","1169989","0.0-575.0","wexsd9v0","","","","","","","",""
"null","","","html-keyboard-response","576","1171491","0.0-576.0","wexsd9v0","","<span style=""color:Black; font-size:50px;"">Agent A","null","","","","",""
"null","","","video-keyboard-response","577","1174585","0.0-577.0","wexsd9v0","","","null","","Agent A","scrambled","STIM_SET_2/1592314.bmp_pp100_L3_V1.0_scrambled_freeview_isoTrue.mp4",""
"null","","","html-keyboard-response","578","1176087","0.0-578.0","wexsd9v0","","<span style=""color:Black; font-size:50px;"">Agent B","null","","","","",""
"null","","","video-keyboard-response","579","1179180","0.0-579.0","wexsd9v0","","","null","","Agent B","veridical","STIM_SET_2/1592314.bmp_pp100_L3_V1.0_veridical_freeview_isoTrue.mp4",""
"","","","call-function","580","1179181","0.0-580.0","wexsd9v0","","","","","","","",""
"2300.429999999935","{""judgement"":1}","[0]","survey-likert","581","1181482","0.0-581.0","wexsd9v0","","","","","","","","1"
"1649.6049999999814","{""confidence"":2}","[0]","survey-likert","582","1183133","0.0-582.0","wexsd9v0","","","","","","","",""
"2885.5849999999627","","","instructions","583","1186019","0.0-583.0","wexsd9v0","[{""page_index"":0,""viewing_time"":2885.435000000056}]","","","","","","",""
"6211.879999999888","","","instructions","584","1192232","0.0-584.0","wexsd9v0","[{""page_index"":0,""viewing_time"":6211.779999999795}]","","","","","","",""
"15517.329999999842","{""post-1"":1}","[0]","survey-likert","585","1207750","0.0-585.0","wexsd9v0","","","","","","","",""
"17904.055000000168","{""post-1"":2}","[0]","survey-likert","586","1225656","0.0-586.0","wexsd9v0","","","","","","","",""
"14820.300000000047","{""post-2"":1}","[0]","survey-likert","587","1240479","0.0-587.0","wexsd9v0","","","","","","","",""
"4338.760000000009","{""post-2"":1}","[0]","survey-likert","588","1244819","0.0-588.0","wexsd9v0","","","","","","","",""
"13546.38500000001","{""post-3"":1}","[0]","survey-likert","589","1258367","0.0-589.0","wexsd9v0","","","","","","","",""
"2116.714999999851","{""post-3"":2}","[0]","survey-likert","590","1260485","0.0-590.0","wexsd9v0","","","","","","","",""
"9434.754999999888","{""post-4"":0}","[0]","survey-likert","591","1269921","0.0-591.0","wexsd9v0","","","","","","","",""
"18135.96499999985","{""post-4"":0}","[0]","survey-likert","592","1288059","0.0-592.0","wexsd9v0","","","","","","","",""
"5322.25","{""post-5"":1}","[0]","survey-likert","593","1293384","0.0-593.0","wexsd9v0","","","","","","","",""
"7796.534999999916","{""post-5"":1}","[0]","survey-likert","594","1301182","0.0-594.0","wexsd9v0","","","","","","","",""
"3691.744999999879","{""Q0"":""""}","","survey-text","595","1304880","0.0-595.0","wexsd9v0","","","","","","","",""
"81190.08499999996","{""Q0"":""I tried counting the places that attention was focused and the amount of back-and-forths, but neither strategy felt helpful ""}","","survey-text","596","1386073","0.0-596.0","wexsd9v0","","","","","","","",""
"30701.48499999987","{""Q0"":""Sometimes the two patterns seemed very similar""}","","survey-text","597","1416778","0.0-597.0","wexsd9v0","","","","","","","",""
"1599.4599999999627","","","instructions","598","1418379","0.0-598.0","wexsd9v0","[{""page_index"":0,""viewing_time"":1599.3100000000559}]","","","","","","",""
"82620.7250000001","{""Experimenter_end"":[""Printed ID# wexsd9v0 on consent form"",""Given subject SONA credit or payment"",""Given the subject debrief form""]}","[0]","survey-multi-select","599","1501002","0.0-599.0","wexsd9v0","","","","","","","",""
