"rt","responses","question_order","trial_type","trial_index","time_elapsed","internal_node_id","ID","view_history","stimulus","key_press","value","agent","condition","image","correct_answer"
"114891.455","{""Experimenter"":[""Confirmed subject's identity"",""Confirmed normal or corrected-to-normal vision"",""Obtained consent (signature and date)"",""Checked the test room lighting"",""Checked computer screen lighting"",""Checked distance from screen to chin rest (50cm)"",""Cleaned and adjusted chin rest"",""Counterbalanced the order of the tasks"",""Opened the experiment in Firefox"",""Made the experiment full screen"",""Encouraged subject to silence phone, put away distractors, etc.""]}","[0]","survey-multi-select","0","114900","0.0-0.0","wx0d9fdn","","","","","","","",""
"55146.36499999999","","","instructions","1","170048","0.0-1.0","wx0d9fdn","[{""page_index"":0,""viewing_time"":55146.215}]","","","","","","",""
"19630.08500000002","","","instructions","2","189679","0.0-2.0","wx0d9fdn","[{""page_index"":0,""viewing_time"":12446.050000000017},{""page_index"":1,""viewing_time"":1401.8899999999849},{""page_index"":2,""viewing_time"":5782.024999999994}]","","","","","","",""
"2271.350000000006","","","instructions","3","191950","0.0-3.0","wx0d9fdn","[{""page_index"":0,""viewing_time"":2271.2449999999953}]","","","","","","",""
"null","","","video-keyboard-response","4","195029","0.0-4.0","wx0d9fdn","","","null","","","","",""
"9131.86499999999","","","instructions","5","204162","0.0-5.0","wx0d9fdn","[{""page_index"":0,""viewing_time"":2444.6199999999953},{""page_index"":1,""viewing_time"":2572},{""page_index"":2,""viewing_time"":4115.075000000012}]","","","","","","",""
"2246.2399999999907","","","instructions","6","206409","0.0-6.0","wx0d9fdn","[{""page_index"":0,""viewing_time"":2246.1350000000093}]","","","","","","",""
"1170.664999999979","","","instructions","7","207580","0.0-7.0","wx0d9fdn","[{""page_index"":0,""viewing_time"":1170.4499999999825}]","","","","","","",""
"null","","","video-keyboard-response","8","210655","0.0-8.0","wx0d9fdn","","","null","","","","",""
"13898.015000000014","","","instructions","9","224554","0.0-9.0","wx0d9fdn","[{""page_index"":0,""viewing_time"":2701.959999999992},{""page_index"":1,""viewing_time"":5680.885000000009},{""page_index"":2,""viewing_time"":5515.029999999999}]","","","","","","",""
"5645.4800000000105","","","instructions","10","230200","0.0-10.0","wx0d9fdn","[{""page_index"":0,""viewing_time"":5645.360000000015}]","","","","","","",""
"","","","call-function","11","230201","0.0-11.0","wx0d9fdn","","","","","","","",""
"null","","","html-keyboard-response","12","231703","0.0-12.0","wx0d9fdn","","<span style=""color:Black; font-size:50px;"">Agent A","null","","","","",""
"null","","","video-keyboard-response","13","234770","0.0-13.0","wx0d9fdn","","","null","","Agent A","scrambled","STIM_SET_2/285932.bmp_pp64_L1_V1.0_scrambled_freeview_isoTrue.mp4",""
"null","","","html-keyboard-response","14","236272","0.0-14.0","wx0d9fdn","","<span style=""color:Black; font-size:50px;"">Agent B","null","","","","",""
"null","","","video-keyboard-response","15","239341","0.0-15.0","wx0d9fdn","","","null","","Agent B","veridical","STIM_SET_2/285932.bmp_pp64_L1_V1.0_veridical_freeview_isoTrue.mp4",""
"","","","call-function","16","239342","0.0-16.0","wx0d9fdn","","","","","","","",""
"5626.099999999977","{""judgement"":1}","[0]","survey-likert","17","244969","0.0-17.0","wx0d9fdn","","","","","","","","1"
"3294.734999999986","{""confidence"":0}","[0]","survey-likert","18","248265","0.0-18.0","wx0d9fdn","","","","","","","",""
"","","","call-function","19","248265","0.0-19.0","wx0d9fdn","","","","","","","",""
"null","","","html-keyboard-response","20","249772","0.0-20.0","wx0d9fdn","","<span style=""color:Black; font-size:50px;"">Agent A","null","","","","",""
"null","","","video-keyboard-response","21","252872","0.0-21.0","wx0d9fdn","","","null","","Agent A","scrambled","STIM_SET_2/498326.bmp_pp57_L1_V1.0_scrambled_freeview_isoTrue.mp4",""
"null","","","html-keyboard-response","22","254376","0.0-22.0","wx0d9fdn","","<span style=""color:Black; font-size:50px;"">Agent B","null","","","","",""
"null","","","video-keyboard-response","23","257474","0.0-23.0","wx0d9fdn","","","null","","Agent B","veridical","STIM_SET_2/498326.bmp_pp57_L1_V1.0_veridical_freeview_isoTrue.mp4",""
"","","","call-function","24","257474","0.0-24.0","wx0d9fdn","","","","","","","",""
"2608.805000000022","{""judgement"":1}","[0]","survey-likert","25","260084","0.0-25.0","wx0d9fdn","","","","","","","","1"
"3331.75999999998","{""confidence"":1}","[0]","survey-likert","26","263417","0.0-26.0","wx0d9fdn","","","","","","","",""
"","","","call-function","27","263418","0.0-27.0","wx0d9fdn","","","","","","","",""
"null","","","html-keyboard-response","28","264919","0.0-28.0","wx0d9fdn","","<span style=""color:Black; font-size:50px;"">Agent A","null","","","","",""
"null","","","video-keyboard-response","29","267998","0.0-29.0","wx0d9fdn","","","null","","Agent A","scrambled","STIM_SET_2/713858.bmp_pp57_L1_V1.0_scrambled_freeview_isoTrue.mp4",""
"null","","","html-keyboard-response","30","269505","0.0-30.0","wx0d9fdn","","<span style=""color:Black; font-size:50px;"">Agent B","null","","","","",""
"null","","","video-keyboard-response","31","272586","0.0-31.0","wx0d9fdn","","","null","","Agent B","veridical","STIM_SET_2/713858.bmp_pp57_L1_V1.0_veridical_freeview_isoTrue.mp4",""
"","","","call-function","32","272587","0.0-32.0","wx0d9fdn","","","","","","","",""
"2006.625","{""judgement"":1}","[0]","survey-likert","33","274595","0.0-33.0","wx0d9fdn","","","","","","","","1"
"1449.9100000000326","{""confidence"":0}","[0]","survey-likert","34","276046","0.0-34.0","wx0d9fdn","","","","","","","",""
"","","","call-function","35","276047","0.0-35.0","wx0d9fdn","","","","","","","",""
"null","","","html-keyboard-response","36","277552","0.0-36.0","wx0d9fdn","","<span style=""color:Black; font-size:50px;"">Agent A","null","","","","",""
"null","","","video-keyboard-response","37","280619","0.0-37.0","wx0d9fdn","","","null","","Agent A","veridical","STIM_SET_2/285684.bmp_pp80_L3_V1.0_veridical_freeview_isoTrue.mp4",""
"null","","","html-keyboard-response","38","282124","0.0-38.0","wx0d9fdn","","<span style=""color:Black; font-size:50px;"">Agent B","null","","","","",""
"null","","","video-keyboard-response","39","285191","0.0-39.0","wx0d9fdn","","","null","","Agent B","scrambled","STIM_SET_2/285684.bmp_pp80_L3_V1.0_scrambled_freeview_isoTrue.mp4",""
"","","","call-function","40","285192","0.0-40.0","wx0d9fdn","","","","","","","",""
"2206.5650000000023","{""judgement"":0}","[0]","survey-likert","41","287399","0.0-41.0","wx0d9fdn","","","","","","","","0"
"6416.40499999997","{""confidence"":0}","[0]","survey-likert","42","293817","0.0-42.0","wx0d9fdn","","","","","","","",""
"","","","call-function","43","293818","0.0-43.0","wx0d9fdn","","","","","","","",""
"null","","","html-keyboard-response","44","295321","0.0-44.0","wx0d9fdn","","<span style=""color:Black; font-size:50px;"">Agent A","null","","","","",""
"null","","","video-keyboard-response","45","298395","0.0-45.0","wx0d9fdn","","","null","","Agent A","veridical","STIM_SET_2/1159973.bmp_pp98_L1_V1.0_veridical_freeview_isoTrue.mp4",""
"null","","","html-keyboard-response","46","299901","0.0-46.0","wx0d9fdn","","<span style=""color:Black; font-size:50px;"">Agent B","null","","","","",""
"null","","","video-keyboard-response","47","302998","0.0-47.0","wx0d9fdn","","","null","","Agent B","scrambled","STIM_SET_2/1159973.bmp_pp98_L1_V1.0_scrambled_freeview_isoTrue.mp4",""
"","","","call-function","48","302998","0.0-48.0","wx0d9fdn","","","","","","","",""
"3539.6300000000047","{""judgement"":1}","[0]","survey-likert","49","306539","0.0-49.0","wx0d9fdn","","","","","","","","0"
"3241.5499999999884","{""confidence"":1}","[0]","survey-likert","50","309781","0.0-50.0","wx0d9fdn","","","","","","","",""
"","","","call-function","51","309782","0.0-51.0","wx0d9fdn","","","","","","","",""
"null","","","html-keyboard-response","52","311287","0.0-52.0","wx0d9fdn","","<span style=""color:Black; font-size:50px;"">Agent A","null","","","","",""
"null","","","video-keyboard-response","53","314383","0.0-53.0","wx0d9fdn","","","null","","Agent A","scrambled","STIM_SET_2/713689.bmp_pp153_L3_V1.0_scrambled_freeview_isoTrue.mp4",""
"null","","","html-keyboard-response","54","315888","0.0-54.0","wx0d9fdn","","<span style=""color:Black; font-size:50px;"">Agent B","null","","","","",""
"null","","","video-keyboard-response","55","318988","0.0-55.0","wx0d9fdn","","","null","","Agent B","veridical","STIM_SET_2/713689.bmp_pp153_L3_V1.0_veridical_freeview_isoTrue.mp4",""
"","","","call-function","56","318989","0.0-56.0","wx0d9fdn","","","","","","","",""
"3717.5650000000023","{""judgement"":0}","[0]","survey-likert","57","322707","0.0-57.0","wx0d9fdn","","","","","","","","1"
"1721.960000000021","{""confidence"":0}","[0]","survey-likert","58","324430","0.0-58.0","wx0d9fdn","","","","","","","",""
"","","","call-function","59","324430","0.0-59.0","wx0d9fdn","","","","","","","",""
"null","","","html-keyboard-response","60","325933","0.0-60.0","wx0d9fdn","","<span style=""color:Black; font-size:50px;"">Agent A","null","","","","",""
"null","","","video-keyboard-response","61","329031","0.0-61.0","wx0d9fdn","","","null","","Agent A","veridical","STIM_SET_2/713920.bmp_pp76_L1_V1.0_veridical_freeview_isoTrue.mp4",""
"null","","","html-keyboard-response","62","330533","0.0-62.0","wx0d9fdn","","<span style=""color:Black; font-size:50px;"">Agent B","null","","","","",""
"null","","","video-keyboard-response","63","333633","0.0-63.0","wx0d9fdn","","","null","","Agent B","scrambled","STIM_SET_2/713920.bmp_pp76_L1_V1.0_scrambled_freeview_isoTrue.mp4",""
"","","","call-function","64","333633","0.0-64.0","wx0d9fdn","","","","","","","",""
"1956.7699999999604","{""judgement"":0}","[0]","survey-likert","65","335591","0.0-65.0","wx0d9fdn","","","","","","","","0"
"2647.1300000000047","{""confidence"":1}","[0]","survey-likert","66","338239","0.0-66.0","wx0d9fdn","","","","","","","",""
"","","","call-function","67","338240","0.0-67.0","wx0d9fdn","","","","","","","",""
"null","","","html-keyboard-response","68","339742","0.0-68.0","wx0d9fdn","","<span style=""color:Black; font-size:50px;"">Agent A","null","","","","",""
"null","","","video-keyboard-response","69","342810","0.0-69.0","wx0d9fdn","","","null","","Agent A","scrambled","STIM_SET_2/1159427.bmp_pp98_L1_V1.0_scrambled_freeview_isoTrue.mp4",""
"null","","","html-keyboard-response","70","344314","0.0-70.0","wx0d9fdn","","<span style=""color:Black; font-size:50px;"">Agent B","null","","","","",""
"null","","","video-keyboard-response","71","347383","0.0-71.0","wx0d9fdn","","","null","","Agent B","veridical","STIM_SET_2/1159427.bmp_pp98_L1_V1.0_veridical_freeview_isoTrue.mp4",""
"","","","call-function","72","347384","0.0-72.0","wx0d9fdn","","","","","","","",""
"4403.010000000009","{""judgement"":0}","[0]","survey-likert","73","351788","0.0-73.0","wx0d9fdn","","","","","","","","1"
"3740.554999999993","{""confidence"":0}","[0]","survey-likert","74","355529","0.0-74.0","wx0d9fdn","","","","","","","",""
"","","","call-function","75","355530","0.0-75.0","wx0d9fdn","","","","","","","",""
"null","","","html-keyboard-response","76","357037","0.0-76.0","wx0d9fdn","","<span style=""color:Black; font-size:50px;"">Agent A","null","","","","",""
"null","","","video-keyboard-response","77","360112","0.0-77.0","wx0d9fdn","","","null","","Agent A","scrambled","STIM_SET_2/1592350.bmp_pp55_L3_V1.0_scrambled_freeview_isoTrue.mp4",""
"null","","","html-keyboard-response","78","361615","0.0-78.0","wx0d9fdn","","<span style=""color:Black; font-size:50px;"">Agent B","null","","","","",""
"null","","","video-keyboard-response","79","364692","0.0-79.0","wx0d9fdn","","","null","","Agent B","veridical","STIM_SET_2/1592350.bmp_pp55_L3_V1.0_veridical_freeview_isoTrue.mp4",""
"","","","call-function","80","364692","0.0-80.0","wx0d9fdn","","","","","","","",""
"5125.070000000007","{""judgement"":1}","[0]","survey-likert","81","369818","0.0-81.0","wx0d9fdn","","","","","","","","1"
"2105.030000000028","{""confidence"":0}","[0]","survey-likert","82","371924","0.0-82.0","wx0d9fdn","","","","","","","",""
"","","","call-function","83","371925","0.0-83.0","wx0d9fdn","","","","","","","",""
"null","","","html-keyboard-response","84","373428","0.0-84.0","wx0d9fdn","","<span style=""color:Black; font-size:50px;"">Agent A","null","","","","",""
"null","","","video-keyboard-response","85","376508","0.0-85.0","wx0d9fdn","","","null","","Agent A","veridical","STIM_SET_2/498398.bmp_pp81_L1_V1.0_veridical_freeview_isoTrue.mp4",""
"null","","","html-keyboard-response","86","378014","0.0-86.0","wx0d9fdn","","<span style=""color:Black; font-size:50px;"">Agent B","null","","","","",""
"null","","","video-keyboard-response","87","381095","0.0-87.0","wx0d9fdn","","","null","","Agent B","scrambled","STIM_SET_2/498398.bmp_pp81_L1_V1.0_scrambled_freeview_isoTrue.mp4",""
"","","","call-function","88","381096","0.0-88.0","wx0d9fdn","","","","","","","",""
"3906.890000000014","{""judgement"":0}","[0]","survey-likert","89","385004","0.0-89.0","wx0d9fdn","","","","","","","","0"
"2249.914999999979","{""confidence"":0}","[0]","survey-likert","90","387255","0.0-90.0","wx0d9fdn","","","","","","","",""
"18889.005000000005","","","instructions","91","406145","0.0-91.0","wx0d9fdn","[{""page_index"":0,""viewing_time"":1618.335000000021},{""page_index"":1,""viewing_time"":16407.054999999993},{""page_index"":2,""viewing_time"":862.9850000000442}]","","","","","","",""
"3685.335000000021","","","instructions","92","409832","0.0-92.0","wx0d9fdn","[{""page_index"":0,""viewing_time"":837.3099999999977},{""page_index"":1,""viewing_time"":2152.045000000042},{""page_index"":2,""viewing_time"":695.8499999999767}]","","","","","","",""
"","","","call-function","93","409833","0.0-93.0","wx0d9fdn","","","","","","","",""
"null","","","html-keyboard-response","94","411338","0.0-94.0","wx0d9fdn","","<span style=""color:Black; font-size:50px;"">Agent A","null","","","","",""
"null","","","video-keyboard-response","95","414410","0.0-95.0","wx0d9fdn","","","null","","Agent A","scrambled","STIM_SET_2/1592747.bmp_pp53_L2_V1.0_scrambled_freeview_isoTrue.mp4",""
"null","","","html-keyboard-response","96","415912","0.0-96.0","wx0d9fdn","","<span style=""color:Black; font-size:50px;"">Agent B","null","","","","",""
"null","","","video-keyboard-response","97","418988","0.0-97.0","wx0d9fdn","","","null","","Agent B","veridical","STIM_SET_2/1592747.bmp_pp53_L2_V1.0_veridical_freeview_isoTrue.mp4",""
"","","","call-function","98","418989","0.0-98.0","wx0d9fdn","","","","","","","",""
"1673.6849999999977","{""judgement"":1}","[0]","survey-likert","99","420663","0.0-99.0","wx0d9fdn","","","","","","","","1"
"2592.850000000035","{""confidence"":1}","[0]","survey-likert","100","423258","0.0-100.0","wx0d9fdn","","","","","","","",""
"","","","call-function","101","423258","0.0-101.0","wx0d9fdn","","","","","","","",""
"null","","","html-keyboard-response","102","424763","0.0-102.0","wx0d9fdn","","<span style=""color:Black; font-size:50px;"">Agent A","null","","","","",""
"null","","","video-keyboard-response","103","427841","0.0-103.0","wx0d9fdn","","","null","","Agent A","veridical","STIM_SET_2/107909.bmp_pp95_L2_V1.0_veridical_freeview_isoTrue.mp4",""
"null","","","html-keyboard-response","104","429344","0.0-104.0","wx0d9fdn","","<span style=""color:Black; font-size:50px;"">Agent B","null","","","","",""
"null","","","video-keyboard-response","105","432421","0.0-105.0","wx0d9fdn","","","null","","Agent B","scrambled","STIM_SET_2/107909.bmp_pp95_L2_V1.0_scrambled_freeview_isoTrue.mp4",""
"","","","call-function","106","432422","0.0-106.0","wx0d9fdn","","","","","","","",""
"1691.9049999999697","{""judgement"":1}","[0]","survey-likert","107","434114","0.0-107.0","wx0d9fdn","","","","","","","","0"
"2384.0100000000093","{""confidence"":0}","[0]","survey-likert","108","436499","0.0-108.0","wx0d9fdn","","","","","","","",""
"","","","call-function","109","436500","0.0-109.0","wx0d9fdn","","","","","","","",""
"null","","","html-keyboard-response","110","438003","0.0-110.0","wx0d9fdn","","<span style=""color:Black; font-size:50px;"">Agent A","null","","","","",""
"null","","","video-keyboard-response","111","441104","0.0-111.0","wx0d9fdn","","","null","","Agent A","veridical","STIM_SET_2/1592305.bmp_pp65_L3_V1.0_veridical_freeview_isoTrue.mp4",""
"null","","","html-keyboard-response","112","442609","0.0-112.0","wx0d9fdn","","<span style=""color:Black; font-size:50px;"">Agent B","null","","","","",""
"null","","","video-keyboard-response","113","445711","0.0-113.0","wx0d9fdn","","","null","","Agent B","scrambled","STIM_SET_2/1592305.bmp_pp65_L3_V1.0_scrambled_freeview_isoTrue.mp4",""
"","","","call-function","114","445712","0.0-114.0","wx0d9fdn","","","","","","","",""
"1715.7200000000303","{""judgement"":0}","[0]","survey-likert","115","447428","0.0-115.0","wx0d9fdn","","","","","","","","0"
"1527.079999999958","{""confidence"":2}","[0]","survey-likert","116","448956","0.0-116.0","wx0d9fdn","","","","","","","",""
"","","","call-function","117","448957","0.0-117.0","wx0d9fdn","","","","","","","",""
"null","","","html-keyboard-response","118","450462","0.0-118.0","wx0d9fdn","","<span style=""color:Black; font-size:50px;"">Agent A","null","","","","",""
"null","","","video-keyboard-response","119","453563","0.0-119.0","wx0d9fdn","","","null","","Agent A","veridical","STIM_SET_2/1592201.bmp_pp97_L3_V1.0_veridical_freeview_isoTrue.mp4",""
"null","","","html-keyboard-response","120","455066","0.0-120.0","wx0d9fdn","","<span style=""color:Black; font-size:50px;"">Agent B","null","","","","",""
"null","","","video-keyboard-response","121","458165","0.0-121.0","wx0d9fdn","","","null","","Agent B","scrambled","STIM_SET_2/1592201.bmp_pp97_L3_V1.0_scrambled_freeview_isoTrue.mp4",""
"","","","call-function","122","458165","0.0-122.0","wx0d9fdn","","","","","","","",""
"4030.0900000000256","{""judgement"":0}","[0]","survey-likert","123","462196","0.0-123.0","wx0d9fdn","","","","","","","","0"
"1610.524999999965","{""confidence"":0}","[0]","survey-likert","124","463808","0.0-124.0","wx0d9fdn","","","","","","","",""
"","","","call-function","125","463808","0.0-125.0","wx0d9fdn","","","","","","","",""
"null","","","html-keyboard-response","126","465313","0.0-126.0","wx0d9fdn","","<span style=""color:Black; font-size:50px;"">Agent A","null","","","","",""
"null","","","video-keyboard-response","127","468406","0.0-127.0","wx0d9fdn","","","null","","Agent A","scrambled","STIM_SET_2/498025.bmp_pp81_L1_V1.0_scrambled_freeview_isoTrue.mp4",""
"null","","","html-keyboard-response","128","469909","0.0-128.0","wx0d9fdn","","<span style=""color:Black; font-size:50px;"">Agent B","null","","","","",""
"null","","","video-keyboard-response","129","473002","0.0-129.0","wx0d9fdn","","","null","","Agent B","veridical","STIM_SET_2/498025.bmp_pp81_L1_V1.0_veridical_freeview_isoTrue.mp4",""
"","","","call-function","130","473002","0.0-130.0","wx0d9fdn","","","","","","","",""
"2153.2450000000536","{""judgement"":1}","[0]","survey-likert","131","475156","0.0-131.0","wx0d9fdn","","","","","","","","1"
"2094.905000000028","{""confidence"":0}","[0]","survey-likert","132","477253","0.0-132.0","wx0d9fdn","","","","","","","",""
"","","","call-function","133","477253","0.0-133.0","wx0d9fdn","","","","","","","",""
"null","","","html-keyboard-response","134","478756","0.0-134.0","wx0d9fdn","","<span style=""color:Black; font-size:50px;"">Agent A","null","","","","",""
"null","","","video-keyboard-response","135","481829","0.0-135.0","wx0d9fdn","","","null","","Agent A","veridical","STIM_SET_2/285946.bmp_pp79_L2_V1.0_veridical_freeview_isoTrue.mp4",""
"null","","","html-keyboard-response","136","483335","0.0-136.0","wx0d9fdn","","<span style=""color:Black; font-size:50px;"">Agent B","null","","","","",""
"null","","","video-keyboard-response","137","486410","0.0-137.0","wx0d9fdn","","","null","","Agent B","scrambled","STIM_SET_2/285946.bmp_pp79_L2_V1.0_scrambled_freeview_isoTrue.mp4",""
"","","","call-function","138","486410","0.0-138.0","wx0d9fdn","","","","","","","",""
"2021.1549999999697","{""judgement"":0}","[0]","survey-likert","139","488432","0.0-139.0","wx0d9fdn","","","","","","","","0"
"1863.1900000000023","{""confidence"":1}","[0]","survey-likert","140","490296","0.0-140.0","wx0d9fdn","","","","","","","",""
"","","","call-function","141","490297","0.0-141.0","wx0d9fdn","","","","","","","",""
"null","","","html-keyboard-response","142","491800","0.0-142.0","wx0d9fdn","","<span style=""color:Black; font-size:50px;"">Agent A","null","","","","",""
"null","","","video-keyboard-response","143","494875","0.0-143.0","wx0d9fdn","","","null","","Agent A","veridical","STIM_SET_2/498261.bmp_pp84_L3_V1.0_veridical_freeview_isoTrue.mp4",""
"null","","","html-keyboard-response","144","496377","0.0-144.0","wx0d9fdn","","<span style=""color:Black; font-size:50px;"">Agent B","null","","","","",""
"null","","","video-keyboard-response","145","499449","0.0-145.0","wx0d9fdn","","","null","","Agent B","scrambled","STIM_SET_2/498261.bmp_pp84_L3_V1.0_scrambled_freeview_isoTrue.mp4",""
"","","","call-function","146","499449","0.0-146.0","wx0d9fdn","","","","","","","",""
"2667.4949999999953","{""judgement"":1}","[0]","survey-likert","147","502118","0.0-147.0","wx0d9fdn","","","","","","","","0"
"1623.7750000000233","{""confidence"":0}","[0]","survey-likert","148","503743","0.0-148.0","wx0d9fdn","","","","","","","",""
"","","","call-function","149","503744","0.0-149.0","wx0d9fdn","","","","","","","",""
"null","","","html-keyboard-response","150","505247","0.0-150.0","wx0d9fdn","","<span style=""color:Black; font-size:50px;"">Agent A","null","","","","",""
"null","","","video-keyboard-response","151","508344","0.0-151.0","wx0d9fdn","","","null","","Agent A","scrambled","STIM_SET_2/1592314.bmp_pp100_L3_V1.0_scrambled_freeview_isoTrue.mp4",""
"null","","","html-keyboard-response","152","509848","0.0-152.0","wx0d9fdn","","<span style=""color:Black; font-size:50px;"">Agent B","null","","","","",""
"null","","","video-keyboard-response","153","512945","0.0-153.0","wx0d9fdn","","","null","","Agent B","veridical","STIM_SET_2/1592314.bmp_pp100_L3_V1.0_veridical_freeview_isoTrue.mp4",""
"","","","call-function","154","512945","0.0-154.0","wx0d9fdn","","","","","","","",""
"1986.320000000007","{""judgement"":0}","[0]","survey-likert","155","514932","0.0-155.0","wx0d9fdn","","","","","","","","1"
"2288.9749999999767","{""confidence"":0}","[0]","survey-likert","156","517222","0.0-156.0","wx0d9fdn","","","","","","","",""
"","","","call-function","157","517223","0.0-157.0","wx0d9fdn","","","","","","","",""
"null","","","html-keyboard-response","158","518729","0.0-158.0","wx0d9fdn","","<span style=""color:Black; font-size:50px;"">Agent A","null","","","","",""
"null","","","video-keyboard-response","159","521834","0.0-159.0","wx0d9fdn","","","null","","Agent A","scrambled","STIM_SET_2/1592025.bmp_pp68_L1_V1.0_scrambled_freeview_isoTrue.mp4",""
"null","","","html-keyboard-response","160","523336","0.0-160.0","wx0d9fdn","","<span style=""color:Black; font-size:50px;"">Agent B","null","","","","",""
"null","","","video-keyboard-response","161","526438","0.0-161.0","wx0d9fdn","","","null","","Agent B","veridical","STIM_SET_2/1592025.bmp_pp68_L1_V1.0_veridical_freeview_isoTrue.mp4",""
"","","","call-function","162","526438","0.0-162.0","wx0d9fdn","","","","","","","",""
"1884.6650000000373","{""judgement"":1}","[0]","survey-likert","163","528324","0.0-163.0","wx0d9fdn","","","","","","","","1"
"2832.484999999986","{""confidence"":0}","[0]","survey-likert","164","531157","0.0-164.0","wx0d9fdn","","","","","","","",""
"","","","call-function","165","531158","0.0-165.0","wx0d9fdn","","","","","","","",""
"null","","","html-keyboard-response","166","532664","0.0-166.0","wx0d9fdn","","<span style=""color:Black; font-size:50px;"">Agent A","null","","","","",""
"null","","","video-keyboard-response","167","535764","0.0-167.0","wx0d9fdn","","","null","","Agent A","scrambled","STIM_SET_2/1160189.bmp_pp64_L1_V1.0_scrambled_freeview_isoTrue.mp4",""
"null","","","html-keyboard-response","168","537266","0.0-168.0","wx0d9fdn","","<span style=""color:Black; font-size:50px;"">Agent B","null","","","","",""
"null","","","video-keyboard-response","169","540337","0.0-169.0","wx0d9fdn","","","null","","Agent B","veridical","STIM_SET_2/1160189.bmp_pp64_L1_V1.0_veridical_freeview_isoTrue.mp4",""
"","","","call-function","170","540338","0.0-170.0","wx0d9fdn","","","","","","","",""
"1984.9150000000373","{""judgement"":1}","[0]","survey-likert","171","542324","0.0-171.0","wx0d9fdn","","","","","","","","1"
"1548","{""confidence"":1}","[0]","survey-likert","172","543874","0.0-172.0","wx0d9fdn","","","","","","","",""
"17601.360000000102","","","instructions","173","561476","0.0-173.0","wx0d9fdn","[{""page_index"":0,""viewing_time"":12551.955000000075},{""page_index"":1,""viewing_time"":4058.8099999999395},{""page_index"":2,""viewing_time"":990.4450000000652}]","","","","","","",""
"3580.234999999986","","","instructions","174","565056","0.0-174.0","wx0d9fdn","[{""page_index"":0,""viewing_time"":1033.0800000000745},{""page_index"":1,""viewing_time"":1915.0299999999115},{""page_index"":2,""viewing_time"":632.0250000000233}]","","","","","","",""
"","","","call-function","175","565057","0.0-175.0","wx0d9fdn","","","","","","","",""
"null","","","html-keyboard-response","176","566560","0.0-176.0","wx0d9fdn","","<span style=""color:Black; font-size:50px;"">Agent A","null","","","","",""
"null","","","video-keyboard-response","177","569635","0.0-177.0","wx0d9fdn","","","null","","Agent A","veridical","STIM_SET_2/61513.bmp_pp75_L1_V1.0_veridical_freeview_isoTrue.mp4",""
"null","","","html-keyboard-response","178","571136","0.0-178.0","wx0d9fdn","","<span style=""color:Black; font-size:50px;"">Agent B","null","","","","",""
"null","","","video-keyboard-response","179","574212","0.0-179.0","wx0d9fdn","","","null","","Agent B","scrambled","STIM_SET_2/61513.bmp_pp75_L1_V1.0_scrambled_freeview_isoTrue.mp4",""
"","","","call-function","180","574213","0.0-180.0","wx0d9fdn","","","","","","","",""
"1790.7850000000326","{""judgement"":0}","[0]","survey-likert","181","576005","0.0-181.0","wx0d9fdn","","","","","","","","0"
"5294.979999999981","{""confidence"":2}","[0]","survey-likert","182","581301","0.0-182.0","wx0d9fdn","","","","","","","",""
"","","","call-function","183","581301","0.0-183.0","wx0d9fdn","","","","","","","",""
"null","","","html-keyboard-response","184","582802","0.0-184.0","wx0d9fdn","","<span style=""color:Black; font-size:50px;"">Agent A","null","","","","",""
"null","","","video-keyboard-response","185","585879","0.0-185.0","wx0d9fdn","","","null","","Agent A","veridical","STIM_SET_2/498372.bmp_pp95_L2_V1_veridical_freeview_isoTrue.mp4",""
"null","","","html-keyboard-response","186","587386","0.0-186.0","wx0d9fdn","","<span style=""color:Black; font-size:50px;"">Agent B","null","","","","",""
"null","","","video-keyboard-response","187","590490","0.0-187.0","wx0d9fdn","","","null","","Agent B","scrambled","STIM_SET_2/498372.bmp_pp95_L2_V1_scrambled_freeview_isoTrue.mp4",""
"","","","call-function","188","590491","0.0-188.0","wx0d9fdn","","","","","","","",""
"1718.1949999999488","{""judgement"":1}","[0]","survey-likert","189","592210","0.0-189.0","wx0d9fdn","","","","","","","","0"
"1564.1450000000186","{""confidence"":2}","[0]","survey-likert","190","593776","0.0-190.0","wx0d9fdn","","","","","","","",""
"","","","call-function","191","593776","0.0-191.0","wx0d9fdn","","","","","","","",""
"null","","","html-keyboard-response","192","595278","0.0-192.0","wx0d9fdn","","<span style=""color:Black; font-size:50px;"">Agent A","null","","","","",""
"null","","","video-keyboard-response","193","598382","0.0-193.0","wx0d9fdn","","","null","","Agent A","scrambled","STIM_SET_2/1591781.bmp_pp63_L1_V1.0_scrambled_freeview_isoTrue.mp4",""
"null","","","html-keyboard-response","194","599886","0.0-194.0","wx0d9fdn","","<span style=""color:Black; font-size:50px;"">Agent B","null","","","","",""
"null","","","video-keyboard-response","195","602990","0.0-195.0","wx0d9fdn","","","null","","Agent B","veridical","STIM_SET_2/1591781.bmp_pp63_L1_V1.0_veridical_freeview_isoTrue.mp4",""
"","","","call-function","196","602990","0.0-196.0","wx0d9fdn","","","","","","","",""
"1894.4799999999814","{""judgement"":1}","[0]","survey-likert","197","604886","0.0-197.0","wx0d9fdn","","","","","","","","1"
"2140.9000000000233","{""confidence"":1}","[0]","survey-likert","198","607028","0.0-198.0","wx0d9fdn","","","","","","","",""
"","","","call-function","199","607028","0.0-199.0","wx0d9fdn","","","","","","","",""
"null","","","html-keyboard-response","200","608531","0.0-200.0","wx0d9fdn","","<span style=""color:Black; font-size:50px;"">Agent A","null","","","","",""
"null","","","video-keyboard-response","201","611604","0.0-201.0","wx0d9fdn","","","null","","Agent A","veridical","STIM_SET_2/1159956.bmp_pp59_L3_V1.0_veridical_freeview_isoTrue.mp4",""
"null","","","html-keyboard-response","202","613106","0.0-202.0","wx0d9fdn","","<span style=""color:Black; font-size:50px;"">Agent B","null","","","","",""
"null","","","video-keyboard-response","203","616203","0.0-203.0","wx0d9fdn","","","null","","Agent B","scrambled","STIM_SET_2/1159956.bmp_pp59_L3_V1.0_scrambled_freeview_isoTrue.mp4",""
"","","","call-function","204","616204","0.0-204.0","wx0d9fdn","","","","","","","",""
"1585.1350000000093","{""judgement"":0}","[0]","survey-likert","205","617790","0.0-205.0","wx0d9fdn","","","","","","","","0"
"2114.1049999999814","{""confidence"":1}","[0]","survey-likert","206","619905","0.0-206.0","wx0d9fdn","","","","","","","",""
"","","","call-function","207","619905","0.0-207.0","wx0d9fdn","","","","","","","",""
"null","","","html-keyboard-response","208","621409","0.0-208.0","wx0d9fdn","","<span style=""color:Black; font-size:50px;"">Agent A","null","","","","",""
"null","","","video-keyboard-response","209","624505","0.0-209.0","wx0d9fdn","","","null","","Agent A","scrambled","STIM_SET_2/1592038.bmp_pp79_L2_V1.0_scrambled_freeview_isoTrue.mp4",""
"null","","","html-keyboard-response","210","626008","0.0-210.0","wx0d9fdn","","<span style=""color:Black; font-size:50px;"">Agent B","null","","","","",""
"null","","","video-keyboard-response","211","629108","0.0-211.0","wx0d9fdn","","","null","","Agent B","veridical","STIM_SET_2/1592038.bmp_pp79_L2_V1.0_veridical_freeview_isoTrue.mp4",""
"","","","call-function","212","629109","0.0-212.0","wx0d9fdn","","","","","","","",""
"1948.704999999958","{""judgement"":1}","[0]","survey-likert","213","631058","0.0-213.0","wx0d9fdn","","","","","","","","1"
"1600.1199999999953","{""confidence"":0}","[0]","survey-likert","214","632660","0.0-214.0","wx0d9fdn","","","","","","","",""
"","","","call-function","215","632660","0.0-215.0","wx0d9fdn","","","","","","","",""
"null","","","html-keyboard-response","216","634162","0.0-216.0","wx0d9fdn","","<span style=""color:Black; font-size:50px;"">Agent A","null","","","","",""
"null","","","video-keyboard-response","217","637237","0.0-217.0","wx0d9fdn","","","null","","Agent A","scrambled","STIM_SET_2/1592921.bmp_pp69_L3_V1.0_scrambled_freeview_isoTrue.mp4",""
"null","","","html-keyboard-response","218","638744","0.0-218.0","wx0d9fdn","","<span style=""color:Black; font-size:50px;"">Agent B","null","","","","",""
"null","","","video-keyboard-response","219","641819","0.0-219.0","wx0d9fdn","","","null","","Agent B","veridical","STIM_SET_2/1592921.bmp_pp69_L3_V1.0_veridical_freeview_isoTrue.mp4",""
"","","","call-function","220","641819","0.0-220.0","wx0d9fdn","","","","","","","",""
"2261.8649999999907","{""judgement"":0}","[0]","survey-likert","221","644082","0.0-221.0","wx0d9fdn","","","","","","","","1"
"1217.1650000000373","{""confidence"":0}","[0]","survey-likert","222","645300","0.0-222.0","wx0d9fdn","","","","","","","",""
"","","","call-function","223","645300","0.0-223.0","wx0d9fdn","","","","","","","",""
"null","","","html-keyboard-response","224","646802","0.0-224.0","wx0d9fdn","","<span style=""color:Black; font-size:50px;"">Agent A","null","","","","",""
"null","","","video-keyboard-response","225","649876","0.0-225.0","wx0d9fdn","","","null","","Agent A","veridical","STIM_SET_2/498396.bmp_pp99_L2_V1.0_veridical_freeview_isoTrue.mp4",""
"null","","","html-keyboard-response","226","651380","0.0-226.0","wx0d9fdn","","<span style=""color:Black; font-size:50px;"">Agent B","null","","","","",""
"null","","","video-keyboard-response","227","654443","0.0-227.0","wx0d9fdn","","","null","","Agent B","scrambled","STIM_SET_2/498396.bmp_pp99_L2_V1.0_scrambled_freeview_isoTrue.mp4",""
"","","","call-function","228","654444","0.0-228.0","wx0d9fdn","","","","","","","",""
"1782.7000000000698","{""judgement"":0}","[0]","survey-likert","229","656228","0.0-229.0","wx0d9fdn","","","","","","","","0"
"2672.829999999958","{""confidence"":0}","[0]","survey-likert","230","658903","0.0-230.0","wx0d9fdn","","","","","","","",""
"","","","call-function","231","658904","0.0-231.0","wx0d9fdn","","","","","","","",""
"null","","","html-keyboard-response","232","660407","0.0-232.0","wx0d9fdn","","<span style=""color:Black; font-size:50px;"">Agent A","null","","","","",""
"null","","","video-keyboard-response","233","663483","0.0-233.0","wx0d9fdn","","","null","","Agent A","scrambled","STIM_SET_2/1159874.bmp_pp96_L2_V1.0_scrambled_freeview_isoTrue.mp4",""
"null","","","html-keyboard-response","234","664987","0.0-234.0","wx0d9fdn","","<span style=""color:Black; font-size:50px;"">Agent B","null","","","","",""
"null","","","video-keyboard-response","235","668063","0.0-235.0","wx0d9fdn","","","null","","Agent B","veridical","STIM_SET_2/1159874.bmp_pp96_L2_V1.0_veridical_freeview_isoTrue.mp4",""
"","","","call-function","236","668063","0.0-236.0","wx0d9fdn","","","","","","","",""
"2630.8950000000186","{""judgement"":1}","[0]","survey-likert","237","670695","0.0-237.0","wx0d9fdn","","","","","","","","1"
"3177.4649999999674","{""confidence"":2}","[0]","survey-likert","238","673874","0.0-238.0","wx0d9fdn","","","","","","","",""
"","","","call-function","239","673874","0.0-239.0","wx0d9fdn","","","","","","","",""
"null","","","html-keyboard-response","240","675376","0.0-240.0","wx0d9fdn","","<span style=""color:Black; font-size:50px;"">Agent A","null","","","","",""
"null","","","video-keyboard-response","241","678447","0.0-241.0","wx0d9fdn","","","null","","Agent A","veridical","STIM_SET_2/1160049.bmp_pp53_L2_V1.0_veridical_freeview_isoTrue.mp4",""
"null","","","html-keyboard-response","242","679950","0.0-242.0","wx0d9fdn","","<span style=""color:Black; font-size:50px;"">Agent B","null","","","","",""
"null","","","video-keyboard-response","243","683016","0.0-243.0","wx0d9fdn","","","null","","Agent B","scrambled","STIM_SET_2/1160049.bmp_pp53_L2_V1.0_scrambled_freeview_isoTrue.mp4",""
"","","","call-function","244","683016","0.0-244.0","wx0d9fdn","","","","","","","",""
"2060.8150000000605","{""judgement"":0}","[0]","survey-likert","245","685078","0.0-245.0","wx0d9fdn","","","","","","","","0"
"3104.8150000000605","{""confidence"":1}","[0]","survey-likert","246","688184","0.0-246.0","wx0d9fdn","","","","","","","",""
"","","","call-function","247","688184","0.0-247.0","wx0d9fdn","","","","","","","",""
"null","","","html-keyboard-response","248","689686","0.0-248.0","wx0d9fdn","","<span style=""color:Black; font-size:50px;"">Agent A","null","","","","",""
"null","","","video-keyboard-response","249","692788","0.0-249.0","wx0d9fdn","","","null","","Agent A","veridical","STIM_SET_2/150277.bmp_pp65_L3_V1.0_veridical_freeview_isoTrue.mp4",""
"null","","","html-keyboard-response","250","694291","0.0-250.0","wx0d9fdn","","<span style=""color:Black; font-size:50px;"">Agent B","null","","","","",""
"null","","","video-keyboard-response","251","697394","0.0-251.0","wx0d9fdn","","","null","","Agent B","scrambled","STIM_SET_2/150277.bmp_pp65_L3_V1.0_scrambled_freeview_isoTrue.mp4",""
"","","","call-function","252","697394","0.0-252.0","wx0d9fdn","","","","","","","",""
"2531.780000000028","{""judgement"":0}","[0]","survey-likert","253","699927","0.0-253.0","wx0d9fdn","","","","","","","","0"
"2305.8850000000093","{""confidence"":2}","[0]","survey-likert","254","702234","0.0-254.0","wx0d9fdn","","","","","","","",""
"53145.340000000084","","","instructions","255","755380","0.0-255.0","wx0d9fdn","[{""page_index"":0,""viewing_time"":2100.2200000000885},{""page_index"":1,""viewing_time"":50244.95999999996},{""page_index"":2,""viewing_time"":800.0050000000047}]","","","","","","",""
"2353.570000000065","","","instructions","256","757734","0.0-256.0","wx0d9fdn","[{""page_index"":0,""viewing_time"":629.7100000000792},{""page_index"":1,""viewing_time"":1088.7749999999069},{""page_index"":2,""viewing_time"":634.9750000000931}]","","","","","","",""
"","","","call-function","257","757734","0.0-257.0","wx0d9fdn","","","","","","","",""
"null","","","html-keyboard-response","258","759239","0.0-258.0","wx0d9fdn","","<span style=""color:Black; font-size:50px;"">Agent A","null","","","","",""
"null","","","video-keyboard-response","259","762301","0.0-259.0","wx0d9fdn","","","null","","Agent A","veridical","STIM_SET_2/285715.bmp_pp67_L2_V1.0_veridical_freeview_isoTrue.mp4",""
"null","","","html-keyboard-response","260","763803","0.0-260.0","wx0d9fdn","","<span style=""color:Black; font-size:50px;"">Agent B","null","","","","",""
"null","","","video-keyboard-response","261","766868","0.0-261.0","wx0d9fdn","","","null","","Agent B","scrambled","STIM_SET_2/285715.bmp_pp67_L2_V1.0_scrambled_freeview_isoTrue.mp4",""
"","","","call-function","262","766868","0.0-262.0","wx0d9fdn","","","","","","","",""
"3068.0749999999534","{""judgement"":0}","[0]","survey-likert","263","769937","0.0-263.0","wx0d9fdn","","","","","","","","0"
"2758.8850000000093","{""confidence"":2}","[0]","survey-likert","264","772697","0.0-264.0","wx0d9fdn","","","","","","","",""
"","","","call-function","265","772698","0.0-265.0","wx0d9fdn","","","","","","","",""
"null","","","html-keyboard-response","266","774200","0.0-266.0","wx0d9fdn","","<span style=""color:Black; font-size:50px;"">Agent A","null","","","","",""
"null","","","video-keyboard-response","267","777272","0.0-267.0","wx0d9fdn","","","null","","Agent A","veridical","STIM_SET_2/1591975.bmp_pp88_L2_V1.0_veridical_freeview_isoTrue.mp4",""
"null","","","html-keyboard-response","268","778778","0.0-268.0","wx0d9fdn","","<span style=""color:Black; font-size:50px;"">Agent B","null","","","","",""
"null","","","video-keyboard-response","269","781844","0.0-269.0","wx0d9fdn","","","null","","Agent B","scrambled","STIM_SET_2/1591975.bmp_pp88_L2_V1.0_scrambled_freeview_isoTrue.mp4",""
"","","","call-function","270","781844","0.0-270.0","wx0d9fdn","","","","","","","",""
"3219.17499999993","{""judgement"":0}","[0]","survey-likert","271","785064","0.0-271.0","wx0d9fdn","","","","","","","","0"
"1811.7999999999302","{""confidence"":0}","[0]","survey-likert","272","786877","0.0-272.0","wx0d9fdn","","","","","","","",""
"","","","call-function","273","786878","0.0-273.0","wx0d9fdn","","","","","","","",""
"null","","","html-keyboard-response","274","788383","0.0-274.0","wx0d9fdn","","<span style=""color:Black; font-size:50px;"">Agent A","null","","","","",""
"null","","","video-keyboard-response","275","791496","0.0-275.0","wx0d9fdn","","","null","","Agent A","scrambled","STIM_SET_2/713742.bmp_pp91_L3_V1.0_scrambled_freeview_isoTrue.mp4",""
"null","","","html-keyboard-response","276","793000","0.0-276.0","wx0d9fdn","","<span style=""color:Black; font-size:50px;"">Agent B","null","","","","",""
"null","","","video-keyboard-response","277","796111","0.0-277.0","wx0d9fdn","","","null","","Agent B","veridical","STIM_SET_2/713742.bmp_pp91_L3_V1.0_veridical_freeview_isoTrue.mp4",""
"","","","call-function","278","796112","0.0-278.0","wx0d9fdn","","","","","","","",""
"1499.5550000000512","{""judgement"":1}","[0]","survey-likert","279","797612","0.0-279.0","wx0d9fdn","","","","","","","","1"
"1499.9749999999767","{""confidence"":1}","[0]","survey-likert","280","799113","0.0-280.0","wx0d9fdn","","","","","","","",""
"","","","call-function","281","799114","0.0-281.0","wx0d9fdn","","","","","","","",""
"null","","","html-keyboard-response","282","800615","0.0-282.0","wx0d9fdn","","<span style=""color:Black; font-size:50px;"">Agent A","null","","","","",""
"null","","","video-keyboard-response","283","803722","0.0-283.0","wx0d9fdn","","","null","","Agent A","veridical","STIM_SET_2/713381.bmp_pp82_L2_V1.0_veridical_freeview_isoTrue.mp4",""
"null","","","html-keyboard-response","284","805226","0.0-284.0","wx0d9fdn","","<span style=""color:Black; font-size:50px;"">Agent B","null","","","","",""
"null","","","video-keyboard-response","285","808333","0.0-285.0","wx0d9fdn","","","null","","Agent B","scrambled","STIM_SET_2/713381.bmp_pp82_L2_V1.0_scrambled_freeview_isoTrue.mp4",""
"","","","call-function","286","808334","0.0-286.0","wx0d9fdn","","","","","","","",""
"2479.57500000007","{""judgement"":0}","[0]","survey-likert","287","810814","0.0-287.0","wx0d9fdn","","","","","","","","0"
"2735.905000000028","{""confidence"":0}","[0]","survey-likert","288","813551","0.0-288.0","wx0d9fdn","","","","","","","",""
"","","","call-function","289","813552","0.0-289.0","wx0d9fdn","","","","","","","",""
"null","","","html-keyboard-response","290","815056","0.0-290.0","wx0d9fdn","","<span style=""color:Black; font-size:50px;"">Agent A","null","","","","",""
"null","","","video-keyboard-response","291","818166","0.0-291.0","wx0d9fdn","","","null","","Agent A","veridical","STIM_SET_2/713790.bmp_pp100_L3_V1_veridical_freeview_isoTrue.mp4",""
"null","","","html-keyboard-response","292","819669","0.0-292.0","wx0d9fdn","","<span style=""color:Black; font-size:50px;"">Agent B","null","","","","",""
"null","","","video-keyboard-response","293","822776","0.0-293.0","wx0d9fdn","","","null","","Agent B","scrambled","STIM_SET_2/713790.bmp_pp100_L3_V1_scrambled_freeview_isoTrue.mp4",""
"","","","call-function","294","822778","0.0-294.0","wx0d9fdn","","","","","","","",""
"6251.25","{""judgement"":1}","[0]","survey-likert","295","829030","0.0-295.0","wx0d9fdn","","","","","","","","0"
"1755.5200000000186","{""confidence"":0}","[0]","survey-likert","296","830788","0.0-296.0","wx0d9fdn","","","","","","","",""
"","","","call-function","297","830789","0.0-297.0","wx0d9fdn","","","","","","","",""
"null","","","html-keyboard-response","298","832291","0.0-298.0","wx0d9fdn","","<span style=""color:Black; font-size:50px;"">Agent A","null","","","","",""
"null","","","video-keyboard-response","299","835370","0.0-299.0","wx0d9fdn","","","null","","Agent A","scrambled","STIM_SET_2/1160247.bmp_pp54_L2_V1.0_scrambled_freeview_isoTrue.mp4",""
"null","","","html-keyboard-response","300","836872","0.0-300.0","wx0d9fdn","","<span style=""color:Black; font-size:50px;"">Agent B","null","","","","",""
"null","","","video-keyboard-response","301","839949","0.0-301.0","wx0d9fdn","","","null","","Agent B","veridical","STIM_SET_2/1160247.bmp_pp54_L2_V1.0_veridical_freeview_isoTrue.mp4",""
"","","","call-function","302","839950","0.0-302.0","wx0d9fdn","","","","","","","",""
"2126.6149999999907","{""judgement"":1}","[0]","survey-likert","303","842077","0.0-303.0","wx0d9fdn","","","","","","","","1"
"1588.009999999893","{""confidence"":1}","[0]","survey-likert","304","843667","0.0-304.0","wx0d9fdn","","","","","","","",""
"","","","call-function","305","843667","0.0-305.0","wx0d9fdn","","","","","","","",""
"null","","","html-keyboard-response","306","845170","0.0-306.0","wx0d9fdn","","<span style=""color:Black; font-size:50px;"">Agent A","null","","","","",""
"null","","","video-keyboard-response","307","848241","0.0-307.0","wx0d9fdn","","","null","","Agent A","veridical","STIM_SET_2/1591920.bmp_pp97_L3_V1_veridical_freeview_isoTrue.mp4",""
"null","","","html-keyboard-response","308","849744","0.0-308.0","wx0d9fdn","","<span style=""color:Black; font-size:50px;"">Agent B","null","","","","",""
"null","","","video-keyboard-response","309","852811","0.0-309.0","wx0d9fdn","","","null","","Agent B","scrambled","STIM_SET_2/1591920.bmp_pp97_L3_V1_scrambled_freeview_isoTrue.mp4",""
"","","","call-function","310","852812","0.0-310.0","wx0d9fdn","","","","","","","",""
"2065.704999999958","{""judgement"":0}","[0]","survey-likert","311","854878","0.0-311.0","wx0d9fdn","","","","","","","","0"
"1305.6600000000326","{""confidence"":2}","[0]","survey-likert","312","856185","0.0-312.0","wx0d9fdn","","","","","","","",""
"","","","call-function","313","856186","0.0-313.0","wx0d9fdn","","","","","","","",""
"null","","","html-keyboard-response","314","857692","0.0-314.0","wx0d9fdn","","<span style=""color:Black; font-size:50px;"">Agent A","null","","","","",""
"null","","","video-keyboard-response","315","860792","0.0-315.0","wx0d9fdn","","","null","","Agent A","veridical","STIM_SET_2/713652.bmp_pp89_L1_V1_veridical_freeview_isoTrue.mp4",""
"null","","","html-keyboard-response","316","862296","0.0-316.0","wx0d9fdn","","<span style=""color:Black; font-size:50px;"">Agent B","null","","","","",""
"null","","","video-keyboard-response","317","865391","0.0-317.0","wx0d9fdn","","","null","","Agent B","scrambled","STIM_SET_2/713652.bmp_pp89_L1_V1_scrambled_freeview_isoTrue.mp4",""
"","","","call-function","318","865392","0.0-318.0","wx0d9fdn","","","","","","","",""
"2149.8099999999395","{""judgement"":0}","[0]","survey-likert","319","867542","0.0-319.0","wx0d9fdn","","","","","","","","0"
"1443.905000000028","{""confidence"":1}","[0]","survey-likert","320","868987","0.0-320.0","wx0d9fdn","","","","","","","",""
"","","","call-function","321","868988","0.0-321.0","wx0d9fdn","","","","","","","",""
"null","","","html-keyboard-response","322","870489","0.0-322.0","wx0d9fdn","","<span style=""color:Black; font-size:50px;"">Agent A","null","","","","",""
"null","","","video-keyboard-response","323","873549","0.0-323.0","wx0d9fdn","","","null","","Agent A","veridical","STIM_SET_2/107955.bmp_pp90_L2_V1.0_veridical_freeview_isoTrue.mp4",""
"null","","","html-keyboard-response","324","875052","0.0-324.0","wx0d9fdn","","<span style=""color:Black; font-size:50px;"">Agent B","null","","","","",""
"null","","","video-keyboard-response","325","878151","0.0-325.0","wx0d9fdn","","","null","","Agent B","scrambled","STIM_SET_2/107955.bmp_pp90_L2_V1.0_scrambled_freeview_isoTrue.mp4",""
"","","","call-function","326","878151","0.0-326.0","wx0d9fdn","","","","","","","",""
"2222.055000000051","{""judgement"":0}","[0]","survey-likert","327","880374","0.0-327.0","wx0d9fdn","","","","","","","","0"
"1651.9750000000931","{""confidence"":0}","[0]","survey-likert","328","882027","0.0-328.0","wx0d9fdn","","","","","","","",""
"","","","call-function","329","882028","0.0-329.0","wx0d9fdn","","","","","","","",""
"null","","","html-keyboard-response","330","883530","0.0-330.0","wx0d9fdn","","<span style=""color:Black; font-size:50px;"">Agent A","null","","","","",""
"null","","","video-keyboard-response","331","886597","0.0-331.0","wx0d9fdn","","","null","","Agent A","scrambled","STIM_SET_2/1159325.bmp_pp67_L2_V1.0_scrambled_freeview_isoTrue.mp4",""
"null","","","html-keyboard-response","332","888099","0.0-332.0","wx0d9fdn","","<span style=""color:Black; font-size:50px;"">Agent B","null","","","","",""
"null","","","video-keyboard-response","333","891170","0.0-333.0","wx0d9fdn","","","null","","Agent B","veridical","STIM_SET_2/1159325.bmp_pp67_L2_V1.0_veridical_freeview_isoTrue.mp4",""
"","","","call-function","334","891171","0.0-334.0","wx0d9fdn","","","","","","","",""
"1875.9399999999441","{""judgement"":1}","[0]","survey-likert","335","893048","0.0-335.0","wx0d9fdn","","","","","","","","1"
"3668.2449999999953","{""confidence"":2}","[0]","survey-likert","336","896717","0.0-336.0","wx0d9fdn","","","","","","","",""
"45418.44999999995","","","instructions","337","942136","0.0-337.0","wx0d9fdn","[{""page_index"":0,""viewing_time"":1960.5200000000186},{""page_index"":1,""viewing_time"":42418.75},{""page_index"":2,""viewing_time"":1038.9399999999441}]","","","","","","",""
"3046.439999999944","","","instructions","338","945183","0.0-338.0","wx0d9fdn","[{""page_index"":0,""viewing_time"":1186.234999999986},{""page_index"":1,""viewing_time"":1320.0400000000373},{""page_index"":2,""viewing_time"":540.0599999999395}]","","","","","","",""
"","","","call-function","339","945184","0.0-339.0","wx0d9fdn","","","","","","","",""
"null","","","html-keyboard-response","340","946689","0.0-340.0","wx0d9fdn","","<span style=""color:Black; font-size:50px;"">Agent A","null","","","","",""
"null","","","video-keyboard-response","341","949768","0.0-341.0","wx0d9fdn","","","null","","Agent A","veridical","STIM_SET_2/1159592.bmp_pp91_L3_V1.0_veridical_freeview_isoTrue.mp4",""
"null","","","html-keyboard-response","342","951271","0.0-342.0","wx0d9fdn","","<span style=""color:Black; font-size:50px;"">Agent B","null","","","","",""
"null","","","video-keyboard-response","343","954352","0.0-343.0","wx0d9fdn","","","null","","Agent B","scrambled","STIM_SET_2/1159592.bmp_pp91_L3_V1.0_scrambled_freeview_isoTrue.mp4",""
"","","","call-function","344","954352","0.0-344.0","wx0d9fdn","","","","","","","",""
"2937.2750000000233","{""judgement"":1}","[0]","survey-likert","345","957290","0.0-345.0","wx0d9fdn","","","","","","","","0"
"1570.8850000000093","{""confidence"":0}","[0]","survey-likert","346","958863","0.0-346.0","wx0d9fdn","","","","","","","",""
"","","","call-function","347","958863","0.0-347.0","wx0d9fdn","","","","","","","",""
"null","","","html-keyboard-response","348","960366","0.0-348.0","wx0d9fdn","","<span style=""color:Black; font-size:50px;"">Agent A","null","","","","",""
"null","","","video-keyboard-response","349","963446","0.0-349.0","wx0d9fdn","","","null","","Agent A","scrambled","STIM_SET_2/1592568.bmp_pp71_L1_V1.0_scrambled_freeview_isoTrue.mp4",""
"null","","","html-keyboard-response","350","964951","0.0-350.0","wx0d9fdn","","<span style=""color:Black; font-size:50px;"">Agent B","null","","","","",""
"null","","","video-keyboard-response","351","968029","0.0-351.0","wx0d9fdn","","","null","","Agent B","veridical","STIM_SET_2/1592568.bmp_pp71_L1_V1.0_veridical_freeview_isoTrue.mp4",""
"","","","call-function","352","968029","0.0-352.0","wx0d9fdn","","","","","","","",""
"1716.3800000000047","{""judgement"":1}","[0]","survey-likert","353","969747","0.0-353.0","wx0d9fdn","","","","","","","","1"
"3584.765000000014","{""confidence"":2}","[0]","survey-likert","354","973333","0.0-354.0","wx0d9fdn","","","","","","","",""
"","","","call-function","355","973333","0.0-355.0","wx0d9fdn","","","","","","","",""
"null","","","html-keyboard-response","356","974835","0.0-356.0","wx0d9fdn","","<span style=""color:Black; font-size:50px;"">Agent A","null","","","","",""
"null","","","video-keyboard-response","357","977942","0.0-357.0","wx0d9fdn","","","null","","Agent A","veridical","STIM_SET_2/713633.bmp_pp58_L1_V1.0_veridical_freeview_isoTrue.mp4",""
"null","","","html-keyboard-response","358","979445","0.0-358.0","wx0d9fdn","","<span style=""color:Black; font-size:50px;"">Agent B","null","","","","",""
"null","","","video-keyboard-response","359","982551","0.0-359.0","wx0d9fdn","","","null","","Agent B","scrambled","STIM_SET_2/713633.bmp_pp58_L1_V1.0_scrambled_freeview_isoTrue.mp4",""
"","","","call-function","360","982551","0.0-360.0","wx0d9fdn","","","","","","","",""
"1496.609999999986","{""judgement"":0}","[0]","survey-likert","361","984049","0.0-361.0","wx0d9fdn","","","","","","","","0"
"2247.9949999999953","{""confidence"":2}","[0]","survey-likert","362","986298","0.0-362.0","wx0d9fdn","","","","","","","",""
"","","","call-function","363","986298","0.0-363.0","wx0d9fdn","","","","","","","",""
"null","","","html-keyboard-response","364","987802","0.0-364.0","wx0d9fdn","","<span style=""color:Black; font-size:50px;"">Agent A","null","","","","",""
"null","","","video-keyboard-response","365","990900","0.0-365.0","wx0d9fdn","","","null","","Agent A","scrambled","STIM_SET_2/713328.bmp_pp86_L2_V1.0_scrambled_freeview_isoTrue.mp4",""
"null","","","html-keyboard-response","366","992403","0.0-366.0","wx0d9fdn","","<span style=""color:Black; font-size:50px;"">Agent B","null","","","","",""
"null","","","video-keyboard-response","367","995463","0.0-367.0","wx0d9fdn","","","null","","Agent B","veridical","STIM_SET_2/713328.bmp_pp86_L2_V1.0_veridical_freeview_isoTrue.mp4",""
"","","","call-function","368","995463","0.0-368.0","wx0d9fdn","","","","","","","",""
"1748.484999999986","{""judgement"":1}","[0]","survey-likert","369","997213","0.0-369.0","wx0d9fdn","","","","","","","","1"
"3401.064999999944","{""confidence"":1}","[0]","survey-likert","370","1000615","0.0-370.0","wx0d9fdn","","","","","","","",""
"","","","call-function","371","1000615","0.0-371.0","wx0d9fdn","","","","","","","",""
"null","","","html-keyboard-response","372","1002119","0.0-372.0","wx0d9fdn","","<span style=""color:Black; font-size:50px;"">Agent A","null","","","","",""
"null","","","video-keyboard-response","373","1005216","0.0-373.0","wx0d9fdn","","","null","","Agent A","scrambled","STIM_SET_2/1160204.bmp_pp54_L2_V1.0_scrambled_freeview_isoTrue.mp4",""
"null","","","html-keyboard-response","374","1006720","0.0-374.0","wx0d9fdn","","<span style=""color:Black; font-size:50px;"">Agent B","null","","","","",""
"null","","","video-keyboard-response","375","1009790","0.0-375.0","wx0d9fdn","","","null","","Agent B","veridical","STIM_SET_2/1160204.bmp_pp54_L2_V1.0_veridical_freeview_isoTrue.mp4",""
"","","","call-function","376","1009791","0.0-376.0","wx0d9fdn","","","","","","","",""
"1803.170000000042","{""judgement"":1}","[0]","survey-likert","377","1011596","0.0-377.0","wx0d9fdn","","","","","","","","1"
"1738.670000000042","{""confidence"":2}","[0]","survey-likert","378","1013336","0.0-378.0","wx0d9fdn","","","","","","","",""
"","","","call-function","379","1013337","0.0-379.0","wx0d9fdn","","","","","","","",""
"null","","","html-keyboard-response","380","1014838","0.0-380.0","wx0d9fdn","","<span style=""color:Black; font-size:50px;"">Agent A","null","","","","",""
"null","","","video-keyboard-response","381","1017908","0.0-381.0","wx0d9fdn","","","null","","Agent A","veridical","STIM_SET_2/1592017.bmp_pp154_L1_V1.0_veridical_freeview_isoTrue.mp4",""
"null","","","html-keyboard-response","382","1019414","0.0-382.0","wx0d9fdn","","<span style=""color:Black; font-size:50px;"">Agent B","null","","","","",""
"null","","","video-keyboard-response","383","1022486","0.0-383.0","wx0d9fdn","","","null","","Agent B","scrambled","STIM_SET_2/1592017.bmp_pp154_L1_V1.0_scrambled_freeview_isoTrue.mp4",""
"","","","call-function","384","1022486","0.0-384.0","wx0d9fdn","","","","","","","",""
"1926.5999999999767","{""judgement"":0}","[0]","survey-likert","385","1024414","0.0-385.0","wx0d9fdn","","","","","","","","0"
"1560.5849999999627","{""confidence"":1}","[0]","survey-likert","386","1025976","0.0-386.0","wx0d9fdn","","","","","","","",""
"","","","call-function","387","1025976","0.0-387.0","wx0d9fdn","","","","","","","",""
"null","","","html-keyboard-response","388","1027478","0.0-388.0","wx0d9fdn","","<span style=""color:Black; font-size:50px;"">Agent A","null","","","","",""
"null","","","video-keyboard-response","389","1030551","0.0-389.0","wx0d9fdn","","","null","","Agent A","veridical","STIM_SET_2/1159819.bmp_pp151_L1_V1.0_veridical_freeview_isoTrue.mp4",""
"null","","","html-keyboard-response","390","1032058","0.0-390.0","wx0d9fdn","","<span style=""color:Black; font-size:50px;"">Agent B","null","","","","",""
"null","","","video-keyboard-response","391","1035162","0.0-391.0","wx0d9fdn","","","null","","Agent B","scrambled","STIM_SET_2/1159819.bmp_pp151_L1_V1.0_scrambled_freeview_isoTrue.mp4",""
"","","","call-function","392","1035163","0.0-392.0","wx0d9fdn","","","","","","","",""
"3259.1650000000373","{""judgement"":0}","[0]","survey-likert","393","1038423","0.0-393.0","wx0d9fdn","","","","","","","","0"
"4339.109999999986","{""confidence"":2}","[0]","survey-likert","394","1042763","0.0-394.0","wx0d9fdn","","","","","","","",""
"","","","call-function","395","1042763","0.0-395.0","wx0d9fdn","","","","","","","",""
"null","","","html-keyboard-response","396","1044266","0.0-396.0","wx0d9fdn","","<span style=""color:Black; font-size:50px;"">Agent A","null","","","","",""
"null","","","video-keyboard-response","397","1047363","0.0-397.0","wx0d9fdn","","","null","","Agent A","scrambled","STIM_SET_2/713788.bmp_pp52_L1_V1.0_scrambled_freeview_isoTrue.mp4",""
"null","","","html-keyboard-response","398","1048867","0.0-398.0","wx0d9fdn","","<span style=""color:Black; font-size:50px;"">Agent B","null","","","","",""
"null","","","video-keyboard-response","399","1051974","0.0-399.0","wx0d9fdn","","","null","","Agent B","veridical","STIM_SET_2/713788.bmp_pp52_L1_V1.0_veridical_freeview_isoTrue.mp4",""
"","","","call-function","400","1051974","0.0-400.0","wx0d9fdn","","","","","","","",""
"2379.809999999823","{""judgement"":1}","[0]","survey-likert","401","1054355","0.0-401.0","wx0d9fdn","","","","","","","","1"
"1538.130000000121","{""confidence"":1}","[0]","survey-likert","402","1055894","0.0-402.0","wx0d9fdn","","","","","","","",""
"","","","call-function","403","1055894","0.0-403.0","wx0d9fdn","","","","","","","",""
"null","","","html-keyboard-response","404","1057398","0.0-404.0","wx0d9fdn","","<span style=""color:Black; font-size:50px;"">Agent A","null","","","","",""
"null","","","video-keyboard-response","405","1060497","0.0-405.0","wx0d9fdn","","","null","","Agent A","scrambled","STIM_SET_2/1592150.bmp_pp77_L3_V1.0_scrambled_freeview_isoTrue.mp4",""
"null","","","html-keyboard-response","406","1061998","0.0-406.0","wx0d9fdn","","<span style=""color:Black; font-size:50px;"">Agent B","null","","","","",""
"null","","","video-keyboard-response","407","1065097","0.0-407.0","wx0d9fdn","","","null","","Agent B","veridical","STIM_SET_2/1592150.bmp_pp77_L3_V1.0_veridical_freeview_isoTrue.mp4",""
"","","","call-function","408","1065097","0.0-408.0","wx0d9fdn","","","","","","","",""
"1883.7750000001397","{""judgement"":0}","[0]","survey-likert","409","1066982","0.0-409.0","wx0d9fdn","","","","","","","","1"
"2347.9499999999534","{""confidence"":1}","[0]","survey-likert","410","1069331","0.0-410.0","wx0d9fdn","","","","","","","",""
"","","","call-function","411","1069331","0.0-411.0","wx0d9fdn","","","","","","","",""
"null","","","html-keyboard-response","412","1070834","0.0-412.0","wx0d9fdn","","<span style=""color:Black; font-size:50px;"">Agent A","null","","","","",""
"null","","","video-keyboard-response","413","1073899","0.0-413.0","wx0d9fdn","","","null","","Agent A","scrambled","STIM_SET_2/1159392.bmp_pp96_L2_V1.0_scrambled_freeview_isoTrue.mp4",""
"null","","","html-keyboard-response","414","1075401","0.0-414.0","wx0d9fdn","","<span style=""color:Black; font-size:50px;"">Agent B","null","","","","",""
"null","","","video-keyboard-response","415","1078495","0.0-415.0","wx0d9fdn","","","null","","Agent B","veridical","STIM_SET_2/1159392.bmp_pp96_L2_V1.0_veridical_freeview_isoTrue.mp4",""
"","","","call-function","416","1078496","0.0-416.0","wx0d9fdn","","","","","","","",""
"2335.8950000000186","{""judgement"":1}","[0]","survey-likert","417","1080833","0.0-417.0","wx0d9fdn","","","","","","","","1"
"1331.5049999998882","{""confidence"":0}","[0]","survey-likert","418","1082166","0.0-418.0","wx0d9fdn","","","","","","","",""
"39087.35000000009","","","instructions","419","1121254","0.0-419.0","wx0d9fdn","[{""page_index"":0,""viewing_time"":1414.2950000001583},{""page_index"":1,""viewing_time"":36966.80999999982},{""page_index"":2,""viewing_time"":706}]","","","","","","",""
"2599.404999999795","","","instructions","420","1123854","0.0-420.0","wx0d9fdn","[{""page_index"":0,""viewing_time"":757.2949999999255},{""page_index"":1,""viewing_time"":1142.9199999999255},{""page_index"":2,""viewing_time"":699.0849999999627}]","","","","","","",""
"","","","call-function","421","1123854","0.0-421.0","wx0d9fdn","","","","","","","",""
"null","","","html-keyboard-response","422","1125358","0.0-422.0","wx0d9fdn","","<span style=""color:Black; font-size:50px;"">Agent A","null","","","","",""
"null","","","video-keyboard-response","423","1128430","0.0-423.0","wx0d9fdn","","","null","","Agent A","scrambled","STIM_SET_2/498258.bmp_pp51_L1_V1.0_scrambled_freeview_isoTrue.mp4",""
"null","","","html-keyboard-response","424","1129936","0.0-424.0","wx0d9fdn","","<span style=""color:Black; font-size:50px;"">Agent B","null","","","","",""
"null","","","video-keyboard-response","425","1133004","0.0-425.0","wx0d9fdn","","","null","","Agent B","veridical","STIM_SET_2/498258.bmp_pp51_L1_V1.0_veridical_freeview_isoTrue.mp4",""
"","","","call-function","426","1133004","0.0-426.0","wx0d9fdn","","","","","","","",""
"2183.6049999999814","{""judgement"":1}","[0]","survey-likert","427","1135189","0.0-427.0","wx0d9fdn","","","","","","","","1"
"1419.5649999999441","{""confidence"":0}","[0]","survey-likert","428","1136609","0.0-428.0","wx0d9fdn","","","","","","","",""
"","","","call-function","429","1136610","0.0-429.0","wx0d9fdn","","","","","","","",""
"null","","","html-keyboard-response","430","1138113","0.0-430.0","wx0d9fdn","","<span style=""color:Black; font-size:50px;"">Agent A","null","","","","",""
"null","","","video-keyboard-response","431","1141181","0.0-431.0","wx0d9fdn","","","null","","Agent A","veridical","STIM_SET_2/713829.bmp_pp60_L3_V1.0_veridical_freeview_isoTrue.mp4",""
"null","","","html-keyboard-response","432","1142684","0.0-432.0","wx0d9fdn","","<span style=""color:Black; font-size:50px;"">Agent B","null","","","","",""
"null","","","video-keyboard-response","433","1145751","0.0-433.0","wx0d9fdn","","","null","","Agent B","scrambled","STIM_SET_2/713829.bmp_pp60_L3_V1.0_scrambled_freeview_isoTrue.mp4",""
"","","","call-function","434","1145752","0.0-434.0","wx0d9fdn","","","","","","","",""
"1885.1000000000931","{""judgement"":0}","[0]","survey-likert","435","1147638","0.0-435.0","wx0d9fdn","","","","","","","","0"
"2049.064999999944","{""confidence"":0}","[0]","survey-likert","436","1149688","0.0-436.0","wx0d9fdn","","","","","","","",""
"","","","call-function","437","1149689","0.0-437.0","wx0d9fdn","","","","","","","",""
"null","","","html-keyboard-response","438","1151190","0.0-438.0","wx0d9fdn","","<span style=""color:Black; font-size:50px;"">Agent A","null","","","","",""
"null","","","video-keyboard-response","439","1154279","0.0-439.0","wx0d9fdn","","","null","","Agent A","veridical","STIM_SET_2/1592567.bmp_pp70_L2_V1.0_veridical_freeview_isoTrue.mp4",""
"null","","","html-keyboard-response","440","1155782","0.0-440.0","wx0d9fdn","","<span style=""color:Black; font-size:50px;"">Agent B","null","","","","",""
"null","","","video-keyboard-response","441","1158871","0.0-441.0","wx0d9fdn","","","null","","Agent B","scrambled","STIM_SET_2/1592567.bmp_pp70_L2_V1.0_scrambled_freeview_isoTrue.mp4",""
"","","","call-function","442","1158871","0.0-442.0","wx0d9fdn","","","","","","","",""
"2085.8600000001024","{""judgement"":0}","[0]","survey-likert","443","1160958","0.0-443.0","wx0d9fdn","","","","","","","","0"
"1621.3899999998976","{""confidence"":1}","[0]","survey-likert","444","1162580","0.0-444.0","wx0d9fdn","","","","","","","",""
"","","","call-function","445","1162581","0.0-445.0","wx0d9fdn","","","","","","","",""
"null","","","html-keyboard-response","446","1164086","0.0-446.0","wx0d9fdn","","<span style=""color:Black; font-size:50px;"">Agent A","null","","","","",""
"null","","","video-keyboard-response","447","1167183","0.0-447.0","wx0d9fdn","","","null","","Agent A","scrambled","STIM_SET_2/1592857.bmp_pp52_L1_V1_scrambled_freeview_isoTrue.mp4",""
"null","","","html-keyboard-response","448","1168687","0.0-448.0","wx0d9fdn","","<span style=""color:Black; font-size:50px;"">Agent B","null","","","","",""
"null","","","video-keyboard-response","449","1171783","0.0-449.0","wx0d9fdn","","","null","","Agent B","veridical","STIM_SET_2/1592857.bmp_pp52_L1_V1_veridical_freeview_isoTrue.mp4",""
"","","","call-function","450","1171784","0.0-450.0","wx0d9fdn","","","","","","","",""
"1565.5450000001583","{""judgement"":1}","[0]","survey-likert","451","1173350","0.0-451.0","wx0d9fdn","","","","","","","","1"
"1704.839999999851","{""confidence"":1}","[0]","survey-likert","452","1175056","0.0-452.0","wx0d9fdn","","","","","","","",""
"","","","call-function","453","1175057","0.0-453.0","wx0d9fdn","","","","","","","",""
"null","","","html-keyboard-response","454","1176558","0.0-454.0","wx0d9fdn","","<span style=""color:Black; font-size:50px;"">Agent A","null","","","","",""
"null","","","video-keyboard-response","455","1179651","0.0-455.0","wx0d9fdn","","","null","","Agent A","veridical","STIM_SET_2/1592044.bmp_pp94_L2_V1.0_veridical_freeview_isoTrue.mp4",""
"null","","","html-keyboard-response","456","1181155","0.0-456.0","wx0d9fdn","","<span style=""color:Black; font-size:50px;"">Agent B","null","","","","",""
"null","","","video-keyboard-response","457","1184252","0.0-457.0","wx0d9fdn","","","null","","Agent B","scrambled","STIM_SET_2/1592044.bmp_pp94_L2_V1.0_scrambled_freeview_isoTrue.mp4",""
"","","","call-function","458","1184252","0.0-458.0","wx0d9fdn","","","","","","","",""
"2003.0849999999627","{""judgement"":1}","[0]","survey-likert","459","1186256","0.0-459.0","wx0d9fdn","","","","","","","","0"
"1545.8249999999534","{""confidence"":0}","[0]","survey-likert","460","1187803","0.0-460.0","wx0d9fdn","","","","","","","",""
"","","","call-function","461","1187804","0.0-461.0","wx0d9fdn","","","","","","","",""
"null","","","html-keyboard-response","462","1189308","0.0-462.0","wx0d9fdn","","<span style=""color:Black; font-size:50px;"">Agent A","null","","","","",""
"null","","","video-keyboard-response","463","1192372","0.0-463.0","wx0d9fdn","","","null","","Agent A","veridical","STIM_SET_2/1592951.bmp_pp80_L3_V1.0_veridical_freeview_isoTrue.mp4",""
"null","","","html-keyboard-response","464","1193876","0.0-464.0","wx0d9fdn","","<span style=""color:Black; font-size:50px;"">Agent B","null","","","","",""
"null","","","video-keyboard-response","465","1196939","0.0-465.0","wx0d9fdn","","","null","","Agent B","scrambled","STIM_SET_2/1592951.bmp_pp80_L3_V1.0_scrambled_freeview_isoTrue.mp4",""
"","","","call-function","466","1196939","0.0-466.0","wx0d9fdn","","","","","","","",""
"1620.094999999972","{""judgement"":0}","[0]","survey-likert","467","1198561","0.0-467.0","wx0d9fdn","","","","","","","","0"
"2718.1650000000373","{""confidence"":0}","[0]","survey-likert","468","1201281","0.0-468.0","wx0d9fdn","","","","","","","",""
"","","","call-function","469","1201282","0.0-469.0","wx0d9fdn","","","","","","","",""
"null","","","html-keyboard-response","470","1202786","0.0-470.0","wx0d9fdn","","<span style=""color:Black; font-size:50px;"">Agent A","null","","","","",""
"null","","","video-keyboard-response","471","1205858","0.0-471.0","wx0d9fdn","","","null","","Agent A","scrambled","STIM_SET_2/1159860.bmp_pp152_L2_V1.0_scrambled_freeview_isoTrue.mp4",""
"null","","","html-keyboard-response","472","1207358","0.0-472.0","wx0d9fdn","","<span style=""color:Black; font-size:50px;"">Agent B","null","","","","",""
"null","","","video-keyboard-response","473","1210430","0.0-473.0","wx0d9fdn","","","null","","Agent B","veridical","STIM_SET_2/1159860.bmp_pp152_L2_V1.0_veridical_freeview_isoTrue.mp4",""
"","","","call-function","474","1210430","0.0-474.0","wx0d9fdn","","","","","","","",""
"1433.5100000000093","{""judgement"":1}","[0]","survey-likert","475","1211865","0.0-475.0","wx0d9fdn","","","","","","","","1"
"1270.8999999999069","{""confidence"":1}","[0]","survey-likert","476","1213137","0.0-476.0","wx0d9fdn","","","","","","","",""
"","","","call-function","477","1213138","0.0-477.0","wx0d9fdn","","","","","","","",""
"null","","","html-keyboard-response","478","1214641","0.0-478.0","wx0d9fdn","","<span style=""color:Black; font-size:50px;"">Agent A","null","","","","",""
"null","","","video-keyboard-response","479","1217710","0.0-479.0","wx0d9fdn","","","null","","Agent A","veridical","STIM_SET_2/1592129.bmp_pp153_L3_V1.0_veridical_freeview_isoTrue.mp4",""
"null","","","html-keyboard-response","480","1219212","0.0-480.0","wx0d9fdn","","<span style=""color:Black; font-size:50px;"">Agent B","null","","","","",""
"null","","","video-keyboard-response","481","1222280","0.0-481.0","wx0d9fdn","","","null","","Agent B","scrambled","STIM_SET_2/1592129.bmp_pp153_L3_V1.0_scrambled_freeview_isoTrue.mp4",""
"","","","call-function","482","1222281","0.0-482.0","wx0d9fdn","","","","","","","",""
"2577.685000000056","{""judgement"":0}","[0]","survey-likert","483","1224859","0.0-483.0","wx0d9fdn","","","","","","","","0"
"1825.869999999879","{""confidence"":1}","[0]","survey-likert","484","1226686","0.0-484.0","wx0d9fdn","","","","","","","",""
"","","","call-function","485","1226687","0.0-485.0","wx0d9fdn","","","","","","","",""
"null","","","html-keyboard-response","486","1228194","0.0-486.0","wx0d9fdn","","<span style=""color:Black; font-size:50px;"">Agent A","null","","","","",""
"null","","","video-keyboard-response","487","1231261","0.0-487.0","wx0d9fdn","","","null","","Agent A","veridical","STIM_SET_2/1592168.bmp_pp71_L1_V1.0_veridical_freeview_isoTrue.mp4",""
"null","","","html-keyboard-response","488","1232764","0.0-488.0","wx0d9fdn","","<span style=""color:Black; font-size:50px;"">Agent B","null","","","","",""
"null","","","video-keyboard-response","489","1235831","0.0-489.0","wx0d9fdn","","","null","","Agent B","scrambled","STIM_SET_2/1592168.bmp_pp71_L1_V1.0_scrambled_freeview_isoTrue.mp4",""
"","","","call-function","490","1235831","0.0-490.0","wx0d9fdn","","","","","","","",""
"2069.189999999944","{""judgement"":0}","[0]","survey-likert","491","1237901","0.0-491.0","wx0d9fdn","","","","","","","","0"
"1489.7849999999162","{""confidence"":1}","[0]","survey-likert","492","1239392","0.0-492.0","wx0d9fdn","","","","","","","",""
"","","","call-function","493","1239393","0.0-493.0","wx0d9fdn","","","","","","","",""
"null","","","html-keyboard-response","494","1240895","0.0-494.0","wx0d9fdn","","<span style=""color:Black; font-size:50px;"">Agent A","null","","","","",""
"null","","","video-keyboard-response","495","1243997","0.0-495.0","wx0d9fdn","","","null","","Agent A","veridical","STIM_SET_2/1592530.bmp_pp75_L1_V1.0_veridical_freeview_isoTrue.mp4",""
"null","","","html-keyboard-response","496","1245499","0.0-496.0","wx0d9fdn","","<span style=""color:Black; font-size:50px;"">Agent B","null","","","","",""
"null","","","video-keyboard-response","497","1248602","0.0-497.0","wx0d9fdn","","","null","","Agent B","scrambled","STIM_SET_2/1592530.bmp_pp75_L1_V1.0_scrambled_freeview_isoTrue.mp4",""
"","","","call-function","498","1248602","0.0-498.0","wx0d9fdn","","","","","","","",""
"1822.2050000000745","{""judgement"":0}","[0]","survey-likert","499","1250425","0.0-499.0","wx0d9fdn","","","","","","","","0"
"1495.9899999999907","{""confidence"":0}","[0]","survey-likert","500","1251922","0.0-500.0","wx0d9fdn","","","","","","","",""
"80020.20999999996","","","instructions","501","1331943","0.0-501.0","wx0d9fdn","[{""page_index"":0,""viewing_time"":1376.2249999998603},{""page_index"":1,""viewing_time"":77697.82500000019},{""page_index"":2,""viewing_time"":945.9849999998696}]","","","","","","",""
"2614.475000000093","","","instructions","502","1334558","0.0-502.0","wx0d9fdn","[{""page_index"":0,""viewing_time"":909.5100000000093},{""page_index"":1,""viewing_time"":1185.030000000028},{""page_index"":2,""viewing_time"":519.8300000000745}]","","","","","","",""
"","","","call-function","503","1334559","0.0-503.0","wx0d9fdn","","","","","","","",""
"null","","","html-keyboard-response","504","1336061","0.0-504.0","wx0d9fdn","","<span style=""color:Black; font-size:50px;"">Agent A","null","","","","",""
"null","","","video-keyboard-response","505","1339135","0.0-505.0","wx0d9fdn","","","null","","Agent A","scrambled","STIM_SET_2/1159508.bmp_pp151_L1_V1.0_scrambled_freeview_isoTrue.mp4",""
"null","","","html-keyboard-response","506","1340638","0.0-506.0","wx0d9fdn","","<span style=""color:Black; font-size:50px;"">Agent B","null","","","","",""
"null","","","video-keyboard-response","507","1343709","0.0-507.0","wx0d9fdn","","","null","","Agent B","veridical","STIM_SET_2/1159508.bmp_pp151_L1_V1.0_veridical_freeview_isoTrue.mp4",""
"","","","call-function","508","1343710","0.0-508.0","wx0d9fdn","","","","","","","",""
"2445.810000000056","{""judgement"":1}","[0]","survey-likert","509","1346156","0.0-509.0","wx0d9fdn","","","","","","","","1"
"2121.4599999999627","{""confidence"":2}","[0]","survey-likert","510","1348279","0.0-510.0","wx0d9fdn","","","","","","","",""
"","","","call-function","511","1348279","0.0-511.0","wx0d9fdn","","","","","","","",""
"null","","","html-keyboard-response","512","1349785","0.0-512.0","wx0d9fdn","","<span style=""color:Black; font-size:50px;"">Agent A","null","","","","",""
"null","","","video-keyboard-response","513","1352858","0.0-513.0","wx0d9fdn","","","null","","Agent A","veridical","STIM_SET_2/713274.bmp_pp73_L3_V1.0_veridical_freeview_isoTrue.mp4",""
"null","","","html-keyboard-response","514","1354362","0.0-514.0","wx0d9fdn","","<span style=""color:Black; font-size:50px;"">Agent B","null","","","","",""
"null","","","video-keyboard-response","515","1357434","0.0-515.0","wx0d9fdn","","","null","","Agent B","scrambled","STIM_SET_2/713274.bmp_pp73_L3_V1.0_scrambled_freeview_isoTrue.mp4",""
"","","","call-function","516","1357435","0.0-516.0","wx0d9fdn","","","","","","","",""
"2675.8799999998882","{""judgement"":0}","[0]","survey-likert","517","1360112","0.0-517.0","wx0d9fdn","","","","","","","","0"
"2044.969999999972","{""confidence"":1}","[0]","survey-likert","518","1362158","0.0-518.0","wx0d9fdn","","","","","","","",""
"","","","call-function","519","1362158","0.0-519.0","wx0d9fdn","","","","","","","",""
"null","","","html-keyboard-response","520","1363661","0.0-520.0","wx0d9fdn","","<span style=""color:Black; font-size:50px;"">Agent A","null","","","","",""
"null","","","video-keyboard-response","521","1366762","0.0-521.0","wx0d9fdn","","","null","","Agent A","scrambled","STIM_SET_2/1159329.bmp_pp61_L2_V1.0_scrambled_freeview_isoTrue.mp4",""
"null","","","html-keyboard-response","522","1368264","0.0-522.0","wx0d9fdn","","<span style=""color:Black; font-size:50px;"">Agent B","null","","","","",""
"null","","","video-keyboard-response","523","1371362","0.0-523.0","wx0d9fdn","","","null","","Agent B","veridical","STIM_SET_2/1159329.bmp_pp61_L2_V1.0_veridical_freeview_isoTrue.mp4",""
"","","","call-function","524","1371363","0.0-524.0","wx0d9fdn","","","","","","","",""
"2643.7299999999814","{""judgement"":0}","[0]","survey-likert","525","1374007","0.0-525.0","wx0d9fdn","","","","","","","","1"
"1586.9750000000931","{""confidence"":0}","[0]","survey-likert","526","1375596","0.0-526.0","wx0d9fdn","","","","","","","",""
"","","","call-function","527","1375596","0.0-527.0","wx0d9fdn","","","","","","","",""
"null","","","html-keyboard-response","528","1377098","0.0-528.0","wx0d9fdn","","<span style=""color:Black; font-size:50px;"">Agent A","null","","","","",""
"null","","","video-keyboard-response","529","1380199","0.0-529.0","wx0d9fdn","","","null","","Agent A","scrambled","STIM_SET_2/1592298.bmp_pp56_L3_V1.0_scrambled_freeview_isoTrue.mp4",""
"null","","","html-keyboard-response","530","1381705","0.0-530.0","wx0d9fdn","","<span style=""color:Black; font-size:50px;"">Agent B","null","","","","",""
"null","","","video-keyboard-response","531","1384808","0.0-531.0","wx0d9fdn","","","null","","Agent B","veridical","STIM_SET_2/1592298.bmp_pp56_L3_V1.0_veridical_freeview_isoTrue.mp4",""
"","","","call-function","532","1384809","0.0-532.0","wx0d9fdn","","","","","","","",""
"2080.030000000028","{""judgement"":1}","[0]","survey-likert","533","1386890","0.0-533.0","wx0d9fdn","","","","","","","","1"
"1305.9599999999627","{""confidence"":1}","[0]","survey-likert","534","1388197","0.0-534.0","wx0d9fdn","","","","","","","",""
"","","","call-function","535","1388197","0.0-535.0","wx0d9fdn","","","","","","","",""
"null","","","html-keyboard-response","536","1389703","0.0-536.0","wx0d9fdn","","<span style=""color:Black; font-size:50px;"">Agent A","null","","","","",""
"null","","","video-keyboard-response","537","1392809","0.0-537.0","wx0d9fdn","","","null","","Agent A","veridical","STIM_SET_2/285959.bmp_pp93_L1_V1.0_veridical_freeview_isoTrue.mp4",""
"null","","","html-keyboard-response","538","1394315","0.0-538.0","wx0d9fdn","","<span style=""color:Black; font-size:50px;"">Agent B","null","","","","",""
"null","","","video-keyboard-response","539","1397419","0.0-539.0","wx0d9fdn","","","null","","Agent B","scrambled","STIM_SET_2/285959.bmp_pp93_L1_V1.0_scrambled_freeview_isoTrue.mp4",""
"","","","call-function","540","1397419","0.0-540.0","wx0d9fdn","","","","","","","",""
"2349.350000000093","{""judgement"":0}","[0]","survey-likert","541","1399770","0.0-541.0","wx0d9fdn","","","","","","","","0"
"2692.9950000001118","{""confidence"":1}","[0]","survey-likert","542","1402464","0.0-542.0","wx0d9fdn","","","","","","","",""
"","","","call-function","543","1402464","0.0-543.0","wx0d9fdn","","","","","","","",""
"null","","","html-keyboard-response","544","1403970","0.0-544.0","wx0d9fdn","","<span style=""color:Black; font-size:50px;"">Agent A","null","","","","",""
"null","","","video-keyboard-response","545","1407036","0.0-545.0","wx0d9fdn","","","null","","Agent A","scrambled","STIM_SET_2/286034.bmp_pp69_L3_V1.0_scrambled_freeview_isoTrue.mp4",""
"null","","","html-keyboard-response","546","1408539","0.0-546.0","wx0d9fdn","","<span style=""color:Black; font-size:50px;"">Agent B","null","","","","",""
"null","","","video-keyboard-response","547","1411608","0.0-547.0","wx0d9fdn","","","null","","Agent B","veridical","STIM_SET_2/286034.bmp_pp69_L3_V1.0_veridical_freeview_isoTrue.mp4",""
"","","","call-function","548","1411609","0.0-548.0","wx0d9fdn","","","","","","","",""
"1680.505000000121","{""judgement"":0}","[0]","survey-likert","549","1413291","0.0-549.0","wx0d9fdn","","","","","","","","1"
"1700.7549999998882","{""confidence"":1}","[0]","survey-likert","550","1414993","0.0-550.0","wx0d9fdn","","","","","","","",""
"","","","call-function","551","1414994","0.0-551.0","wx0d9fdn","","","","","","","",""
"null","","","html-keyboard-response","552","1416499","0.0-552.0","wx0d9fdn","","<span style=""color:Black; font-size:50px;"">Agent A","null","","","","",""
"null","","","video-keyboard-response","553","1419566","0.0-553.0","wx0d9fdn","","","null","","Agent A","scrambled","STIM_SET_2/1592047.bmp_pp51_L1_V1.0_scrambled_freeview_isoTrue.mp4",""
"null","","","html-keyboard-response","554","1421071","0.0-554.0","wx0d9fdn","","<span style=""color:Black; font-size:50px;"">Agent B","null","","","","",""
"null","","","video-keyboard-response","555","1424141","0.0-555.0","wx0d9fdn","","","null","","Agent B","veridical","STIM_SET_2/1592047.bmp_pp51_L1_V1.0_veridical_freeview_isoTrue.mp4",""
"","","","call-function","556","1424142","0.0-556.0","wx0d9fdn","","","","","","","",""
"2216.840000000084","{""judgement"":1}","[0]","survey-likert","557","1426360","0.0-557.0","wx0d9fdn","","","","","","","","1"
"1555.3999999999069","{""confidence"":0}","[0]","survey-likert","558","1427917","0.0-558.0","wx0d9fdn","","","","","","","",""
"","","","call-function","559","1427918","0.0-559.0","wx0d9fdn","","","","","","","",""
"null","","","html-keyboard-response","560","1429420","0.0-560.0","wx0d9fdn","","<span style=""color:Black; font-size:50px;"">Agent A","null","","","","",""
"null","","","video-keyboard-response","561","1432502","0.0-561.0","wx0d9fdn","","","null","","Agent A","scrambled","STIM_SET_2/713770.bmp_pp89_L1_V1.0_scrambled_freeview_isoTrue.mp4",""
"null","","","html-keyboard-response","562","1434008","0.0-562.0","wx0d9fdn","","<span style=""color:Black; font-size:50px;"">Agent B","null","","","","",""
"null","","","video-keyboard-response","563","1437121","0.0-563.0","wx0d9fdn","","","null","","Agent B","veridical","STIM_SET_2/713770.bmp_pp89_L1_V1.0_veridical_freeview_isoTrue.mp4",""
"","","","call-function","564","1437121","0.0-564.0","wx0d9fdn","","","","","","","",""
"1648.6450000000186","{""judgement"":0}","[0]","survey-likert","565","1438771","0.0-565.0","wx0d9fdn","","","","","","","","1"
"1479.5849999999627","{""confidence"":0}","[0]","survey-likert","566","1440252","0.0-566.0","wx0d9fdn","","","","","","","",""
"","","","call-function","567","1440252","0.0-567.0","wx0d9fdn","","","","","","","",""
"null","","","html-keyboard-response","568","1441755","0.0-568.0","wx0d9fdn","","<span style=""color:Black; font-size:50px;"">Agent A","null","","","","",""
"null","","","video-keyboard-response","569","1444818","0.0-569.0","wx0d9fdn","","","null","","Agent A","veridical","STIM_SET_2/1592289.bmp_pp92_L3_V1.0_veridical_freeview_isoTrue.mp4",""
"null","","","html-keyboard-response","570","1446322","0.0-570.0","wx0d9fdn","","<span style=""color:Black; font-size:50px;"">Agent B","null","","","","",""
"null","","","video-keyboard-response","571","1449424","0.0-571.0","wx0d9fdn","","","null","","Agent B","scrambled","STIM_SET_2/1592289.bmp_pp92_L3_V1.0_scrambled_freeview_isoTrue.mp4",""
"","","","call-function","572","1449425","0.0-572.0","wx0d9fdn","","","","","","","",""
"1793.2600000000093","{""judgement"":0}","[0]","survey-likert","573","1451219","0.0-573.0","wx0d9fdn","","","","","","","","0"
"1365.7349999998696","{""confidence"":2}","[0]","survey-likert","574","1452586","0.0-574.0","wx0d9fdn","","","","","","","",""
"","","","call-function","575","1452586","0.0-575.0","wx0d9fdn","","","","","","","",""
"null","","","html-keyboard-response","576","1454090","0.0-576.0","wx0d9fdn","","<span style=""color:Black; font-size:50px;"">Agent A","null","","","","",""
"null","","","video-keyboard-response","577","1457192","0.0-577.0","wx0d9fdn","","","null","","Agent A","veridical","STIM_SET_2/150463.bmp_pp55_L3_V1.0_veridical_freeview_isoTrue.mp4",""
"null","","","html-keyboard-response","578","1458693","0.0-578.0","wx0d9fdn","","<span style=""color:Black; font-size:50px;"">Agent B","null","","","","",""
"null","","","video-keyboard-response","579","1461795","0.0-579.0","wx0d9fdn","","","null","","Agent B","scrambled","STIM_SET_2/150463.bmp_pp55_L3_V1.0_scrambled_freeview_isoTrue.mp4",""
"","","","call-function","580","1461795","0.0-580.0","wx0d9fdn","","","","","","","",""
"1608.5349999999162","{""judgement"":0}","[0]","survey-likert","581","1463405","0.0-581.0","wx0d9fdn","","","","","","","","0"
"2107.399999999907","{""confidence"":2}","[0]","survey-likert","582","1465513","0.0-582.0","wx0d9fdn","","","","","","","",""
"1479.9450000000652","","","instructions","583","1466994","0.0-583.0","wx0d9fdn","[{""page_index"":0,""viewing_time"":1479.8049999999348}]","","","","","","",""
"3231.535000000149","","","instructions","584","1470226","0.0-584.0","wx0d9fdn","[{""page_index"":0,""viewing_time"":3231.4200000001583}]","","","","","","",""
"7555.564999999944","{""post-1"":1}","[0]","survey-likert","585","1477783","0.0-585.0","wx0d9fdn","","","","","","","",""
"14681.23999999999","{""post-1"":1}","[0]","survey-likert","586","1492465","0.0-586.0","wx0d9fdn","","","","","","","",""
"9608.674999999814","{""post-2"":2}","[0]","survey-likert","587","1502075","0.0-587.0","wx0d9fdn","","","","","","","",""
"3661.75","{""post-2"":1}","[0]","survey-likert","588","1505738","0.0-588.0","wx0d9fdn","","","","","","","",""
"7363.985000000102","{""post-3"":2}","[0]","survey-likert","589","1513103","0.0-589.0","wx0d9fdn","","","","","","","",""
"4070.7650000001304","{""post-3"":0}","[0]","survey-likert","590","1517175","0.0-590.0","wx0d9fdn","","","","","","","",""
"7037.979999999981","{""post-4"":1}","[0]","survey-likert","591","1524215","0.0-591.0","wx0d9fdn","","","","","","","",""
"2743.5149999998976","{""post-4"":0}","[0]","survey-likert","592","1526961","0.0-592.0","wx0d9fdn","","","","","","","",""
"5375.739999999991","{""post-5"":1}","[0]","survey-likert","593","1532339","0.0-593.0","wx0d9fdn","","","","","","","",""
"6472.939999999944","{""post-5"":2}","[0]","survey-likert","594","1538814","0.0-594.0","wx0d9fdn","","","","","","","",""
"72810.98999999999","{""Q0"":""The task was pretty difficult, as there were not many instances where I was confident with my answers. Often it felt like both attention responses were fabricated.""}","","survey-text","595","1611631","0.0-595.0","wx0d9fdn","","","","","","","",""
"121921.8600000001","{""Q0"":""I was the most confident that a response was fake if it jumped back and forth to far apart areas quickly. If the timing between movements was too formulaic it also felt fabricated.""}","","survey-text","596","1733556","0.0-596.0","wx0d9fdn","","","","","","","",""
"40767.19499999983","{""Q0"":""Sometimes the patterns for the human and fake responses were similar in timing and location, so it was hard to decide.""}","","survey-text","597","1774327","0.0-597.0","wx0d9fdn","","","","","","","",""
"1866.6950000000652","","","instructions","598","1776195","0.0-598.0","wx0d9fdn","[{""page_index"":0,""viewing_time"":1866.5600000000559}]","","","","","","",""
"41247.60000000009","{""Experimenter_end"":[""Printed ID# wx0d9fdn on consent form"",""Given subject SONA credit or payment"",""Given the subject debrief form""]}","[0]","survey-multi-select","599","1817445","0.0-599.0","wx0d9fdn","","","","","","","",""
