"rt","responses","question_order","trial_type","trial_index","time_elapsed","internal_node_id","ID","view_history","stimulus","key_press","value","agent","condition","image","correct_answer"
"9964.11","{""Experimenter"":[""Confirmed subject's identity (ID card)"",""Confirmed normal or corrected-to-normal vision"",""Obtained consent (signature and date)"",""Checked the test room lighting"",""Checked computer screen lighting"",""Checked distance from screen to chin rest (50cm)"",""Cleaned and adjusted chin rest"",""Counterbalanced the order of the tasks"",""Opened the experiment in Firefox"",""Made the experiment full screen"",""Encouraged subject to silence phone, put away distractors, etc.""]}","[0]","survey-multi-select","0","9973","0.0-0.0","x736ef9v","","","","","","","",""
"16444.96","","","instructions","1","26419","0.0-1.0","x736ef9v","[{""page_index"":0,""viewing_time"":16444.809999999998}]","","","","","","",""
"16337.179999999997","","","instructions","2","42757","0.0-2.0","x736ef9v","[{""page_index"":0,""viewing_time"":2922.7949999999983},{""page_index"":1,""viewing_time"":8816.149999999998},{""page_index"":2,""viewing_time"":4598.110000000001}]","","","","","","",""
"2812.739999999998","","","instructions","3","45571","0.0-3.0","x736ef9v","[{""page_index"":0,""viewing_time"":2812.635000000002}]","","","","","","",""
"null","","","video-keyboard-response","4","48644","0.0-4.0","x736ef9v","","","null","","","","",""
"22379.85","","","instructions","5","71024","0.0-5.0","x736ef9v","[{""page_index"":0,""viewing_time"":4520.7950000000055},{""page_index"":1,""viewing_time"":5613.009999999995},{""page_index"":2,""viewing_time"":1299.9700000000012},{""page_index"":3,""viewing_time"":5944},{""page_index"":4,""viewing_time"":5001.9100000000035}]","","","","","","",""
"5765.895000000004","","","instructions","6","76790","0.0-6.0","x736ef9v","[{""page_index"":0,""viewing_time"":5765.770000000004}]","","","","","","",""
"","","","call-function","7","76791","0.0-7.0","x736ef9v","","","","","","","",""
"null","","","html-keyboard-response","8","78297","0.0-8.0","x736ef9v","","<span style=""color:Black; font-size:50px;"">Agent A","null","","","","",""
"null","","","video-keyboard-response","9","81083","0.0-9.0","x736ef9v","","","null","","Agent A","veridical","FOR_REV_BLOBBY_STIM/1159440.bmp_pp98_L1_V1.0_veridical_freeview_isoFalse_fps144.mp4",""
"null","","","html-keyboard-response","10","82588","0.0-10.0","x736ef9v","","<span style=""color:Black; font-size:50px;"">Agent B","null","","","","",""
"null","","","video-keyboard-response","11","85374","0.0-11.0","x736ef9v","","","null","","Agent B","scrambled","FOR_REV_BLOBBY_STIM/1159440.bmp_pp98_L1_V1.0_veridical_freeview_isoFalse_fps144_reversed_REAL.mp4",""
"","","","call-function","12","85374","0.0-12.0","x736ef9v","","","","","","","",""
"6002.0350000000035","{""judgement"":0}","[0]","survey-likert","13","91377","0.0-13.0","x736ef9v","","","","","","","","0"
"6782.1600000000035","{""confidence"":1}","[0]","survey-likert","14","98161","0.0-14.0","x736ef9v","","","","","","","",""
"","","","call-function","15","98161","0.0-15.0","x736ef9v","","","","","","","",""
"null","","","html-keyboard-response","16","99662","0.0-16.0","x736ef9v","","<span style=""color:Black; font-size:50px;"">Agent A","null","","","","",""
"null","","","video-keyboard-response","17","102540","0.0-17.0","x736ef9v","","","null","","Agent A","veridical","FOR_REV_BLOBBY_STIM/713089.bmp_pp60_L3_V1.0_veridical_freeview_isoFalse_fps144.mp4",""
"null","","","html-keyboard-response","18","104043","0.0-18.0","x736ef9v","","<span style=""color:Black; font-size:50px;"">Agent B","null","","","","",""
"null","","","video-keyboard-response","19","106936","0.0-19.0","x736ef9v","","","null","","Agent B","scrambled","FOR_REV_BLOBBY_STIM/713089.bmp_pp60_L3_V1.0_veridical_freeview_isoFalse_fps144_reversed_REAL.mp4",""
"","","","call-function","20","106937","0.0-20.0","x736ef9v","","","","","","","",""
"5827.649999999994","{""judgement"":0}","[0]","survey-likert","21","112766","0.0-21.0","x736ef9v","","","","","","","","0"
"2750.270000000004","{""confidence"":2}","[0]","survey-likert","22","115518","0.0-22.0","x736ef9v","","","","","","","",""
"","","","call-function","23","115518","0.0-23.0","x736ef9v","","","","","","","",""
"null","","","html-keyboard-response","24","117019","0.0-24.0","x736ef9v","","<span style=""color:Black; font-size:50px;"">Agent A","null","","","","",""
"null","","","video-keyboard-response","25","119887","0.0-25.0","x736ef9v","","","null","","Agent A","veridical","FOR_REV_BLOBBY_STIM/285905.bmp_pp57_L1_V1.0_veridical_freeview_isoFalse_fps144.mp4",""
"null","","","html-keyboard-response","26","121390","0.0-26.0","x736ef9v","","<span style=""color:Black; font-size:50px;"">Agent B","null","","","","",""
"null","","","video-keyboard-response","27","124293","0.0-27.0","x736ef9v","","","null","","Agent B","scrambled","FOR_REV_BLOBBY_STIM/285905.bmp_pp57_L1_V1.0_veridical_freeview_isoFalse_fps144_reversed_REAL.mp4",""
"","","","call-function","28","124293","0.0-28.0","x736ef9v","","","","","","","",""
"2361.554999999993","{""judgement"":0}","[0]","survey-likert","29","126655","0.0-29.0","x736ef9v","","","","","","","","0"
"3224.12999999999","{""confidence"":3}","[0]","survey-likert","30","129880","0.0-30.0","x736ef9v","","","","","","","",""
"","","","call-function","31","129881","0.0-31.0","x736ef9v","","","","","","","",""
"null","","","html-keyboard-response","32","131384","0.0-32.0","x736ef9v","","<span style=""color:Black; font-size:50px;"">Agent A","null","","","","",""
"null","","","video-keyboard-response","33","134196","0.0-33.0","x736ef9v","","","null","","Agent A","scrambled","FOR_REV_BLOBBY_STIM/1159784.bmp_pp73_L3_V1.0_veridical_freeview_isoFalse_fps144_reversed_REAL.mp4",""
"null","","","html-keyboard-response","34","135702","0.0-34.0","x736ef9v","","<span style=""color:Black; font-size:50px;"">Agent B","null","","","","",""
"null","","","video-keyboard-response","35","138515","0.0-35.0","x736ef9v","","","null","","Agent B","veridical","FOR_REV_BLOBBY_STIM/1159784.bmp_pp73_L3_V1.0_veridical_freeview_isoFalse_fps144.mp4",""
"","","","call-function","36","138515","0.0-36.0","x736ef9v","","","","","","","",""
"4392.170000000013","{""judgement"":1}","[0]","survey-likert","37","142908","0.0-37.0","x736ef9v","","","","","","","","1"
"2007.9550000000163","{""confidence"":2}","[0]","survey-likert","38","144917","0.0-38.0","x736ef9v","","","","","","","",""
"","","","call-function","39","144917","0.0-39.0","x736ef9v","","","","","","","",""
"null","","","html-keyboard-response","40","146420","0.0-40.0","x736ef9v","","<span style=""color:Black; font-size:50px;"">Agent A","null","","","","",""
"null","","","video-keyboard-response","41","149251","0.0-41.0","x736ef9v","","","null","","Agent A","veridical","FOR_REV_BLOBBY_STIM/498253.bmp_pp67_L2_V1.0_veridical_freeview_isoFalse_fps144.mp4",""
"null","","","html-keyboard-response","42","150755","0.0-42.0","x736ef9v","","<span style=""color:Black; font-size:50px;"">Agent B","null","","","","",""
"null","","","video-keyboard-response","43","153592","0.0-43.0","x736ef9v","","","null","","Agent B","scrambled","FOR_REV_BLOBBY_STIM/498253.bmp_pp67_L2_V1.0_veridical_freeview_isoFalse_fps144_reversed_REAL.mp4",""
"","","","call-function","44","153592","0.0-44.0","x736ef9v","","","","","","","",""
"2962.329999999987","{""judgement"":0}","[0]","survey-likert","45","156555","0.0-45.0","x736ef9v","","","","","","","","0"
"2575.029999999999","{""confidence"":3}","[0]","survey-likert","46","159131","0.0-46.0","x736ef9v","","","","","","","",""
"","","","call-function","47","159132","0.0-47.0","x736ef9v","","","","","","","",""
"null","","","html-keyboard-response","48","160638","0.0-48.0","x736ef9v","","<span style=""color:Black; font-size:50px;"">Agent A","null","","","","",""
"null","","","video-keyboard-response","49","163389","0.0-49.0","x736ef9v","","","null","","Agent A","veridical","FOR_REV_BLOBBY_STIM/713749.bmp_pp88_L2_V1.0_veridical_freeview_isoFalse_fps144.mp4",""
"null","","","html-keyboard-response","50","164892","0.0-50.0","x736ef9v","","<span style=""color:Black; font-size:50px;"">Agent B","null","","","","",""
"null","","","video-keyboard-response","51","167622","0.0-51.0","x736ef9v","","","null","","Agent B","scrambled","FOR_REV_BLOBBY_STIM/713749.bmp_pp88_L2_V1.0_veridical_freeview_isoFalse_fps144_reversed_REAL.mp4",""
"","","","call-function","52","167622","0.0-52.0","x736ef9v","","","","","","","",""
"4896.295000000013","{""judgement"":1}","[0]","survey-likert","53","172520","0.0-53.0","x736ef9v","","","","","","","","0"
"2549.170000000013","{""confidence"":2}","[0]","survey-likert","54","175071","0.0-54.0","x736ef9v","","","","","","","",""
"","","","call-function","55","175072","0.0-55.0","x736ef9v","","","","","","","",""
"null","","","html-keyboard-response","56","176573","0.0-56.0","x736ef9v","","<span style=""color:Black; font-size:50px;"">Agent A","null","","","","",""
"null","","","video-keyboard-response","57","179433","0.0-57.0","x736ef9v","","","null","","Agent A","scrambled","FOR_REV_BLOBBY_STIM/1593035.bmp_pp94_L2_V1.0_veridical_freeview_isoFalse_fps144_reversed_REAL.mp4",""
"null","","","html-keyboard-response","58","180936","0.0-58.0","x736ef9v","","<span style=""color:Black; font-size:50px;"">Agent B","null","","","","",""
"null","","","video-keyboard-response","59","183796","0.0-59.0","x736ef9v","","","null","","Agent B","veridical","FOR_REV_BLOBBY_STIM/1593035.bmp_pp94_L2_V1.0_veridical_freeview_isoFalse_fps144.mp4",""
"","","","call-function","60","183796","0.0-60.0","x736ef9v","","","","","","","",""
"4099.025000000023","{""judgement"":1}","[0]","survey-likert","61","187896","0.0-61.0","x736ef9v","","","","","","","","1"
"1797.1750000000175","{""confidence"":2}","[0]","survey-likert","62","189695","0.0-62.0","x736ef9v","","","","","","","",""
"","","","call-function","63","189695","0.0-63.0","x736ef9v","","","","","","","",""
"null","","","html-keyboard-response","64","191197","0.0-64.0","x736ef9v","","<span style=""color:Black; font-size:50px;"">Agent A","null","","","","",""
"null","","","video-keyboard-response","65","193880","0.0-65.0","x736ef9v","","","null","","Agent A","veridical","FOR_REV_BLOBBY_STIM/1592372.bmp_pp76_L1_V1.0_veridical_freeview_isoFalse_fps144.mp4",""
"null","","","html-keyboard-response","66","195383","0.0-66.0","x736ef9v","","<span style=""color:Black; font-size:50px;"">Agent B","null","","","","",""
"null","","","video-keyboard-response","67","198066","0.0-67.0","x736ef9v","","","null","","Agent B","scrambled","FOR_REV_BLOBBY_STIM/1592372.bmp_pp76_L1_V1.0_veridical_freeview_isoFalse_fps144_reversed_REAL.mp4",""
"","","","call-function","68","198067","0.0-68.0","x736ef9v","","","","","","","",""
"4492.049999999988","{""judgement"":1}","[0]","survey-likert","69","202560","0.0-69.0","x736ef9v","","","","","","","","0"
"1736.8650000000198","{""confidence"":1}","[0]","survey-likert","70","204297","0.0-70.0","x736ef9v","","","","","","","",""
"","","","call-function","71","204298","0.0-71.0","x736ef9v","","","","","","","",""
"null","","","html-keyboard-response","72","205802","0.0-72.0","x736ef9v","","<span style=""color:Black; font-size:50px;"">Agent A","null","","","","",""
"null","","","video-keyboard-response","73","208373","0.0-73.0","x736ef9v","","","null","","Agent A","veridical","FOR_REV_BLOBBY_STIM/713760.bmp_pp81_L1_V1.0_veridical_freeview_isoFalse_fps144.mp4",""
"null","","","html-keyboard-response","74","209875","0.0-74.0","x736ef9v","","<span style=""color:Black; font-size:50px;"">Agent B","null","","","","",""
"null","","","video-keyboard-response","75","212440","0.0-75.0","x736ef9v","","","null","","Agent B","scrambled","FOR_REV_BLOBBY_STIM/713760.bmp_pp81_L1_V1.0_veridical_freeview_isoFalse_fps144_reversed_REAL.mp4",""
"","","","call-function","76","212440","0.0-76.0","x736ef9v","","","","","","","",""
"2704.720000000001","{""judgement"":1}","[0]","survey-likert","77","215145","0.0-77.0","x736ef9v","","","","","","","","0"
"1931.945000000007","{""confidence"":3}","[0]","survey-likert","78","217078","0.0-78.0","x736ef9v","","","","","","","",""
"","","","call-function","79","217079","0.0-79.0","x736ef9v","","","","","","","",""
"null","","","html-keyboard-response","80","218581","0.0-80.0","x736ef9v","","<span style=""color:Black; font-size:50px;"">Agent A","null","","","","",""
"null","","","video-keyboard-response","81","221235","0.0-81.0","x736ef9v","","","null","","Agent A","scrambled","FOR_REV_BLOBBY_STIM/713707.bmp_pp154_L1_V1.0_veridical_freeview_isoFalse_fps144_reversed_REAL.mp4",""
"null","","","html-keyboard-response","82","222739","0.0-82.0","x736ef9v","","<span style=""color:Black; font-size:50px;"">Agent B","null","","","","",""
"null","","","video-keyboard-response","83","225390","0.0-83.0","x736ef9v","","","null","","Agent B","veridical","FOR_REV_BLOBBY_STIM/713707.bmp_pp154_L1_V1.0_veridical_freeview_isoFalse_fps144.mp4",""
"","","","call-function","84","225390","0.0-84.0","x736ef9v","","","","","","","",""
"1843.2849999999744","{""judgement"":1}","[0]","survey-likert","85","227234","0.0-85.0","x736ef9v","","","","","","","","1"
"1710.3950000000186","{""confidence"":3}","[0]","survey-likert","86","228946","0.0-86.0","x736ef9v","","","","","","","",""
"3039.095000000001","","","instructions","87","231985","0.0-87.0","x736ef9v","[{""page_index"":0,""viewing_time"":1393.2149999999965},{""page_index"":1,""viewing_time"":999.0299999999988},{""page_index"":2,""viewing_time"":646.695000000007}]","","","","","","",""
"2792.8399999999965","","","instructions","88","234778","0.0-88.0","x736ef9v","[{""page_index"":0,""viewing_time"":662.6300000000047},{""page_index"":1,""viewing_time"":1315.0450000000128},{""page_index"":2,""viewing_time"":815.0449999999837}]","","","","","","",""
"","","","call-function","89","234779","0.0-89.0","x736ef9v","","","","","","","",""
"null","","","html-keyboard-response","90","236281","0.0-90.0","x736ef9v","","<span style=""color:Black; font-size:50px;"">Agent A","null","","","","",""
"null","","","video-keyboard-response","91","238896","0.0-91.0","x736ef9v","","","null","","Agent A","scrambled","FOR_REV_BLOBBY_STIM/1593146.bmp_pp93_L1_V1.0_veridical_freeview_isoFalse_fps144_reversed_REAL.mp4",""
"null","","","html-keyboard-response","92","240397","0.0-92.0","x736ef9v","","<span style=""color:Black; font-size:50px;"">Agent B","null","","","","",""
"null","","","video-keyboard-response","93","242978","0.0-93.0","x736ef9v","","","null","","Agent B","veridical","FOR_REV_BLOBBY_STIM/1593146.bmp_pp93_L1_V1.0_veridical_freeview_isoFalse_fps144.mp4",""
"","","","call-function","94","242979","0.0-94.0","x736ef9v","","","","","","","",""
"3623.654999999999","{""judgement"":1}","[0]","survey-likert","95","246603","0.0-95.0","x736ef9v","","","","","","","","1"
"1787.0849999999919","{""confidence"":1}","[0]","survey-likert","96","248391","0.0-96.0","x736ef9v","","","","","","","",""
"","","","call-function","97","248392","0.0-97.0","x736ef9v","","","","","","","",""
"null","","","html-keyboard-response","98","249896","0.0-98.0","x736ef9v","","<span style=""color:Black; font-size:50px;"">Agent A","null","","","","",""
"null","","","video-keyboard-response","99","252422","0.0-99.0","x736ef9v","","","null","","Agent A","veridical","FOR_REV_BLOBBY_STIM/1159515.bmp_pp84_L3_V1.0_veridical_freeview_isoFalse_fps144.mp4",""
"null","","","html-keyboard-response","100","253926","0.0-100.0","x736ef9v","","<span style=""color:Black; font-size:50px;"">Agent B","null","","","","",""
"null","","","video-keyboard-response","101","256453","0.0-101.0","x736ef9v","","","null","","Agent B","scrambled","FOR_REV_BLOBBY_STIM/1159515.bmp_pp84_L3_V1.0_veridical_freeview_isoFalse_fps144_reversed_REAL.mp4",""
"","","","call-function","102","256454","0.0-102.0","x736ef9v","","","","","","","",""
"2239.7149999999965","{""judgement"":1}","[0]","survey-likert","103","258694","0.0-103.0","x736ef9v","","","","","","","","0"
"2103.0650000000023","{""confidence"":3}","[0]","survey-likert","104","260798","0.0-104.0","x736ef9v","","","","","","","",""
"","","","call-function","105","260799","0.0-105.0","x736ef9v","","","","","","","",""
"null","","","html-keyboard-response","106","262300","0.0-106.0","x736ef9v","","<span style=""color:Black; font-size:50px;"">Agent A","null","","","","",""
"null","","","video-keyboard-response","107","265110","0.0-107.0","x736ef9v","","","null","","Agent A","scrambled","FOR_REV_BLOBBY_STIM/1159675.bmp_pp77_L3_V1.0_veridical_freeview_isoFalse_fps144_reversed_REAL.mp4",""
"null","","","html-keyboard-response","108","266613","0.0-108.0","x736ef9v","","<span style=""color:Black; font-size:50px;"">Agent B","null","","","","",""
"null","","","video-keyboard-response","109","269446","0.0-109.0","x736ef9v","","","null","","Agent B","veridical","FOR_REV_BLOBBY_STIM/1159675.bmp_pp77_L3_V1.0_veridical_freeview_isoFalse_fps144.mp4",""
"","","","call-function","110","269448","0.0-110.0","x736ef9v","","","","","","","",""
"2130.1849999999977","{""judgement"":1}","[0]","survey-likert","111","271579","0.0-111.0","x736ef9v","","","","","","","","1"
"1860.0900000000256","{""confidence"":3}","[0]","survey-likert","112","273440","0.0-112.0","x736ef9v","","","","","","","",""
"","","","call-function","113","273441","0.0-113.0","x736ef9v","","","","","","","",""
"null","","","html-keyboard-response","114","274946","0.0-114.0","x736ef9v","","<span style=""color:Black; font-size:50px;"">Agent A","null","","","","",""
"null","","","video-keyboard-response","115","277832","0.0-115.0","x736ef9v","","","null","","Agent A","veridical","FOR_REV_BLOBBY_STIM/1159447.bmp_pp70_L2_V1.0_veridical_freeview_isoFalse_fps144.mp4",""
"null","","","html-keyboard-response","116","279334","0.0-116.0","x736ef9v","","<span style=""color:Black; font-size:50px;"">Agent B","null","","","","",""
"null","","","video-keyboard-response","117","282187","0.0-117.0","x736ef9v","","","null","","Agent B","scrambled","FOR_REV_BLOBBY_STIM/1159447.bmp_pp70_L2_V1.0_veridical_freeview_isoFalse_fps144_reversed_REAL.mp4",""
"","","","call-function","118","282188","0.0-118.0","x736ef9v","","","","","","","",""
"3637.280000000028","{""judgement"":0}","[0]","survey-likert","119","285826","0.0-119.0","x736ef9v","","","","","","","","0"
"2025.3899999999558","{""confidence"":3}","[0]","survey-likert","120","287853","0.0-120.0","x736ef9v","","","","","","","",""
"","","","call-function","121","287854","0.0-121.0","x736ef9v","","","","","","","",""
"null","","","html-keyboard-response","122","289360","0.0-122.0","x736ef9v","","<span style=""color:Black; font-size:50px;"">Agent A","null","","","","",""
"null","","","video-keyboard-response","123","292182","0.0-123.0","x736ef9v","","","null","","Agent A","scrambled","FOR_REV_BLOBBY_STIM/1592286.bmp_pp52_L1_V1.0_veridical_freeview_isoFalse_fps144_reversed_REAL.mp4",""
"null","","","html-keyboard-response","124","293686","0.0-124.0","x736ef9v","","<span style=""color:Black; font-size:50px;"">Agent B","null","","","","",""
"null","","","video-keyboard-response","125","296505","0.0-125.0","x736ef9v","","","null","","Agent B","veridical","FOR_REV_BLOBBY_STIM/1592286.bmp_pp52_L1_V1.0_veridical_freeview_isoFalse_fps144.mp4",""
"","","","call-function","126","296506","0.0-126.0","x736ef9v","","","","","","","",""
"2657.7999999999884","{""judgement"":1}","[0]","survey-likert","127","299165","0.0-127.0","x736ef9v","","","","","","","","1"
"1646.405000000028","{""confidence"":3}","[0]","survey-likert","128","300813","0.0-128.0","x736ef9v","","","","","","","",""
"","","","call-function","129","300813","0.0-129.0","x736ef9v","","","","","","","",""
"null","","","html-keyboard-response","130","302317","0.0-130.0","x736ef9v","","<span style=""color:Black; font-size:50px;"">Agent A","null","","","","",""
"null","","","video-keyboard-response","131","305088","0.0-131.0","x736ef9v","","","null","","Agent A","scrambled","FOR_REV_BLOBBY_STIM/1159768.bmp_pp89_L1_V1.0_veridical_freeview_isoFalse_fps144_reversed_REAL.mp4",""
"null","","","html-keyboard-response","132","306593","0.0-132.0","x736ef9v","","<span style=""color:Black; font-size:50px;"">Agent B","null","","","","",""
"null","","","video-keyboard-response","133","309364","0.0-133.0","x736ef9v","","","null","","Agent B","veridical","FOR_REV_BLOBBY_STIM/1159768.bmp_pp89_L1_V1.0_veridical_freeview_isoFalse_fps144.mp4",""
"","","","call-function","134","309364","0.0-134.0","x736ef9v","","","","","","","",""
"3725.530000000028","{""judgement"":1}","[0]","survey-likert","135","313090","0.0-135.0","x736ef9v","","","","","","","","1"
"1564.884999999951","{""confidence"":2}","[0]","survey-likert","136","314656","0.0-136.0","x736ef9v","","","","","","","",""
"","","","call-function","137","314657","0.0-137.0","x736ef9v","","","","","","","",""
"null","","","html-keyboard-response","138","316159","0.0-138.0","x736ef9v","","<span style=""color:Black; font-size:50px;"">Agent A","null","","","","",""
"null","","","video-keyboard-response","139","318855","0.0-139.0","x736ef9v","","","null","","Agent A","scrambled","FOR_REV_BLOBBY_STIM/1592727.bmp_pp59_L3_V1.0_veridical_freeview_isoFalse_fps144_reversed_REAL.mp4",""
"null","","","html-keyboard-response","140","320359","0.0-140.0","x736ef9v","","<span style=""color:Black; font-size:50px;"">Agent B","null","","","","",""
"null","","","video-keyboard-response","141","323056","0.0-141.0","x736ef9v","","","null","","Agent B","veridical","FOR_REV_BLOBBY_STIM/1592727.bmp_pp59_L3_V1.0_veridical_freeview_isoFalse_fps144.mp4",""
"","","","call-function","142","323056","0.0-142.0","x736ef9v","","","","","","","",""
"2864.5849999999627","{""judgement"":1}","[0]","survey-likert","143","325921","0.0-143.0","x736ef9v","","","","","","","","1"
"1379.054999999993","{""confidence"":2}","[0]","survey-likert","144","327301","0.0-144.0","x736ef9v","","","","","","","",""
"","","","call-function","145","327302","0.0-145.0","x736ef9v","","","","","","","",""
"null","","","html-keyboard-response","146","328804","0.0-146.0","x736ef9v","","<span style=""color:Black; font-size:50px;"">Agent A","null","","","","",""
"null","","","video-keyboard-response","147","331525","0.0-147.0","x736ef9v","","","null","","Agent A","veridical","FOR_REV_BLOBBY_STIM/1592934.bmp_pp63_L1_V1.0_veridical_freeview_isoFalse_fps144.mp4",""
"null","","","html-keyboard-response","148","333026","0.0-148.0","x736ef9v","","<span style=""color:Black; font-size:50px;"">Agent B","null","","","","",""
"null","","","video-keyboard-response","149","335748","0.0-149.0","x736ef9v","","","null","","Agent B","scrambled","FOR_REV_BLOBBY_STIM/1592934.bmp_pp63_L1_V1.0_veridical_freeview_isoFalse_fps144_reversed_REAL.mp4",""
"","","","call-function","150","335748","0.0-150.0","x736ef9v","","","","","","","",""
"2488.6399999999558","{""judgement"":0}","[0]","survey-likert","151","338238","0.0-151.0","x736ef9v","","","","","","","","0"
"2070.7699999999604","{""confidence"":3}","[0]","survey-likert","152","340310","0.0-152.0","x736ef9v","","","","","","","",""
"","","","call-function","153","340310","0.0-153.0","x736ef9v","","","","","","","",""
"null","","","html-keyboard-response","154","341815","0.0-154.0","x736ef9v","","<span style=""color:Black; font-size:50px;"">Agent A","null","","","","",""
"null","","","video-keyboard-response","155","344622","0.0-155.0","x736ef9v","","","null","","Agent A","veridical","FOR_REV_BLOBBY_STIM/1159777.bmp_pp77_L3_V1.0_veridical_freeview_isoFalse_fps144.mp4",""
"null","","","html-keyboard-response","156","346128","0.0-156.0","x736ef9v","","<span style=""color:Black; font-size:50px;"">Agent B","null","","","","",""
"null","","","video-keyboard-response","157","348942","0.0-157.0","x736ef9v","","","null","","Agent B","scrambled","FOR_REV_BLOBBY_STIM/1159777.bmp_pp77_L3_V1.0_veridical_freeview_isoFalse_fps144_reversed_REAL.mp4",""
"","","","call-function","158","348942","0.0-158.0","x736ef9v","","","","","","","",""
"1964.1149999999907","{""judgement"":0}","[0]","survey-likert","159","350907","0.0-159.0","x736ef9v","","","","","","","","0"
"1828.539999999979","{""confidence"":3}","[0]","survey-likert","160","352737","0.0-160.0","x736ef9v","","","","","","","",""
"","","","call-function","161","352737","0.0-161.0","x736ef9v","","","","","","","",""
"null","","","html-keyboard-response","162","354239","0.0-162.0","x736ef9v","","<span style=""color:Black; font-size:50px;"">Agent A","null","","","","",""
"null","","","video-keyboard-response","163","356769","0.0-163.0","x736ef9v","","","null","","Agent A","veridical","FOR_REV_BLOBBY_STIM/1159813.bmp_pp79_L2_V1.0_veridical_freeview_isoFalse_fps144.mp4",""
"null","","","html-keyboard-response","164","358273","0.0-164.0","x736ef9v","","<span style=""color:Black; font-size:50px;"">Agent B","null","","","","",""
"null","","","video-keyboard-response","165","360798","0.0-165.0","x736ef9v","","","null","","Agent B","scrambled","FOR_REV_BLOBBY_STIM/1159813.bmp_pp79_L2_V1.0_veridical_freeview_isoFalse_fps144_reversed_REAL.mp4",""
"","","","call-function","166","360799","0.0-166.0","x736ef9v","","","","","","","",""
"2117.8000000000466","{""judgement"":1}","[0]","survey-likert","167","362917","0.0-167.0","x736ef9v","","","","","","","","0"
"1706.1350000000093","{""confidence"":2}","[0]","survey-likert","168","364624","0.0-168.0","x736ef9v","","","","","","","",""
"3291.5299999999697","","","instructions","169","367916","0.0-169.0","x736ef9v","[{""page_index"":0,""viewing_time"":1417.3850000000093},{""page_index"":1,""viewing_time"":1325.0050000000047},{""page_index"":2,""viewing_time"":548.9899999999907}]","","","","","","",""
"1595.649999999965","","","instructions","170","369512","0.0-170.0","x736ef9v","[{""page_index"":0,""viewing_time"":514.5},{""page_index"":1,""viewing_time"":525},{""page_index"":2,""viewing_time"":556.039999999979}]","","","","","","",""
"","","","call-function","171","369513","0.0-171.0","x736ef9v","","","","","","","",""
"null","","","html-keyboard-response","172","371013","0.0-172.0","x736ef9v","","<span style=""color:Black; font-size:50px;"">Agent A","null","","","","",""
"null","","","video-keyboard-response","173","373798","0.0-173.0","x736ef9v","","","null","","Agent A","scrambled","FOR_REV_BLOBBY_STIM/1159829.bmp_pp91_L3_V1.0_veridical_freeview_isoFalse_fps144_reversed_REAL.mp4",""
"null","","","html-keyboard-response","174","375299","0.0-174.0","x736ef9v","","<span style=""color:Black; font-size:50px;"">Agent B","null","","","","",""
"null","","","video-keyboard-response","175","378089","0.0-175.0","x736ef9v","","","null","","Agent B","veridical","FOR_REV_BLOBBY_STIM/1159829.bmp_pp91_L3_V1.0_veridical_freeview_isoFalse_fps144.mp4",""
"","","","call-function","176","378090","0.0-176.0","x736ef9v","","","","","","","",""
"3812.945000000007","{""judgement"":1}","[0]","survey-likert","177","381904","0.0-177.0","x736ef9v","","","","","","","","1"
"1616.164999999979","{""confidence"":2}","[0]","survey-likert","178","383522","0.0-178.0","x736ef9v","","","","","","","",""
"","","","call-function","179","383524","0.0-179.0","x736ef9v","","","","","","","",""
"null","","","html-keyboard-response","180","385029","0.0-180.0","x736ef9v","","<span style=""color:Black; font-size:50px;"">Agent A","null","","","","",""
"null","","","video-keyboard-response","181","387785","0.0-181.0","x736ef9v","","","null","","Agent A","veridical","FOR_REV_BLOBBY_STIM/1592804.bmp_pp91_L3_V1.0_veridical_freeview_isoFalse_fps144.mp4",""
"null","","","html-keyboard-response","182","389287","0.0-182.0","x736ef9v","","<span style=""color:Black; font-size:50px;"">Agent B","null","","","","",""
"null","","","video-keyboard-response","183","392044","0.0-183.0","x736ef9v","","","null","","Agent B","scrambled","FOR_REV_BLOBBY_STIM/1592804.bmp_pp91_L3_V1.0_veridical_freeview_isoFalse_fps144_reversed_REAL.mp4",""
"","","","call-function","184","392044","0.0-184.0","x736ef9v","","","","","","","",""
"2021.585000000021","{""judgement"":1}","[0]","survey-likert","185","394067","0.0-185.0","x736ef9v","","","","","","","","0"
"1938.9249999999884","{""confidence"":1}","[0]","survey-likert","186","396007","0.0-186.0","x736ef9v","","","","","","","",""
"","","","call-function","187","396007","0.0-187.0","x736ef9v","","","","","","","",""
"null","","","html-keyboard-response","188","397513","0.0-188.0","x736ef9v","","<span style=""color:Black; font-size:50px;"">Agent A","null","","","","",""
"null","","","video-keyboard-response","189","400282","0.0-189.0","x736ef9v","","","null","","Agent A","veridical","FOR_REV_BLOBBY_STIM/1159855.bmp_pp99_L2_V1.0_veridical_freeview_isoFalse_fps144.mp4",""
"null","","","html-keyboard-response","190","401787","0.0-190.0","x736ef9v","","<span style=""color:Black; font-size:50px;"">Agent B","null","","","","",""
"null","","","video-keyboard-response","191","404561","0.0-191.0","x736ef9v","","","null","","Agent B","scrambled","FOR_REV_BLOBBY_STIM/1159855.bmp_pp99_L2_V1.0_veridical_freeview_isoFalse_fps144_reversed_REAL.mp4",""
"","","","call-function","192","404561","0.0-192.0","x736ef9v","","","","","","","",""
"1830.600000000035","{""judgement"":1}","[0]","survey-likert","193","406393","0.0-193.0","x736ef9v","","","","","","","","0"
"1710.304999999993","{""confidence"":2}","[0]","survey-likert","194","408104","0.0-194.0","x736ef9v","","","","","","","",""
"","","","call-function","195","408104","0.0-195.0","x736ef9v","","","","","","","",""
"null","","","html-keyboard-response","196","409607","0.0-196.0","x736ef9v","","<span style=""color:Black; font-size:50px;"">Agent A","null","","","","",""
"null","","","video-keyboard-response","197","412479","0.0-197.0","x736ef9v","","","null","","Agent A","scrambled","FOR_REV_BLOBBY_STIM/1159572.bmp_pp71_L1_V1.0_veridical_freeview_isoFalse_fps144_reversed_REAL.mp4",""
"null","","","html-keyboard-response","198","413985","0.0-198.0","x736ef9v","","<span style=""color:Black; font-size:50px;"">Agent B","null","","","","",""
"null","","","video-keyboard-response","199","416859","0.0-199.0","x736ef9v","","","null","","Agent B","veridical","FOR_REV_BLOBBY_STIM/1159572.bmp_pp71_L1_V1.0_veridical_freeview_isoFalse_fps144.mp4",""
"","","","call-function","200","416859","0.0-200.0","x736ef9v","","","","","","","",""
"2162.8800000000047","{""judgement"":0}","[0]","survey-likert","201","419023","0.0-201.0","x736ef9v","","","","","","","","1"
"3671.6149999999907","{""confidence"":3}","[0]","survey-likert","202","422695","0.0-202.0","x736ef9v","","","","","","","",""
"","","","call-function","203","422695","0.0-203.0","x736ef9v","","","","","","","",""
"null","","","html-keyboard-response","204","424200","0.0-204.0","x736ef9v","","<span style=""color:Black; font-size:50px;"">Agent A","null","","","","",""
"null","","","video-keyboard-response","205","427039","0.0-205.0","x736ef9v","","","null","","Agent A","veridical","FOR_REV_BLOBBY_STIM/713403.bmp_pp80_L3_V1.0_veridical_freeview_isoFalse_fps144.mp4",""
"null","","","html-keyboard-response","206","428542","0.0-206.0","x736ef9v","","<span style=""color:Black; font-size:50px;"">Agent B","null","","","","",""
"null","","","video-keyboard-response","207","431384","0.0-207.0","x736ef9v","","","null","","Agent B","scrambled","FOR_REV_BLOBBY_STIM/713403.bmp_pp80_L3_V1.0_veridical_freeview_isoFalse_fps144_reversed_REAL.mp4",""
"","","","call-function","208","431384","0.0-208.0","x736ef9v","","","","","","","",""
"2005.0800000000163","{""judgement"":0}","[0]","survey-likert","209","433390","0.0-209.0","x736ef9v","","","","","","","","0"
"1528.3300000000163","{""confidence"":2}","[0]","survey-likert","210","434920","0.0-210.0","x736ef9v","","","","","","","",""
"","","","call-function","211","434920","0.0-211.0","x736ef9v","","","","","","","",""
"null","","","html-keyboard-response","212","436422","0.0-212.0","x736ef9v","","<span style=""color:Black; font-size:50px;"">Agent A","null","","","","",""
"null","","","video-keyboard-response","213","438030","0.0-213.0","x736ef9v","","","null","","Agent A","scrambled","FOR_REV_BLOBBY_STIM/713684.bmp_pp85_L3_V1.0_veridical_freeview_isoFalse_fps144_reversed_REAL.mp4",""
"null","","","html-keyboard-response","214","439533","0.0-214.0","x736ef9v","","<span style=""color:Black; font-size:50px;"">Agent B","null","","","","",""
"null","","","video-keyboard-response","215","441140","0.0-215.0","x736ef9v","","","null","","Agent B","veridical","FOR_REV_BLOBBY_STIM/713684.bmp_pp85_L3_V1.0_veridical_freeview_isoFalse_fps144.mp4",""
"","","","call-function","216","441140","0.0-216.0","x736ef9v","","","","","","","",""
"2253.539999999979","{""judgement"":0}","[0]","survey-likert","217","443394","0.0-217.0","x736ef9v","","","","","","","","1"
"2168.1749999999884","{""confidence"":3}","[0]","survey-likert","218","445564","0.0-218.0","x736ef9v","","","","","","","",""
"","","","call-function","219","445564","0.0-219.0","x736ef9v","","","","","","","",""
"null","","","html-keyboard-response","220","447069","0.0-220.0","x736ef9v","","<span style=""color:Black; font-size:50px;"">Agent A","null","","","","",""
"null","","","video-keyboard-response","221","449927","0.0-221.0","x736ef9v","","","null","","Agent A","veridical","FOR_REV_BLOBBY_STIM/497950.bmp_pp151_L1_V1.0_veridical_freeview_isoFalse_fps144.mp4",""
"null","","","html-keyboard-response","222","451429","0.0-222.0","x736ef9v","","<span style=""color:Black; font-size:50px;"">Agent B","null","","","","",""
"null","","","video-keyboard-response","223","454262","0.0-223.0","x736ef9v","","","null","","Agent B","scrambled","FOR_REV_BLOBBY_STIM/497950.bmp_pp151_L1_V1.0_veridical_freeview_isoFalse_fps144_reversed_REAL.mp4",""
"","","","call-function","224","454262","0.0-224.0","x736ef9v","","","","","","","",""
"1757.3450000000303","{""judgement"":0}","[0]","survey-likert","225","456021","0.0-225.0","x736ef9v","","","","","","","","0"
"2705.170000000042","{""confidence"":3}","[0]","survey-likert","226","458727","0.0-226.0","x736ef9v","","","","","","","",""
"","","","call-function","227","458727","0.0-227.0","x736ef9v","","","","","","","",""
"null","","","html-keyboard-response","228","460230","0.0-228.0","x736ef9v","","<span style=""color:Black; font-size:50px;"">Agent A","null","","","","",""
"null","","","video-keyboard-response","229","463012","0.0-229.0","x736ef9v","","","null","","Agent A","veridical","FOR_REV_BLOBBY_STIM/713681.bmp_pp86_L2_V1.0_veridical_freeview_isoFalse_fps144.mp4",""
"null","","","html-keyboard-response","230","464515","0.0-230.0","x736ef9v","","<span style=""color:Black; font-size:50px;"">Agent B","null","","","","",""
"null","","","video-keyboard-response","231","467299","0.0-231.0","x736ef9v","","","null","","Agent B","scrambled","FOR_REV_BLOBBY_STIM/713681.bmp_pp86_L2_V1.0_veridical_freeview_isoFalse_fps144_reversed_REAL.mp4",""
"","","","call-function","232","467299","0.0-232.0","x736ef9v","","","","","","","",""
"2686.5650000000023","{""judgement"":0}","[0]","survey-likert","233","469987","0.0-233.0","x736ef9v","","","","","","","","0"
"1655.1050000000396","{""confidence"":3}","[0]","survey-likert","234","471643","0.0-234.0","x736ef9v","","","","","","","",""
"","","","call-function","235","471643","0.0-235.0","x736ef9v","","","","","","","",""
"null","","","html-keyboard-response","236","473145","0.0-236.0","x736ef9v","","<span style=""color:Black; font-size:50px;"">Agent A","null","","","","",""
"null","","","video-keyboard-response","237","475650","0.0-237.0","x736ef9v","","","null","","Agent A","scrambled","FOR_REV_BLOBBY_STIM/713513.bmp_pp62_L2_V1.0_veridical_freeview_isoFalse_fps144_reversed_REAL.mp4",""
"null","","","html-keyboard-response","238","477155","0.0-238.0","x736ef9v","","<span style=""color:Black; font-size:50px;"">Agent B","null","","","","",""
"null","","","video-keyboard-response","239","479661","0.0-239.0","x736ef9v","","","null","","Agent B","veridical","FOR_REV_BLOBBY_STIM/713513.bmp_pp62_L2_V1.0_veridical_freeview_isoFalse_fps144.mp4",""
"","","","call-function","240","479661","0.0-240.0","x736ef9v","","","","","","","",""
"1987.8050000000512","{""judgement"":1}","[0]","survey-likert","241","481650","0.0-241.0","x736ef9v","","","","","","","","1"
"1887.8250000000116","{""confidence"":2}","[0]","survey-likert","242","483540","0.0-242.0","x736ef9v","","","","","","","",""
"","","","call-function","243","483541","0.0-243.0","x736ef9v","","","","","","","",""
"null","","","html-keyboard-response","244","485046","0.0-244.0","x736ef9v","","<span style=""color:Black; font-size:50px;"">Agent A","null","","","","",""
"null","","","video-keyboard-response","245","487858","0.0-245.0","x736ef9v","","","null","","Agent A","veridical","FOR_REV_BLOBBY_STIM/712977.bmp_pp51_L1_V1.0_veridical_freeview_isoFalse_fps144.mp4",""
"null","","","html-keyboard-response","246","489363","0.0-246.0","x736ef9v","","<span style=""color:Black; font-size:50px;"">Agent B","null","","","","",""
"null","","","video-keyboard-response","247","492177","0.0-247.0","x736ef9v","","","null","","Agent B","scrambled","FOR_REV_BLOBBY_STIM/712977.bmp_pp51_L1_V1.0_veridical_freeview_isoFalse_fps144_reversed_REAL.mp4",""
"","","","call-function","248","492178","0.0-248.0","x736ef9v","","","","","","","",""
"1712.8199999999488","{""judgement"":0}","[0]","survey-likert","249","493892","0.0-249.0","x736ef9v","","","","","","","","0"
"1794.679999999993","{""confidence"":3}","[0]","survey-likert","250","495688","0.0-250.0","x736ef9v","","","","","","","",""
"2818.7550000000047","","","instructions","251","498507","0.0-251.0","x736ef9v","[{""page_index"":0,""viewing_time"":961.390000000014},{""page_index"":1,""viewing_time"":691.1199999999953},{""page_index"":2,""viewing_time"":1166.0899999999674}]","","","","","","",""
"1801.9150000000373","","","instructions","252","500309","0.0-252.0","x736ef9v","[{""page_index"":0,""viewing_time"":904.0750000000116},{""page_index"":1,""viewing_time"":444.9100000000326},{""page_index"":2,""viewing_time"":452.82499999995343}]","","","","","","",""
"","","","call-function","253","500310","0.0-253.0","x736ef9v","","","","","","","",""
"null","","","html-keyboard-response","254","501812","0.0-254.0","x736ef9v","","<span style=""color:Black; font-size:50px;"">Agent A","null","","","","",""
"null","","","video-keyboard-response","255","504613","0.0-255.0","x736ef9v","","","null","","Agent A","scrambled","FOR_REV_BLOBBY_STIM/285751.bmp_pp55_L3_V1.0_veridical_freeview_isoFalse_fps144_reversed_REAL.mp4",""
"null","","","html-keyboard-response","256","506117","0.0-256.0","x736ef9v","","<span style=""color:Black; font-size:50px;"">Agent B","null","","","","",""
"null","","","video-keyboard-response","257","508914","0.0-257.0","x736ef9v","","","null","","Agent B","veridical","FOR_REV_BLOBBY_STIM/285751.bmp_pp55_L3_V1.0_veridical_freeview_isoFalse_fps144.mp4",""
"","","","call-function","258","508914","0.0-258.0","x736ef9v","","","","","","","",""
"2869.5650000000023","{""judgement"":1}","[0]","survey-likert","259","511785","0.0-259.0","x736ef9v","","","","","","","","1"
"1915.1900000000023","{""confidence"":3}","[0]","survey-likert","260","513701","0.0-260.0","x736ef9v","","","","","","","",""
"","","","call-function","261","513701","0.0-261.0","x736ef9v","","","","","","","",""
"null","","","html-keyboard-response","262","515203","0.0-262.0","x736ef9v","","<span style=""color:Black; font-size:50px;"">Agent A","null","","","","",""
"null","","","video-keyboard-response","263","518070","0.0-263.0","x736ef9v","","","null","","Agent A","scrambled","FOR_REV_BLOBBY_STIM/1591961.bmp_pp67_L2_V1.0_veridical_freeview_isoFalse_fps144_reversed_REAL.mp4",""
"null","","","html-keyboard-response","264","519572","0.0-264.0","x736ef9v","","<span style=""color:Black; font-size:50px;"">Agent B","null","","","","",""
"null","","","video-keyboard-response","265","522418","0.0-265.0","x736ef9v","","","null","","Agent B","veridical","FOR_REV_BLOBBY_STIM/1591961.bmp_pp67_L2_V1.0_veridical_freeview_isoFalse_fps144.mp4",""
"","","","call-function","266","522418","0.0-266.0","x736ef9v","","","","","","","",""
"3759.789999999979","{""judgement"":1}","[0]","survey-likert","267","526180","0.0-267.0","x736ef9v","","","","","","","","1"
"1522.2099999999627","{""confidence"":2}","[0]","survey-likert","268","527703","0.0-268.0","x736ef9v","","","","","","","",""
"","","","call-function","269","527703","0.0-269.0","x736ef9v","","","","","","","",""
"null","","","html-keyboard-response","270","529208","0.0-270.0","x736ef9v","","<span style=""color:Black; font-size:50px;"">Agent A","null","","","","",""
"null","","","video-keyboard-response","271","532007","0.0-271.0","x736ef9v","","","null","","Agent A","veridical","FOR_REV_BLOBBY_STIM/713620.bmp_pp65_L3_V1.0_veridical_freeview_isoFalse_fps144.mp4",""
"null","","","html-keyboard-response","272","533509","0.0-272.0","x736ef9v","","<span style=""color:Black; font-size:50px;"">Agent B","null","","","","",""
"null","","","video-keyboard-response","273","536307","0.0-273.0","x736ef9v","","","null","","Agent B","scrambled","FOR_REV_BLOBBY_STIM/713620.bmp_pp65_L3_V1.0_veridical_freeview_isoFalse_fps144_reversed_REAL.mp4",""
"","","","call-function","274","536307","0.0-274.0","x736ef9v","","","","","","","",""
"2068.9550000000745","{""judgement"":1}","[0]","survey-likert","275","538377","0.0-275.0","x736ef9v","","","","","","","","0"
"1694.9749999999767","{""confidence"":2}","[0]","survey-likert","276","540073","0.0-276.0","x736ef9v","","","","","","","",""
"","","","call-function","277","540073","0.0-277.0","x736ef9v","","","","","","","",""
"null","","","html-keyboard-response","278","541576","0.0-278.0","x736ef9v","","<span style=""color:Black; font-size:50px;"">Agent A","null","","","","",""
"null","","","video-keyboard-response","279","544301","0.0-279.0","x736ef9v","","","null","","Agent A","scrambled","FOR_REV_BLOBBY_STIM/1592817.bmp_pp55_L3_V1.0_veridical_freeview_isoFalse_fps144_reversed_REAL.mp4",""
"null","","","html-keyboard-response","280","545804","0.0-280.0","x736ef9v","","<span style=""color:Black; font-size:50px;"">Agent B","null","","","","",""
"null","","","video-keyboard-response","281","548528","0.0-281.0","x736ef9v","","","null","","Agent B","veridical","FOR_REV_BLOBBY_STIM/1592817.bmp_pp55_L3_V1.0_veridical_freeview_isoFalse_fps144.mp4",""
"","","","call-function","282","548528","0.0-282.0","x736ef9v","","","","","","","",""
"1929.7300000000978","{""judgement"":1}","[0]","survey-likert","283","550459","0.0-283.0","x736ef9v","","","","","","","","1"
"2982.6399999998976","{""confidence"":3}","[0]","survey-likert","284","553443","0.0-284.0","x736ef9v","","","","","","","",""
"","","","call-function","285","553443","0.0-285.0","x736ef9v","","","","","","","",""
"null","","","html-keyboard-response","286","554946","0.0-286.0","x736ef9v","","<span style=""color:Black; font-size:50px;"">Agent A","null","","","","",""
"null","","","video-keyboard-response","287","557667","0.0-287.0","x736ef9v","","","null","","Agent A","veridical","FOR_REV_BLOBBY_STIM/498111.bmp_pp88_L2_V1.0_veridical_freeview_isoFalse_fps144.mp4",""
"null","","","html-keyboard-response","288","559172","0.0-288.0","x736ef9v","","<span style=""color:Black; font-size:50px;"">Agent B","null","","","","",""
"null","","","video-keyboard-response","289","561898","0.0-289.0","x736ef9v","","","null","","Agent B","scrambled","FOR_REV_BLOBBY_STIM/498111.bmp_pp88_L2_V1.0_veridical_freeview_isoFalse_fps144_reversed_REAL.mp4",""
"","","","call-function","290","561898","0.0-290.0","x736ef9v","","","","","","","",""
"2749.045000000042","{""judgement"":1}","[0]","survey-likert","291","564648","0.0-291.0","x736ef9v","","","","","","","","0"
"6936.020000000019","{""confidence"":3}","[0]","survey-likert","292","571585","0.0-292.0","x736ef9v","","","","","","","",""
"","","","call-function","293","571585","0.0-293.0","x736ef9v","","","","","","","",""
"null","","","html-keyboard-response","294","573087","0.0-294.0","x736ef9v","","<span style=""color:Black; font-size:50px;"">Agent A","null","","","","",""
"null","","","video-keyboard-response","295","575670","0.0-295.0","x736ef9v","","","null","","Agent A","scrambled","FOR_REV_BLOBBY_STIM/286001.bmp_pp54_L2_V1.0_veridical_freeview_isoFalse_fps144_reversed_REAL.mp4",""
"null","","","html-keyboard-response","296","577173","0.0-296.0","x736ef9v","","<span style=""color:Black; font-size:50px;"">Agent B","null","","","","",""
"null","","","video-keyboard-response","297","579756","0.0-297.0","x736ef9v","","","null","","Agent B","veridical","FOR_REV_BLOBBY_STIM/286001.bmp_pp54_L2_V1.0_veridical_freeview_isoFalse_fps144.mp4",""
"","","","call-function","298","579758","0.0-298.0","x736ef9v","","","","","","","",""
"1724.3399999999674","{""judgement"":1}","[0]","survey-likert","299","581483","0.0-299.0","x736ef9v","","","","","","","","1"
"1409.2600000000093","{""confidence"":2}","[0]","survey-likert","300","582894","0.0-300.0","x736ef9v","","","","","","","",""
"","","","call-function","301","582894","0.0-301.0","x736ef9v","","","","","","","",""
"null","","","html-keyboard-response","302","584396","0.0-302.0","x736ef9v","","<span style=""color:Black; font-size:50px;"">Agent A","null","","","","",""
"null","","","video-keyboard-response","303","587152","0.0-303.0","x736ef9v","","","null","","Agent A","scrambled","FOR_REV_BLOBBY_STIM/285933.bmp_pp81_L1_V1.0_veridical_freeview_isoFalse_fps144_reversed_REAL.mp4",""
"null","","","html-keyboard-response","304","588654","0.0-304.0","x736ef9v","","<span style=""color:Black; font-size:50px;"">Agent B","null","","","","",""
"null","","","video-keyboard-response","305","591374","0.0-305.0","x736ef9v","","","null","","Agent B","veridical","FOR_REV_BLOBBY_STIM/285933.bmp_pp81_L1_V1.0_veridical_freeview_isoFalse_fps144.mp4",""
"","","","call-function","306","591375","0.0-306.0","x736ef9v","","","","","","","",""
"2170.3150000000605","{""judgement"":1}","[0]","survey-likert","307","593546","0.0-307.0","x736ef9v","","","","","","","","1"
"1610.7550000000047","{""confidence"":1}","[0]","survey-likert","308","595158","0.0-308.0","x736ef9v","","","","","","","",""
"","","","call-function","309","595159","0.0-309.0","x736ef9v","","","","","","","",""
"null","","","html-keyboard-response","310","596664","0.0-310.0","x736ef9v","","<span style=""color:Black; font-size:50px;"">Agent A","null","","","","",""
"null","","","video-keyboard-response","311","599463","0.0-311.0","x736ef9v","","","null","","Agent A","veridical","FOR_REV_BLOBBY_STIM/498175.bmp_pp154_L1_V1.0_veridical_freeview_isoFalse_fps144.mp4",""
"null","","","html-keyboard-response","312","600967","0.0-312.0","x736ef9v","","<span style=""color:Black; font-size:50px;"">Agent B","null","","","","",""
"null","","","video-keyboard-response","313","603763","0.0-313.0","x736ef9v","","","null","","Agent B","scrambled","FOR_REV_BLOBBY_STIM/498175.bmp_pp154_L1_V1.0_veridical_freeview_isoFalse_fps144_reversed_REAL.mp4",""
"","","","call-function","314","603763","0.0-314.0","x736ef9v","","","","","","","",""
"2073.615000000107","{""judgement"":0}","[0]","survey-likert","315","605838","0.0-315.0","x736ef9v","","","","","","","","0"
"3307.570000000065","{""confidence"":3}","[0]","survey-likert","316","609147","0.0-316.0","x736ef9v","","","","","","","",""
"","","","call-function","317","609148","0.0-317.0","x736ef9v","","","","","","","",""
"null","","","html-keyboard-response","318","610650","0.0-318.0","x736ef9v","","<span style=""color:Black; font-size:50px;"">Agent A","null","","","","",""
"null","","","video-keyboard-response","319","613484","0.0-319.0","x736ef9v","","","null","","Agent A","veridical","FOR_REV_BLOBBY_STIM/1160127.bmp_pp90_L2_V1.0_veridical_freeview_isoFalse_fps144.mp4",""
"null","","","html-keyboard-response","320","614990","0.0-320.0","x736ef9v","","<span style=""color:Black; font-size:50px;"">Agent B","null","","","","",""
"null","","","video-keyboard-response","321","617852","0.0-321.0","x736ef9v","","","null","","Agent B","scrambled","FOR_REV_BLOBBY_STIM/1160127.bmp_pp90_L2_V1.0_veridical_freeview_isoFalse_fps144_reversed_REAL.mp4",""
"","","","call-function","322","617852","0.0-322.0","x736ef9v","","","","","","","",""
"2840.1350000000093","{""judgement"":0}","[0]","survey-likert","323","620694","0.0-323.0","x736ef9v","","","","","","","","0"
"1423.5400000000373","{""confidence"":2}","[0]","survey-likert","324","622118","0.0-324.0","x736ef9v","","","","","","","",""
"","","","call-function","325","622119","0.0-325.0","x736ef9v","","","","","","","",""
"null","","","html-keyboard-response","326","623621","0.0-326.0","x736ef9v","","<span style=""color:Black; font-size:50px;"">Agent A","null","","","","",""
"null","","","video-keyboard-response","327","626463","0.0-327.0","x736ef9v","","","null","","Agent A","veridical","FOR_REV_BLOBBY_STIM/713371.bmp_pp68_L1_V1.0_veridical_freeview_isoFalse_fps144.mp4",""
"null","","","html-keyboard-response","328","627966","0.0-328.0","x736ef9v","","<span style=""color:Black; font-size:50px;"">Agent B","null","","","","",""
"null","","","video-keyboard-response","329","630802","0.0-329.0","x736ef9v","","","null","","Agent B","scrambled","FOR_REV_BLOBBY_STIM/713371.bmp_pp68_L1_V1.0_veridical_freeview_isoFalse_fps144_reversed_REAL.mp4",""
"","","","call-function","330","630802","0.0-330.0","x736ef9v","","","","","","","",""
"2024.5800000000745","{""judgement"":0}","[0]","survey-likert","331","632828","0.0-331.0","x736ef9v","","","","","","","","0"
"1619.9799999999814","{""confidence"":3}","[0]","survey-likert","332","634449","0.0-332.0","x736ef9v","","","","","","","",""
"2238.4749999999767","","","instructions","333","636688","0.0-333.0","x736ef9v","[{""page_index"":0,""viewing_time"":1184.3850000000093},{""page_index"":1,""viewing_time"":567.9799999999814},{""page_index"":2,""viewing_time"":485.9550000000745}]","","","","","","",""
"1435.6199999999953","","","instructions","334","638124","0.0-334.0","x736ef9v","[{""page_index"":0,""viewing_time"":447.53000000002794},{""page_index"":1,""viewing_time"":500.06500000006054},{""page_index"":2,""viewing_time"":487.91499999992084}]","","","","","","",""
"","","","call-function","335","638124","0.0-335.0","x736ef9v","","","","","","","",""
"null","","","html-keyboard-response","336","639629","0.0-336.0","x736ef9v","","<span style=""color:Black; font-size:50px;"">Agent A","null","","","","",""
"null","","","video-keyboard-response","337","642420","0.0-337.0","x736ef9v","","","null","","Agent A","scrambled","FOR_REV_BLOBBY_STIM/1592499.bmp_pp96_L2_V1.0_veridical_freeview_isoFalse_fps144_reversed_REAL.mp4",""
"null","","","html-keyboard-response","338","643923","0.0-338.0","x736ef9v","","<span style=""color:Black; font-size:50px;"">Agent B","null","","","","",""
"null","","","video-keyboard-response","339","646709","0.0-339.0","x736ef9v","","","null","","Agent B","veridical","FOR_REV_BLOBBY_STIM/1592499.bmp_pp96_L2_V1.0_veridical_freeview_isoFalse_fps144.mp4",""
"","","","call-function","340","646709","0.0-340.0","x736ef9v","","","","","","","",""
"3181.5200000000186","{""judgement"":0}","[0]","survey-likert","341","649892","0.0-341.0","x736ef9v","","","","","","","","1"
"1388.3950000000186","{""confidence"":1}","[0]","survey-likert","342","651281","0.0-342.0","x736ef9v","","","","","","","",""
"","","","call-function","343","651282","0.0-343.0","x736ef9v","","","","","","","",""
"null","","","html-keyboard-response","344","652788","0.0-344.0","x736ef9v","","<span style=""color:Black; font-size:50px;"">Agent A","null","","","","",""
"null","","","video-keyboard-response","345","655620","0.0-345.0","x736ef9v","","","null","","Agent A","scrambled","FOR_REV_BLOBBY_STIM/713017.bmp_pp152_L2_V1.0_veridical_freeview_isoFalse_fps144_reversed_REAL.mp4",""
"null","","","html-keyboard-response","346","657127","0.0-346.0","x736ef9v","","<span style=""color:Black; font-size:50px;"">Agent B","null","","","","",""
"null","","","video-keyboard-response","347","659984","0.0-347.0","x736ef9v","","","null","","Agent B","veridical","FOR_REV_BLOBBY_STIM/713017.bmp_pp152_L2_V1.0_veridical_freeview_isoFalse_fps144.mp4",""
"","","","call-function","348","659985","0.0-348.0","x736ef9v","","","","","","","",""
"2090.515000000014","{""judgement"":1}","[0]","survey-likert","349","662076","0.0-349.0","x736ef9v","","","","","","","","1"
"3458.144999999902","{""confidence"":2}","[0]","survey-likert","350","665535","0.0-350.0","x736ef9v","","","","","","","",""
"","","","call-function","351","665535","0.0-351.0","x736ef9v","","","","","","","",""
"null","","","html-keyboard-response","352","667039","0.0-352.0","x736ef9v","","<span style=""color:Black; font-size:50px;"">Agent A","null","","","","",""
"null","","","video-keyboard-response","353","669560","0.0-353.0","x736ef9v","","","null","","Agent A","veridical","FOR_REV_BLOBBY_STIM/713796.bmp_pp84_L3_V1.0_veridical_freeview_isoFalse_fps144.mp4",""
"null","","","html-keyboard-response","354","671063","0.0-354.0","x736ef9v","","<span style=""color:Black; font-size:50px;"">Agent B","null","","","","",""
"null","","","video-keyboard-response","355","673582","0.0-355.0","x736ef9v","","","null","","Agent B","scrambled","FOR_REV_BLOBBY_STIM/713796.bmp_pp84_L3_V1.0_veridical_freeview_isoFalse_fps144_reversed_REAL.mp4",""
"","","","call-function","356","673583","0.0-356.0","x736ef9v","","","","","","","",""
"2982.4100000000326","{""judgement"":0}","[0]","survey-likert","357","676567","0.0-357.0","x736ef9v","","","","","","","","0"
"1618.0700000000652","{""confidence"":1}","[0]","survey-likert","358","678187","0.0-358.0","x736ef9v","","","","","","","",""
"","","","call-function","359","678188","0.0-359.0","x736ef9v","","","","","","","",""
"null","","","html-keyboard-response","360","679692","0.0-360.0","x736ef9v","","<span style=""color:Black; font-size:50px;"">Agent A","null","","","","",""
"null","","","video-keyboard-response","361","682494","0.0-361.0","x736ef9v","","","null","","Agent A","scrambled","FOR_REV_BLOBBY_STIM/1592362.bmp_pp95_L2_V1.0_veridical_freeview_isoFalse_fps144_reversed_REAL.mp4",""
"null","","","html-keyboard-response","362","684001","0.0-362.0","x736ef9v","","<span style=""color:Black; font-size:50px;"">Agent B","null","","","","",""
"null","","","video-keyboard-response","363","686798","0.0-363.0","x736ef9v","","","null","","Agent B","veridical","FOR_REV_BLOBBY_STIM/1592362.bmp_pp95_L2_V1.0_veridical_freeview_isoFalse_fps144.mp4",""
"","","","call-function","364","686798","0.0-364.0","x736ef9v","","","","","","","",""
"1969.3499999999767","{""judgement"":1}","[0]","survey-likert","365","688769","0.0-365.0","x736ef9v","","","","","","","","1"
"1552.6800000000512","{""confidence"":3}","[0]","survey-likert","366","690323","0.0-366.0","x736ef9v","","","","","","","",""
"","","","call-function","367","690324","0.0-367.0","x736ef9v","","","","","","","",""
"null","","","html-keyboard-response","368","691827","0.0-368.0","x736ef9v","","<span style=""color:Black; font-size:50px;"">Agent A","null","","","","",""
"null","","","video-keyboard-response","369","694577","0.0-369.0","x736ef9v","","","null","","Agent A","veridical","FOR_REV_BLOBBY_STIM/498155.bmp_pp61_L2_V1.0_veridical_freeview_isoFalse_fps144.mp4",""
"null","","","html-keyboard-response","370","696082","0.0-370.0","x736ef9v","","<span style=""color:Black; font-size:50px;"">Agent B","null","","","","",""
"null","","","video-keyboard-response","371","698833","0.0-371.0","x736ef9v","","","null","","Agent B","scrambled","FOR_REV_BLOBBY_STIM/498155.bmp_pp61_L2_V1.0_veridical_freeview_isoFalse_fps144_reversed_REAL.mp4",""
"","","","call-function","372","698833","0.0-372.0","x736ef9v","","","","","","","",""
"1919.344999999972","{""judgement"":1}","[0]","survey-likert","373","700753","0.0-373.0","x736ef9v","","","","","","","","0"
"1468.7000000000698","{""confidence"":3}","[0]","survey-likert","374","702223","0.0-374.0","x736ef9v","","","","","","","",""
"","","","call-function","375","702224","0.0-375.0","x736ef9v","","","","","","","",""
"null","","","html-keyboard-response","376","703727","0.0-376.0","x736ef9v","","<span style=""color:Black; font-size:50px;"">Agent A","null","","","","",""
"null","","","video-keyboard-response","377","706540","0.0-377.0","x736ef9v","","","null","","Agent A","veridical","FOR_REV_BLOBBY_STIM/1592890.bmp_pp82_L2_V1.0_veridical_freeview_isoFalse_fps144.mp4",""
"null","","","html-keyboard-response","378","708046","0.0-378.0","x736ef9v","","<span style=""color:Black; font-size:50px;"">Agent B","null","","","","",""
"null","","","video-keyboard-response","379","710850","0.0-379.0","x736ef9v","","","null","","Agent B","scrambled","FOR_REV_BLOBBY_STIM/1592890.bmp_pp82_L2_V1.0_veridical_freeview_isoFalse_fps144_reversed_REAL.mp4",""
"","","","call-function","380","710851","0.0-380.0","x736ef9v","","","","","","","",""
"2294.704999999958","{""judgement"":1}","[0]","survey-likert","381","713146","0.0-381.0","x736ef9v","","","","","","","","0"
"4089.8349999999627","{""confidence"":2}","[0]","survey-likert","382","717237","0.0-382.0","x736ef9v","","","","","","","",""
"","","","call-function","383","717237","0.0-383.0","x736ef9v","","","","","","","",""
"null","","","html-keyboard-response","384","718739","0.0-384.0","x736ef9v","","<span style=""color:Black; font-size:50px;"">Agent A","null","","","","",""
"null","","","video-keyboard-response","385","721503","0.0-385.0","x736ef9v","","","null","","Agent A","veridical","FOR_REV_BLOBBY_STIM/1592581.bmp_pp100_L3_V1.0_veridical_freeview_isoFalse_fps144.mp4",""
"null","","","html-keyboard-response","386","723006","0.0-386.0","x736ef9v","","<span style=""color:Black; font-size:50px;"">Agent B","null","","","","",""
"null","","","video-keyboard-response","387","725769","0.0-387.0","x736ef9v","","","null","","Agent B","scrambled","FOR_REV_BLOBBY_STIM/1592581.bmp_pp100_L3_V1.0_veridical_freeview_isoFalse_fps144_reversed_REAL.mp4",""
"","","","call-function","388","725770","0.0-388.0","x736ef9v","","","","","","","",""
"3410.810000000056","{""judgement"":0}","[0]","survey-likert","389","729182","0.0-389.0","x736ef9v","","","","","","","","0"
"2893.5050000000047","{""confidence"":2}","[0]","survey-likert","390","732076","0.0-390.0","x736ef9v","","","","","","","",""
"","","","call-function","391","732077","0.0-391.0","x736ef9v","","","","","","","",""
"null","","","html-keyboard-response","392","733581","0.0-392.0","x736ef9v","","<span style=""color:Black; font-size:50px;"">Agent A","null","","","","",""
"null","","","video-keyboard-response","393","736413","0.0-393.0","x736ef9v","","","null","","Agent A","veridical","FOR_REV_BLOBBY_STIM/713666.bmp_pp97_L3_V1.0_veridical_freeview_isoFalse_fps144.mp4",""
"null","","","html-keyboard-response","394","737915","0.0-394.0","x736ef9v","","<span style=""color:Black; font-size:50px;"">Agent B","null","","","","",""
"null","","","video-keyboard-response","395","740743","0.0-395.0","x736ef9v","","","null","","Agent B","scrambled","FOR_REV_BLOBBY_STIM/713666.bmp_pp97_L3_V1.0_veridical_freeview_isoFalse_fps144_reversed_REAL.mp4",""
"","","","call-function","396","740744","0.0-396.0","x736ef9v","","","","","","","",""
"1709.4449999999488","{""judgement"":1}","[0]","survey-likert","397","742454","0.0-397.0","x736ef9v","","","","","","","","0"
"1500.2050000000745","{""confidence"":2}","[0]","survey-likert","398","743955","0.0-398.0","x736ef9v","","","","","","","",""
"","","","call-function","399","743956","0.0-399.0","x736ef9v","","","","","","","",""
"null","","","html-keyboard-response","400","745460","0.0-400.0","x736ef9v","","<span style=""color:Black; font-size:50px;"">Agent A","null","","","","",""
"null","","","video-keyboard-response","401","748138","0.0-401.0","x736ef9v","","","null","","Agent A","veridical","FOR_REV_BLOBBY_STIM/285994.bmp_pp92_L3_V1.0_veridical_freeview_isoFalse_fps144.mp4",""
"null","","","html-keyboard-response","402","749644","0.0-402.0","x736ef9v","","<span style=""color:Black; font-size:50px;"">Agent B","null","","","","",""
"null","","","video-keyboard-response","403","752322","0.0-403.0","x736ef9v","","","null","","Agent B","scrambled","FOR_REV_BLOBBY_STIM/285994.bmp_pp92_L3_V1.0_veridical_freeview_isoFalse_fps144_reversed_REAL.mp4",""
"","","","call-function","404","752322","0.0-404.0","x736ef9v","","","","","","","",""
"2163.2299999999814","{""judgement"":0}","[0]","survey-likert","405","754486","0.0-405.0","x736ef9v","","","","","","","","0"
"1615.6999999999534","{""confidence"":3}","[0]","survey-likert","406","756103","0.0-406.0","x736ef9v","","","","","","","",""
"","","","call-function","407","756104","0.0-407.0","x736ef9v","","","","","","","",""
"null","","","html-keyboard-response","408","757605","0.0-408.0","x736ef9v","","<span style=""color:Black; font-size:50px;"">Agent A","null","","","","",""
"null","","","video-keyboard-response","409","760330","0.0-409.0","x736ef9v","","","null","","Agent A","veridical","FOR_REV_BLOBBY_STIM/1591954.bmp_pp62_L2_V1.0_veridical_freeview_isoFalse_fps144.mp4",""
"null","","","html-keyboard-response","410","761836","0.0-410.0","x736ef9v","","<span style=""color:Black; font-size:50px;"">Agent B","null","","","","",""
"null","","","video-keyboard-response","411","764557","0.0-411.0","x736ef9v","","","null","","Agent B","scrambled","FOR_REV_BLOBBY_STIM/1591954.bmp_pp62_L2_V1.0_veridical_freeview_isoFalse_fps144_reversed_REAL.mp4",""
"","","","call-function","412","764557","0.0-412.0","x736ef9v","","","","","","","",""
"2905.2700000000186","{""judgement"":0}","[0]","survey-likert","413","767464","0.0-413.0","x736ef9v","","","","","","","","0"
"1678.8050000000512","{""confidence"":3}","[0]","survey-likert","414","769145","0.0-414.0","x736ef9v","","","","","","","",""
"2513.2449999999953","","","instructions","415","771659","0.0-415.0","x736ef9v","[{""page_index"":0,""viewing_time"":1243.390000000014},{""page_index"":1,""viewing_time"":653.1700000000419},{""page_index"":2,""viewing_time"":616.5349999999162}]","","","","","","",""
"1406.890000000014","","","instructions","416","773067","0.0-416.0","x736ef9v","[{""page_index"":0,""viewing_time"":460.5200000000186},{""page_index"":1,""viewing_time"":399.9450000000652},{""page_index"":2,""viewing_time"":546.0799999999581}]","","","","","","",""
"","","","call-function","417","773068","0.0-417.0","x736ef9v","","","","","","","",""
"null","","","html-keyboard-response","418","774570","0.0-418.0","x736ef9v","","<span style=""color:Black; font-size:50px;"">Agent A","null","","","","",""
"null","","","video-keyboard-response","419","777389","0.0-419.0","x736ef9v","","","null","","Agent A","scrambled","FOR_REV_BLOBBY_STIM/1592657.bmp_pp98_L1_V1.0_veridical_freeview_isoFalse_fps144_reversed_REAL.mp4",""
"null","","","html-keyboard-response","420","778891","0.0-420.0","x736ef9v","","<span style=""color:Black; font-size:50px;"">Agent B","null","","","","",""
"null","","","video-keyboard-response","421","781712","0.0-421.0","x736ef9v","","","null","","Agent B","veridical","FOR_REV_BLOBBY_STIM/1592657.bmp_pp98_L1_V1.0_veridical_freeview_isoFalse_fps144.mp4",""
"","","","call-function","422","781713","0.0-422.0","x736ef9v","","","","","","","",""
"2414.7949999999255","{""judgement"":1}","[0]","survey-likert","423","784129","0.0-423.0","x736ef9v","","","","","","","","1"
"1489.4449999999488","{""confidence"":3}","[0]","survey-likert","424","785620","0.0-424.0","x736ef9v","","","","","","","",""
"","","","call-function","425","785620","0.0-425.0","x736ef9v","","","","","","","",""
"null","","","html-keyboard-response","426","787123","0.0-426.0","x736ef9v","","<span style=""color:Black; font-size:50px;"">Agent A","null","","","","",""
"null","","","video-keyboard-response","427","789840","0.0-427.0","x736ef9v","","","null","","Agent A","scrambled","FOR_REV_BLOBBY_STIM/1159446.bmp_pp60_L3_V1.0_veridical_freeview_isoFalse_fps144_reversed_REAL.mp4",""
"null","","","html-keyboard-response","428","791343","0.0-428.0","x736ef9v","","<span style=""color:Black; font-size:50px;"">Agent B","null","","","","",""
"null","","","video-keyboard-response","429","794057","0.0-429.0","x736ef9v","","","null","","Agent B","veridical","FOR_REV_BLOBBY_STIM/1159446.bmp_pp60_L3_V1.0_veridical_freeview_isoFalse_fps144.mp4",""
"","","","call-function","430","794057","0.0-430.0","x736ef9v","","","","","","","",""
"2118.4899999999907","{""judgement"":1}","[0]","survey-likert","431","796177","0.0-431.0","x736ef9v","","","","","","","","1"
"1770.9599999999627","{""confidence"":2}","[0]","survey-likert","432","797949","0.0-432.0","x736ef9v","","","","","","","",""
"","","","call-function","433","797950","0.0-433.0","x736ef9v","","","","","","","",""
"null","","","html-keyboard-response","434","799451","0.0-434.0","x736ef9v","","<span style=""color:Black; font-size:50px;"">Agent A","null","","","","",""
"null","","","video-keyboard-response","435","802293","0.0-435.0","x736ef9v","","","null","","Agent A","scrambled","FOR_REV_BLOBBY_STIM/1159882.bmp_pp61_L2_V1.0_veridical_freeview_isoFalse_fps144_reversed_REAL.mp4",""
"null","","","html-keyboard-response","436","803798","0.0-436.0","x736ef9v","","<span style=""color:Black; font-size:50px;"">Agent B","null","","","","",""
"null","","","video-keyboard-response","437","806638","0.0-437.0","x736ef9v","","","null","","Agent B","veridical","FOR_REV_BLOBBY_STIM/1159882.bmp_pp61_L2_V1.0_veridical_freeview_isoFalse_fps144.mp4",""
"","","","call-function","438","806638","0.0-438.0","x736ef9v","","","","","","","",""
"3429.609999999986","{""judgement"":1}","[0]","survey-likert","439","810069","0.0-439.0","x736ef9v","","","","","","","","1"
"1444.920000000042","{""confidence"":1}","[0]","survey-likert","440","811515","0.0-440.0","x736ef9v","","","","","","","",""
"","","","call-function","441","811515","0.0-441.0","x736ef9v","","","","","","","",""
"null","","","html-keyboard-response","442","813016","0.0-442.0","x736ef9v","","<span style=""color:Black; font-size:50px;"">Agent A","null","","","","",""
"null","","","video-keyboard-response","443","815649","0.0-443.0","x736ef9v","","","null","","Agent A","scrambled","FOR_REV_BLOBBY_STIM/61537.bmp_pp73_L3_V1.0_veridical_freeview_isoFalse_fps144_reversed_REAL.mp4",""
"null","","","html-keyboard-response","444","817151","0.0-444.0","x736ef9v","","<span style=""color:Black; font-size:50px;"">Agent B","null","","","","",""
"null","","","video-keyboard-response","445","819785","0.0-445.0","x736ef9v","","","null","","Agent B","veridical","FOR_REV_BLOBBY_STIM/61537.bmp_pp73_L3_V1.0_veridical_freeview_isoFalse_fps144.mp4",""
"","","","call-function","446","819785","0.0-446.0","x736ef9v","","","","","","","",""
"2287.3850000000093","{""judgement"":1}","[0]","survey-likert","447","822073","0.0-447.0","x736ef9v","","","","","","","","1"
"1267.1450000000186","{""confidence"":1}","[0]","survey-likert","448","823341","0.0-448.0","x736ef9v","","","","","","","",""
"","","","call-function","449","823342","0.0-449.0","x736ef9v","","","","","","","",""
"null","","","html-keyboard-response","450","824848","0.0-450.0","x736ef9v","","<span style=""color:Black; font-size:50px;"">Agent A","null","","","","",""
"null","","","video-keyboard-response","451","827639","0.0-451.0","x736ef9v","","","null","","Agent A","veridical","FOR_REV_BLOBBY_STIM/1159621.bmp_pp92_L3_V1.0_veridical_freeview_isoFalse_fps144.mp4",""
"null","","","html-keyboard-response","452","829141","0.0-452.0","x736ef9v","","<span style=""color:Black; font-size:50px;"">Agent B","null","","","","",""
"null","","","video-keyboard-response","453","831933","0.0-453.0","x736ef9v","","","null","","Agent B","scrambled","FOR_REV_BLOBBY_STIM/1159621.bmp_pp92_L3_V1.0_veridical_freeview_isoFalse_fps144_reversed_REAL.mp4",""
"","","","call-function","454","831934","0.0-454.0","x736ef9v","","","","","","","",""
"4353.275000000023","{""judgement"":0}","[0]","survey-likert","455","836288","0.0-455.0","x736ef9v","","","","","","","","0"
"3059.194999999949","{""confidence"":3}","[0]","survey-likert","456","839349","0.0-456.0","x736ef9v","","","","","","","",""
"","","","call-function","457","839349","0.0-457.0","x736ef9v","","","","","","","",""
"null","","","html-keyboard-response","458","840851","0.0-458.0","x736ef9v","","<span style=""color:Black; font-size:50px;"">Agent A","null","","","","",""
"null","","","video-keyboard-response","459","843377","0.0-459.0","x736ef9v","","","null","","Agent A","scrambled","FOR_REV_BLOBBY_STIM/1591876.bmp_pp63_L1_V1.0_veridical_freeview_isoFalse_fps144_reversed_REAL.mp4",""
"null","","","html-keyboard-response","460","844881","0.0-460.0","x736ef9v","","<span style=""color:Black; font-size:50px;"">Agent B","null","","","","",""
"null","","","video-keyboard-response","461","847408","0.0-461.0","x736ef9v","","","null","","Agent B","veridical","FOR_REV_BLOBBY_STIM/1591876.bmp_pp63_L1_V1.0_veridical_freeview_isoFalse_fps144.mp4",""
"","","","call-function","462","847408","0.0-462.0","x736ef9v","","","","","","","",""
"3209.5350000000326","{""judgement"":1}","[0]","survey-likert","463","850619","0.0-463.0","x736ef9v","","","","","","","","1"
"2597.094999999972","{""confidence"":3}","[0]","survey-likert","464","853217","0.0-464.0","x736ef9v","","","","","","","",""
"","","","call-function","465","853217","0.0-465.0","x736ef9v","","","","","","","",""
"null","","","html-keyboard-response","466","854721","0.0-466.0","x736ef9v","","<span style=""color:Black; font-size:50px;"">Agent A","null","","","","",""
"null","","","video-keyboard-response","467","857511","0.0-467.0","x736ef9v","","","null","","Agent A","scrambled","FOR_REV_BLOBBY_STIM/1592351.bmp_pp51_L1_V1.0_veridical_freeview_isoFalse_fps144_reversed_REAL.mp4",""
"null","","","html-keyboard-response","468","859017","0.0-468.0","x736ef9v","","<span style=""color:Black; font-size:50px;"">Agent B","null","","","","",""
"null","","","video-keyboard-response","469","861809","0.0-469.0","x736ef9v","","","null","","Agent B","veridical","FOR_REV_BLOBBY_STIM/1592351.bmp_pp51_L1_V1.0_veridical_freeview_isoFalse_fps144.mp4",""
"","","","call-function","470","861810","0.0-470.0","x736ef9v","","","","","","","",""
"3101.0350000000326","{""judgement"":1}","[0]","survey-likert","471","864913","0.0-471.0","x736ef9v","","","","","","","","1"
"2131.759999999893","{""confidence"":2}","[0]","survey-likert","472","867046","0.0-472.0","x736ef9v","","","","","","","",""
"","","","call-function","473","867048","0.0-473.0","x736ef9v","","","","","","","",""
"null","","","html-keyboard-response","474","868553","0.0-474.0","x736ef9v","","<span style=""color:Black; font-size:50px;"">Agent A","null","","","","",""
"null","","","video-keyboard-response","475","871324","0.0-475.0","x736ef9v","","","null","","Agent A","veridical","FOR_REV_BLOBBY_STIM/713135.bmp_pp54_L2_V1.0_veridical_freeview_isoFalse_fps144.mp4",""
"null","","","html-keyboard-response","476","872828","0.0-476.0","x736ef9v","","<span style=""color:Black; font-size:50px;"">Agent B","null","","","","",""
"null","","","video-keyboard-response","477","875600","0.0-477.0","x736ef9v","","","null","","Agent B","scrambled","FOR_REV_BLOBBY_STIM/713135.bmp_pp54_L2_V1.0_veridical_freeview_isoFalse_fps144_reversed_REAL.mp4",""
"","","","call-function","478","875600","0.0-478.0","x736ef9v","","","","","","","",""
"1827.0649999999441","{""judgement"":0}","[0]","survey-likert","479","877428","0.0-479.0","x736ef9v","","","","","","","","0"
"1451.2850000000326","{""confidence"":2}","[0]","survey-likert","480","878881","0.0-480.0","x736ef9v","","","","","","","",""
"","","","call-function","481","878881","0.0-481.0","x736ef9v","","","","","","","",""
"null","","","html-keyboard-response","482","880383","0.0-482.0","x736ef9v","","<span style=""color:Black; font-size:50px;"">Agent A","null","","","","",""
"null","","","video-keyboard-response","483","883143","0.0-483.0","x736ef9v","","","null","","Agent A","scrambled","FOR_REV_BLOBBY_STIM/1593041.bmp_pp58_L1_V1.0_veridical_freeview_isoFalse_fps144_reversed_REAL.mp4",""
"null","","","html-keyboard-response","484","884644","0.0-484.0","x736ef9v","","<span style=""color:Black; font-size:50px;"">Agent B","null","","","","",""
"null","","","video-keyboard-response","485","887400","0.0-485.0","x736ef9v","","","null","","Agent B","veridical","FOR_REV_BLOBBY_STIM/1593041.bmp_pp58_L1_V1.0_veridical_freeview_isoFalse_fps144.mp4",""
"","","","call-function","486","887400","0.0-486.0","x736ef9v","","","","","","","",""
"2089.5100000000093","{""judgement"":1}","[0]","survey-likert","487","889490","0.0-487.0","x736ef9v","","","","","","","","1"
"2079.109999999986","{""confidence"":2}","[0]","survey-likert","488","891571","0.0-488.0","x736ef9v","","","","","","","",""
"","","","call-function","489","891571","0.0-489.0","x736ef9v","","","","","","","",""
"null","","","html-keyboard-response","490","893073","0.0-490.0","x736ef9v","","<span style=""color:Black; font-size:50px;"">Agent A","null","","","","",""
"null","","","video-keyboard-response","491","895779","0.0-491.0","x736ef9v","","","null","","Agent A","scrambled","FOR_REV_BLOBBY_STIM/1592133.bmp_pp75_L1_V1.0_veridical_freeview_isoFalse_fps144_reversed_REAL.mp4",""
"null","","","html-keyboard-response","492","897282","0.0-492.0","x736ef9v","","<span style=""color:Black; font-size:50px;"">Agent B","null","","","","",""
"null","","","video-keyboard-response","493","899974","0.0-493.0","x736ef9v","","","null","","Agent B","veridical","FOR_REV_BLOBBY_STIM/1592133.bmp_pp75_L1_V1.0_veridical_freeview_isoFalse_fps144.mp4",""
"","","","call-function","494","899975","0.0-494.0","x736ef9v","","","","","","","",""
"2093.659999999916","{""judgement"":0}","[0]","survey-likert","495","902069","0.0-495.0","x736ef9v","","","","","","","","1"
"2345.9700000000885","{""confidence"":2}","[0]","survey-likert","496","904416","0.0-496.0","x736ef9v","","","","","","","",""
"2548.4949999999953","","","instructions","497","906965","0.0-497.0","x736ef9v","[{""page_index"":0,""viewing_time"":1347.4450000000652},{""page_index"":1,""viewing_time"":691.8950000000186},{""page_index"":2,""viewing_time"":509}]","","","","","","",""
"1199.5600000000559","","","instructions","498","908165","0.0-498.0","x736ef9v","[{""page_index"":0,""viewing_time"":230.80000000004657},{""page_index"":1,""viewing_time"":476.64999999990687},{""page_index"":2,""viewing_time"":492.00500000000466}]","","","","","","",""
"","","","call-function","499","908166","0.0-499.0","x736ef9v","","","","","","","",""
"null","","","html-keyboard-response","500","909668","0.0-500.0","x736ef9v","","<span style=""color:Black; font-size:50px;"">Agent A","null","","","","",""
"null","","","video-keyboard-response","501","912378","0.0-501.0","x736ef9v","","","null","","Agent A","veridical","FOR_REV_BLOBBY_STIM/1160168.bmp_pp53_L2_V1.0_veridical_freeview_isoFalse_fps144.mp4",""
"null","","","html-keyboard-response","502","913885","0.0-502.0","x736ef9v","","<span style=""color:Black; font-size:50px;"">Agent B","null","","","","",""
"null","","","video-keyboard-response","503","916592","0.0-503.0","x736ef9v","","","null","","Agent B","scrambled","FOR_REV_BLOBBY_STIM/1160168.bmp_pp53_L2_V1.0_veridical_freeview_isoFalse_fps144_reversed_REAL.mp4",""
"","","","call-function","504","916593","0.0-504.0","x736ef9v","","","","","","","",""
"1945.7000000000698","{""judgement"":0}","[0]","survey-likert","505","918539","0.0-505.0","x736ef9v","","","","","","","","0"
"1657.1800000000512","{""confidence"":3}","[0]","survey-likert","506","920198","0.0-506.0","x736ef9v","","","","","","","",""
"","","","call-function","507","920198","0.0-507.0","x736ef9v","","","","","","","",""
"null","","","html-keyboard-response","508","921702","0.0-508.0","x736ef9v","","<span style=""color:Black; font-size:50px;"">Agent A","null","","","","",""
"null","","","video-keyboard-response","509","924388","0.0-509.0","x736ef9v","","","null","","Agent A","veridical","FOR_REV_BLOBBY_STIM/713211.bmp_pp100_L3_V1.0_veridical_freeview_isoFalse_fps144.mp4",""
"null","","","html-keyboard-response","510","925892","0.0-510.0","x736ef9v","","<span style=""color:Black; font-size:50px;"">Agent B","null","","","","",""
"null","","","video-keyboard-response","511","928581","0.0-511.0","x736ef9v","","","null","","Agent B","scrambled","FOR_REV_BLOBBY_STIM/713211.bmp_pp100_L3_V1.0_veridical_freeview_isoFalse_fps144_reversed_REAL.mp4",""
"","","","call-function","512","928582","0.0-512.0","x736ef9v","","","","","","","",""
"1781.7050000000745","{""judgement"":0}","[0]","survey-likert","513","930364","0.0-513.0","x736ef9v","","","","","","","","0"
"1961.5100000000093","{""confidence"":3}","[0]","survey-likert","514","932327","0.0-514.0","x736ef9v","","","","","","","",""
"","","","call-function","515","932327","0.0-515.0","x736ef9v","","","","","","","",""
"null","","","html-keyboard-response","516","933829","0.0-516.0","x736ef9v","","<span style=""color:Black; font-size:50px;"">Agent A","null","","","","",""
"null","","","video-keyboard-response","517","936545","0.0-517.0","x736ef9v","","","null","","Agent A","scrambled","FOR_REV_BLOBBY_STIM/498170.bmp_pp153_L3_V1.0_veridical_freeview_isoFalse_fps144_reversed_REAL.mp4",""
"null","","","html-keyboard-response","518","938047","0.0-518.0","x736ef9v","","<span style=""color:Black; font-size:50px;"">Agent B","null","","","","",""
"null","","","video-keyboard-response","519","940763","0.0-519.0","x736ef9v","","","null","","Agent B","veridical","FOR_REV_BLOBBY_STIM/498170.bmp_pp153_L3_V1.0_veridical_freeview_isoFalse_fps144.mp4",""
"","","","call-function","520","940763","0.0-520.0","x736ef9v","","","","","","","",""
"1884.2449999999953","{""judgement"":0}","[0]","survey-likert","521","942648","0.0-521.0","x736ef9v","","","","","","","","1"
"1540.0900000000838","{""confidence"":2}","[0]","survey-likert","522","944190","0.0-522.0","x736ef9v","","","","","","","",""
"","","","call-function","523","944190","0.0-523.0","x736ef9v","","","","","","","",""
"null","","","html-keyboard-response","524","945693","0.0-524.0","x736ef9v","","<span style=""color:Black; font-size:50px;"">Agent A","null","","","","",""
"null","","","video-keyboard-response","525","948336","0.0-525.0","x736ef9v","","","null","","Agent A","veridical","FOR_REV_BLOBBY_STIM/498149.bmp_pp99_L2_V1.0_veridical_freeview_isoFalse_fps144.mp4",""
"null","","","html-keyboard-response","526","949842","0.0-526.0","x736ef9v","","<span style=""color:Black; font-size:50px;"">Agent B","null","","","","",""
"null","","","video-keyboard-response","527","952476","0.0-527.0","x736ef9v","","","null","","Agent B","scrambled","FOR_REV_BLOBBY_STIM/498149.bmp_pp99_L2_V1.0_veridical_freeview_isoFalse_fps144_reversed_REAL.mp4",""
"","","","call-function","528","952477","0.0-528.0","x736ef9v","","","","","","","",""
"3255.179999999935","{""judgement"":0}","[0]","survey-likert","529","955734","0.0-529.0","x736ef9v","","","","","","","","0"
"2120.390000000014","{""confidence"":2}","[0]","survey-likert","530","957856","0.0-530.0","x736ef9v","","","","","","","",""
"","","","call-function","531","957857","0.0-531.0","x736ef9v","","","","","","","",""
"null","","","html-keyboard-response","532","959359","0.0-532.0","x736ef9v","","<span style=""color:Black; font-size:50px;"">Agent A","null","","","","",""
"null","","","video-keyboard-response","533","962086","0.0-533.0","x736ef9v","","","null","","Agent A","veridical","FOR_REV_BLOBBY_STIM/1592619.bmp_pp56_L3_V1.0_veridical_freeview_isoFalse_fps144.mp4",""
"null","","","html-keyboard-response","534","963591","0.0-534.0","x736ef9v","","<span style=""color:Black; font-size:50px;"">Agent B","null","","","","",""
"null","","","video-keyboard-response","535","966320","0.0-535.0","x736ef9v","","","null","","Agent B","scrambled","FOR_REV_BLOBBY_STIM/1592619.bmp_pp56_L3_V1.0_veridical_freeview_isoFalse_fps144_reversed_REAL.mp4",""
"","","","call-function","536","966320","0.0-536.0","x736ef9v","","","","","","","",""
"2378.1549999999115","{""judgement"":1}","[0]","survey-likert","537","968700","0.0-537.0","x736ef9v","","","","","","","","0"
"1586.984999999986","{""confidence"":2}","[0]","survey-likert","538","970288","0.0-538.0","x736ef9v","","","","","","","",""
"","","","call-function","539","970288","0.0-539.0","x736ef9v","","","","","","","",""
"null","","","html-keyboard-response","540","971792","0.0-540.0","x736ef9v","","<span style=""color:Black; font-size:50px;"">Agent A","null","","","","",""
"null","","","video-keyboard-response","541","974611","0.0-541.0","x736ef9v","","","null","","Agent A","veridical","FOR_REV_BLOBBY_STIM/1592807.bmp_pp68_L1_V1.0_veridical_freeview_isoFalse_fps144.mp4",""
"null","","","html-keyboard-response","542","976113","0.0-542.0","x736ef9v","","<span style=""color:Black; font-size:50px;"">Agent B","null","","","","",""
"null","","","video-keyboard-response","543","978930","0.0-543.0","x736ef9v","","","null","","Agent B","scrambled","FOR_REV_BLOBBY_STIM/1592807.bmp_pp68_L1_V1.0_veridical_freeview_isoFalse_fps144_reversed_REAL.mp4",""
"","","","call-function","544","978931","0.0-544.0","x736ef9v","","","","","","","",""
"4431.054999999935","{""judgement"":1}","[0]","survey-likert","545","983363","0.0-545.0","x736ef9v","","","","","","","","0"
"1590.079999999958","{""confidence"":2}","[0]","survey-likert","546","984954","0.0-546.0","x736ef9v","","","","","","","",""
"","","","call-function","547","984955","0.0-547.0","x736ef9v","","","","","","","",""
"null","","","html-keyboard-response","548","986458","0.0-548.0","x736ef9v","","<span style=""color:Black; font-size:50px;"">Agent A","null","","","","",""
"null","","","video-keyboard-response","549","989263","0.0-549.0","x736ef9v","","","null","","Agent A","veridical","FOR_REV_BLOBBY_STIM/1591994.bmp_pp69_L3_V1.0_veridical_freeview_isoFalse_fps144.mp4",""
"null","","","html-keyboard-response","550","990769","0.0-550.0","x736ef9v","","<span style=""color:Black; font-size:50px;"">Agent B","null","","","","",""
"null","","","video-keyboard-response","551","993569","0.0-551.0","x736ef9v","","","null","","Agent B","scrambled","FOR_REV_BLOBBY_STIM/1591994.bmp_pp69_L3_V1.0_veridical_freeview_isoFalse_fps144_reversed_REAL.mp4",""
"","","","call-function","552","993570","0.0-552.0","x736ef9v","","","","","","","",""
"2837","{""judgement"":0}","[0]","survey-likert","553","996408","0.0-553.0","x736ef9v","","","","","","","","0"
"2268.664999999921","{""confidence"":3}","[0]","survey-likert","554","998678","0.0-554.0","x736ef9v","","","","","","","",""
"","","","call-function","555","998678","0.0-555.0","x736ef9v","","","","","","","",""
"null","","","html-keyboard-response","556","1000184","0.0-556.0","x736ef9v","","<span style=""color:Black; font-size:50px;"">Agent A","null","","","","",""
"null","","","video-keyboard-response","557","1002773","0.0-557.0","x736ef9v","","","null","","Agent A","veridical","FOR_REV_BLOBBY_STIM/1592397.bmp_pp85_L3_V1.0_veridical_freeview_isoFalse_fps144.mp4",""
"null","","","html-keyboard-response","558","1004277","0.0-558.0","x736ef9v","","<span style=""color:Black; font-size:50px;"">Agent B","null","","","","",""
"null","","","video-keyboard-response","559","1006864","0.0-559.0","x736ef9v","","","null","","Agent B","scrambled","FOR_REV_BLOBBY_STIM/1592397.bmp_pp85_L3_V1.0_veridical_freeview_isoFalse_fps144_reversed_REAL.mp4",""
"","","","call-function","560","1006864","0.0-560.0","x736ef9v","","","","","","","",""
"1961.329999999958","{""judgement"":1}","[0]","survey-likert","561","1008826","0.0-561.0","x736ef9v","","","","","","","","0"
"1881.2100000000792","{""confidence"":2}","[0]","survey-likert","562","1010708","0.0-562.0","x736ef9v","","","","","","","",""
"","","","call-function","563","1010709","0.0-563.0","x736ef9v","","","","","","","",""
"null","","","html-keyboard-response","564","1012211","0.0-564.0","x736ef9v","","<span style=""color:Black; font-size:50px;"">Agent A","null","","","","",""
"null","","","video-keyboard-response","565","1015057","0.0-565.0","x736ef9v","","","null","","Agent A","scrambled","FOR_REV_BLOBBY_STIM/713593.bmp_pp64_L1_V1.0_veridical_freeview_isoFalse_fps144_reversed_REAL.mp4",""
"null","","","html-keyboard-response","566","1016560","0.0-566.0","x736ef9v","","<span style=""color:Black; font-size:50px;"">Agent B","null","","","","",""
"null","","","video-keyboard-response","567","1019407","0.0-567.0","x736ef9v","","","null","","Agent B","veridical","FOR_REV_BLOBBY_STIM/713593.bmp_pp64_L1_V1.0_veridical_freeview_isoFalse_fps144.mp4",""
"","","","call-function","568","1019407","0.0-568.0","x736ef9v","","","","","","","",""
"1704.7850000000326","{""judgement"":1}","[0]","survey-likert","569","1021113","0.0-569.0","x736ef9v","","","","","","","","1"
"1668.7249999999767","{""confidence"":3}","[0]","survey-likert","570","1022783","0.0-570.0","x736ef9v","","","","","","","",""
"","","","call-function","571","1022783","0.0-571.0","x736ef9v","","","","","","","",""
"null","","","html-keyboard-response","572","1024285","0.0-572.0","x736ef9v","","<span style=""color:Black; font-size:50px;"">Agent A","null","","","","",""
"null","","","video-keyboard-response","573","1026900","0.0-573.0","x736ef9v","","","null","","Agent A","scrambled","FOR_REV_BLOBBY_STIM/713779.bmp_pp152_L2_V1.0_veridical_freeview_isoFalse_fps144_reversed_REAL.mp4",""
"null","","","html-keyboard-response","574","1028403","0.0-574.0","x736ef9v","","<span style=""color:Black; font-size:50px;"">Agent B","null","","","","",""
"null","","","video-keyboard-response","575","1031020","0.0-575.0","x736ef9v","","","null","","Agent B","veridical","FOR_REV_BLOBBY_STIM/713779.bmp_pp152_L2_V1.0_veridical_freeview_isoFalse_fps144.mp4",""
"","","","call-function","576","1031020","0.0-576.0","x736ef9v","","","","","","","",""
"2115.715000000084","{""judgement"":0}","[0]","survey-likert","577","1033137","0.0-577.0","x736ef9v","","","","","","","","1"
"2660.0250000000233","{""confidence"":2}","[0]","survey-likert","578","1035798","0.0-578.0","x736ef9v","","","","","","","",""
"1244.5249999999069","","","instructions","579","1037043","0.0-579.0","x736ef9v","[{""page_index"":0,""viewing_time"":1244.390000000014}]","","","","","","",""
"1556.3100000000559","","","instructions","580","1038599","0.0-580.0","x736ef9v","[{""page_index"":0,""viewing_time"":1556.2099999999627}]","","","","","","",""
"7517.025000000023","{""post-1"":2}","[0]","survey-likert","581","1046118","0.0-581.0","x736ef9v","","","","","","","",""
"7218.925000000163","{""post-1"":0}","[0]","survey-likert","582","1053338","0.0-582.0","x736ef9v","","","","","","","",""
"8243.685000000056","{""post-2"":2}","[0]","survey-likert","583","1061583","0.0-583.0","x736ef9v","","","","","","","",""
"4261.060000000056","{""post-2"":0}","[0]","survey-likert","584","1065846","0.0-584.0","x736ef9v","","","","","","","",""
"7375.10999999987","{""post-3"":3}","[0]","survey-likert","585","1073223","0.0-585.0","x736ef9v","","","","","","","",""
"2870.875","{""post-3"":0}","[0]","survey-likert","586","1076096","0.0-586.0","x736ef9v","","","","","","","",""
"5950.034999999916","{""post-4"":3}","[0]","survey-likert","587","1082047","0.0-587.0","x736ef9v","","","","","","","",""
"2320.2299999999814","{""post-4"":0}","[0]","survey-likert","588","1084369","0.0-588.0","x736ef9v","","","","","","","",""
"6509.255000000121","{""post-5"":0}","[0]","survey-likert","589","1090879","0.0-589.0","x736ef9v","","","","","","","",""
"3259.6649999998044","{""post-5"":3}","[0]","survey-likert","590","1094140","0.0-590.0","x736ef9v","","","","","","","",""
"319021.42500000005","{""Q0"":""Well, my hypothesis from the first experiment was confirmed: A and B are the same movement, but inverted. The processing variables involved mainly people/text vs. other objects or contextual elements, and foreground vs. background. The starting point has to be the person(s) in the picture, especially if in closeup, especially if they are looking at the camera/the viewer. Any text also calls attention first, and larger text is the priority. Humans vs. animals gave me less confidence (e.g. the picture involving the elephant and the rider), and pictures with no people or text in them were also harder to tell, but whichever trajectory that started at the center, or with the largest object, or with the one providing a clue to the scene as a whole, was usually the one I went with.""}","","survey-text","591","1413168","0.0-591.0","x736ef9v","","","","","","","",""
"71142.84999999986","{""Q0"":""When Agent A was the more human one, it was easier to settle for it--but I could imagine the reverse trajectory while watching A, and anticipated that B would be the more human one.""}","","survey-text","592","1484315","0.0-592.0","x736ef9v","","","","","","","",""
"34227.58499999996","{""Q0"":""This second part was far more \""intuitive\"" than the first one, so I'd say there was little/no difficulty.""}","","survey-text","593","1518546","0.0-593.0","x736ef9v","","","","","","","",""
"1276.1350000000093","","","instructions","594","1519823","0.0-594.0","x736ef9v","[{""page_index"":0,""viewing_time"":1276}]","","","","","","",""
"25052.024999999907","{""Experimenter_end"":[""Printed ID# x736ef9v on consent form"",""Given subject SONA credit or payment"",""Given the subject debrief form""]}","[0]","survey-multi-select","595","1544877","0.0-595.0","x736ef9v","","","","","","","",""
