"rt","responses","question_order","trial_type","trial_index","time_elapsed","internal_node_id","ID","view_history","stimulus","key_press","value","agent","condition","image","correct_answer"
"27895.030000000002","{""Experimenter"":[""Confirmed subject's identity"",""Confirmed normal or corrected-to-normal vision"",""Obtained consent (signature and date)"",""Checked the test room lighting"",""Checked computer screen lighting"",""Checked distance from screen to chin rest (50cm)"",""Cleaned and adjusted chin rest"",""Counterbalanced the order of the tasks"",""Opened the experiment in Firefox"",""Made the experiment full screen"",""Encouraged subject to silence phone, put away distractors, etc.""]}","[0]","survey-multi-select","0","27904","0.0-0.0","x9fyxrs9","","","","","","","",""
"20820.145000000004","","","instructions","1","48725","0.0-1.0","x9fyxrs9","[{""page_index"":0,""viewing_time"":20819.990000000005}]","","","","","","",""
"9499.760000000002","","","instructions","2","58226","0.0-2.0","x9fyxrs9","[{""page_index"":0,""viewing_time"":4213.610000000001},{""page_index"":1,""viewing_time"":1276.3050000000003},{""page_index"":2,""viewing_time"":4009.7249999999985}]","","","","","","",""
"2831.720000000001","","","instructions","3","61058","0.0-3.0","x9fyxrs9","[{""page_index"":0,""viewing_time"":2831.5999999999985}]","","","","","","",""
"null","","","video-keyboard-response","4","64131","0.0-4.0","x9fyxrs9","","","null","","","","",""
"18128.03","","","instructions","5","82260","0.0-5.0","x9fyxrs9","[{""page_index"":0,""viewing_time"":5327.059999999998},{""page_index"":1,""viewing_time"":2604.845000000001},{""page_index"":2,""viewing_time"":10196.020000000004}]","","","","","","",""
"3057.2899999999936","","","instructions","6","85318","0.0-6.0","x9fyxrs9","[{""page_index"":0,""viewing_time"":3057.1900000000023}]","","","","","","",""
"1326.6300000000047","","","instructions","7","86645","0.0-7.0","x9fyxrs9","[{""page_index"":0,""viewing_time"":1326.4150000000081}]","","","","","","",""
"null","","","video-keyboard-response","8","89720","0.0-8.0","x9fyxrs9","","","null","","","","",""
"8488.705000000002","","","instructions","9","98209","0.0-9.0","x9fyxrs9","[{""page_index"":0,""viewing_time"":2479.75499999999},{""page_index"":1,""viewing_time"":2820.1050000000105},{""page_index"":2,""viewing_time"":3188.709999999992}]","","","","","","",""
"2073.5449999999983","","","instructions","10","100283","0.0-10.0","x9fyxrs9","[{""page_index"":0,""viewing_time"":2073.429999999993}]","","","","","","",""
"","","","call-function","11","100284","0.0-11.0","x9fyxrs9","","","","","","","",""
"null","","","html-keyboard-response","12","101791","0.0-12.0","x9fyxrs9","","<span style=""color:Black; font-size:50px;"">Agent A","null","","","","",""
"null","","","video-keyboard-response","13","104854","0.0-13.0","x9fyxrs9","","","null","","Agent A","scrambled","STIM_SET_2/285715.bmp_pp67_L2_V1.0_scrambled_freeview_isoTrue.mp4",""
"null","","","html-keyboard-response","14","106358","0.0-14.0","x9fyxrs9","","<span style=""color:Black; font-size:50px;"">Agent B","null","","","","",""
"null","","","video-keyboard-response","15","109420","0.0-15.0","x9fyxrs9","","","null","","Agent B","veridical","STIM_SET_2/285715.bmp_pp67_L2_V1.0_veridical_freeview_isoTrue.mp4",""
"","","","call-function","16","109421","0.0-16.0","x9fyxrs9","","","","","","","",""
"9786.875","{""judgement"":1}","[0]","survey-likert","17","119209","0.0-17.0","x9fyxrs9","","","","","","","","1"
"1475.4700000000012","{""confidence"":2}","[0]","survey-likert","18","120686","0.0-18.0","x9fyxrs9","","","","","","","",""
"","","","call-function","19","120686","0.0-19.0","x9fyxrs9","","","","","","","",""
"null","","","html-keyboard-response","20","122188","0.0-20.0","x9fyxrs9","","<span style=""color:Black; font-size:50px;"">Agent A","null","","","","",""
"null","","","video-keyboard-response","21","125287","0.0-21.0","x9fyxrs9","","","null","","Agent A","veridical","STIM_SET_2/1160204.bmp_pp54_L2_V1.0_veridical_freeview_isoTrue.mp4",""
"null","","","html-keyboard-response","22","126794","0.0-22.0","x9fyxrs9","","<span style=""color:Black; font-size:50px;"">Agent B","null","","","","",""
"null","","","video-keyboard-response","23","129866","0.0-23.0","x9fyxrs9","","","null","","Agent B","scrambled","STIM_SET_2/1160204.bmp_pp54_L2_V1.0_scrambled_freeview_isoTrue.mp4",""
"","","","call-function","24","129867","0.0-24.0","x9fyxrs9","","","","","","","",""
"1924.5849999999919","{""judgement"":0}","[0]","survey-likert","25","131792","0.0-25.0","x9fyxrs9","","","","","","","","0"
"1061.6549999999988","{""confidence"":1}","[0]","survey-likert","26","132855","0.0-26.0","x9fyxrs9","","","","","","","",""
"","","","call-function","27","132856","0.0-27.0","x9fyxrs9","","","","","","","",""
"null","","","html-keyboard-response","28","134362","0.0-28.0","x9fyxrs9","","<span style=""color:Black; font-size:50px;"">Agent A","null","","","","",""
"null","","","video-keyboard-response","29","137459","0.0-29.0","x9fyxrs9","","","null","","Agent A","scrambled","STIM_SET_2/1592025.bmp_pp68_L1_V1.0_scrambled_freeview_isoTrue.mp4",""
"null","","","html-keyboard-response","30","138961","0.0-30.0","x9fyxrs9","","<span style=""color:Black; font-size:50px;"">Agent B","null","","","","",""
"null","","","video-keyboard-response","31","142059","0.0-31.0","x9fyxrs9","","","null","","Agent B","veridical","STIM_SET_2/1592025.bmp_pp68_L1_V1.0_veridical_freeview_isoTrue.mp4",""
"","","","call-function","32","142060","0.0-32.0","x9fyxrs9","","","","","","","",""
"2195.735000000015","{""judgement"":0}","[0]","survey-likert","33","144256","0.0-33.0","x9fyxrs9","","","","","","","","1"
"1101.6849999999977","{""confidence"":2}","[0]","survey-likert","34","145359","0.0-34.0","x9fyxrs9","","","","","","","",""
"","","","call-function","35","145360","0.0-35.0","x9fyxrs9","","","","","","","",""
"null","","","html-keyboard-response","36","146863","0.0-36.0","x9fyxrs9","","<span style=""color:Black; font-size:50px;"">Agent A","null","","","","",""
"null","","","video-keyboard-response","37","149964","0.0-37.0","x9fyxrs9","","","null","","Agent A","scrambled","STIM_SET_2/1592289.bmp_pp92_L3_V1.0_scrambled_freeview_isoTrue.mp4",""
"null","","","html-keyboard-response","38","151467","0.0-38.0","x9fyxrs9","","<span style=""color:Black; font-size:50px;"">Agent B","null","","","","",""
"null","","","video-keyboard-response","39","154541","0.0-39.0","x9fyxrs9","","","null","","Agent B","veridical","STIM_SET_2/1592289.bmp_pp92_L3_V1.0_veridical_freeview_isoTrue.mp4",""
"","","","call-function","40","154541","0.0-40.0","x9fyxrs9","","","","","","","",""
"2661.704999999987","{""judgement"":1}","[0]","survey-likert","41","157204","0.0-41.0","x9fyxrs9","","","","","","","","1"
"732.859999999986","{""confidence"":2}","[0]","survey-likert","42","157938","0.0-42.0","x9fyxrs9","","","","","","","",""
"","","","call-function","43","157939","0.0-43.0","x9fyxrs9","","","","","","","",""
"null","","","html-keyboard-response","44","159445","0.0-44.0","x9fyxrs9","","<span style=""color:Black; font-size:50px;"">Agent A","null","","","","",""
"null","","","video-keyboard-response","45","162545","0.0-45.0","x9fyxrs9","","","null","","Agent A","scrambled","STIM_SET_2/498396.bmp_pp99_L2_V1.0_scrambled_freeview_isoTrue.mp4",""
"null","","","html-keyboard-response","46","164050","0.0-46.0","x9fyxrs9","","<span style=""color:Black; font-size:50px;"">Agent B","null","","","","",""
"null","","","video-keyboard-response","47","167150","0.0-47.0","x9fyxrs9","","","null","","Agent B","veridical","STIM_SET_2/498396.bmp_pp99_L2_V1.0_veridical_freeview_isoTrue.mp4",""
"","","","call-function","48","167151","0.0-48.0","x9fyxrs9","","","","","","","",""
"2002.3099999999977","{""judgement"":0}","[0]","survey-likert","49","169154","0.0-49.0","x9fyxrs9","","","","","","","","1"
"1159.3299999999872","{""confidence"":0}","[0]","survey-likert","50","170315","0.0-50.0","x9fyxrs9","","","","","","","",""
"","","","call-function","51","170315","0.0-51.0","x9fyxrs9","","","","","","","",""
"null","","","html-keyboard-response","52","171819","0.0-52.0","x9fyxrs9","","<span style=""color:Black; font-size:50px;"">Agent A","null","","","","",""
"null","","","video-keyboard-response","53","174894","0.0-53.0","x9fyxrs9","","","null","","Agent A","scrambled","STIM_SET_2/285959.bmp_pp93_L1_V1.0_scrambled_freeview_isoTrue.mp4",""
"null","","","html-keyboard-response","54","176396","0.0-54.0","x9fyxrs9","","<span style=""color:Black; font-size:50px;"">Agent B","null","","","","",""
"null","","","video-keyboard-response","55","179472","0.0-55.0","x9fyxrs9","","","null","","Agent B","veridical","STIM_SET_2/285959.bmp_pp93_L1_V1.0_veridical_freeview_isoTrue.mp4",""
"","","","call-function","56","179473","0.0-56.0","x9fyxrs9","","","","","","","",""
"1908.6449999999895","{""judgement"":0}","[0]","survey-likert","57","181382","0.0-57.0","x9fyxrs9","","","","","","","","1"
"1253.8699999999953","{""confidence"":1}","[0]","survey-likert","58","182637","0.0-58.0","x9fyxrs9","","","","","","","",""
"","","","call-function","59","182638","0.0-59.0","x9fyxrs9","","","","","","","",""
"null","","","html-keyboard-response","60","184139","0.0-60.0","x9fyxrs9","","<span style=""color:Black; font-size:50px;"">Agent A","null","","","","",""
"null","","","video-keyboard-response","61","187240","0.0-61.0","x9fyxrs9","","","null","","Agent A","veridical","STIM_SET_2/1159329.bmp_pp61_L2_V1.0_veridical_freeview_isoTrue.mp4",""
"null","","","html-keyboard-response","62","188743","0.0-62.0","x9fyxrs9","","<span style=""color:Black; font-size:50px;"">Agent B","null","","","","",""
"null","","","video-keyboard-response","63","191846","0.0-63.0","x9fyxrs9","","","null","","Agent B","scrambled","STIM_SET_2/1159329.bmp_pp61_L2_V1.0_scrambled_freeview_isoTrue.mp4",""
"","","","call-function","64","191847","0.0-64.0","x9fyxrs9","","","","","","","",""
"1846.0350000000035","{""judgement"":0}","[0]","survey-likert","65","193695","0.0-65.0","x9fyxrs9","","","","","","","","0"
"2579.4349999999977","{""confidence"":2}","[0]","survey-likert","66","196276","0.0-66.0","x9fyxrs9","","","","","","","",""
"","","","call-function","67","196277","0.0-67.0","x9fyxrs9","","","","","","","",""
"null","","","html-keyboard-response","68","197780","0.0-68.0","x9fyxrs9","","<span style=""color:Black; font-size:50px;"">Agent A","null","","","","",""
"null","","","video-keyboard-response","69","200851","0.0-69.0","x9fyxrs9","","","null","","Agent A","scrambled","STIM_SET_2/1592921.bmp_pp69_L3_V1.0_scrambled_freeview_isoTrue.mp4",""
"null","","","html-keyboard-response","70","202357","0.0-70.0","x9fyxrs9","","<span style=""color:Black; font-size:50px;"">Agent B","null","","","","",""
"null","","","video-keyboard-response","71","205432","0.0-71.0","x9fyxrs9","","","null","","Agent B","veridical","STIM_SET_2/1592921.bmp_pp69_L3_V1.0_veridical_freeview_isoTrue.mp4",""
"","","","call-function","72","205433","0.0-72.0","x9fyxrs9","","","","","","","",""
"1292.6700000000128","{""judgement"":0}","[0]","survey-likert","73","206727","0.0-73.0","x9fyxrs9","","","","","","","","1"
"844.4250000000175","{""confidence"":1}","[0]","survey-likert","74","207572","0.0-74.0","x9fyxrs9","","","","","","","",""
"","","","call-function","75","207573","0.0-75.0","x9fyxrs9","","","","","","","",""
"null","","","html-keyboard-response","76","209078","0.0-76.0","x9fyxrs9","","<span style=""color:Black; font-size:50px;"">Agent A","null","","","","",""
"null","","","video-keyboard-response","77","212141","0.0-77.0","x9fyxrs9","","","null","","Agent A","veridical","STIM_SET_2/498398.bmp_pp81_L1_V1.0_veridical_freeview_isoTrue.mp4",""
"null","","","html-keyboard-response","78","213643","0.0-78.0","x9fyxrs9","","<span style=""color:Black; font-size:50px;"">Agent B","null","","","","",""
"null","","","video-keyboard-response","79","216706","0.0-79.0","x9fyxrs9","","","null","","Agent B","scrambled","STIM_SET_2/498398.bmp_pp81_L1_V1.0_scrambled_freeview_isoTrue.mp4",""
"","","","call-function","80","216707","0.0-80.0","x9fyxrs9","","","","","","","",""
"1821.5750000000116","{""judgement"":1}","[0]","survey-likert","81","218529","0.0-81.0","x9fyxrs9","","","","","","","","0"
"1144.7950000000128","{""confidence"":2}","[0]","survey-likert","82","219675","0.0-82.0","x9fyxrs9","","","","","","","",""
"","","","call-function","83","219676","0.0-83.0","x9fyxrs9","","","","","","","",""
"null","","","html-keyboard-response","84","221178","0.0-84.0","x9fyxrs9","","<span style=""color:Black; font-size:50px;"">Agent A","null","","","","",""
"null","","","video-keyboard-response","85","224275","0.0-85.0","x9fyxrs9","","","null","","Agent A","scrambled","STIM_SET_2/1592150.bmp_pp77_L3_V1.0_scrambled_freeview_isoTrue.mp4",""
"null","","","html-keyboard-response","86","225783","0.0-86.0","x9fyxrs9","","<span style=""color:Black; font-size:50px;"">Agent B","null","","","","",""
"null","","","video-keyboard-response","87","228881","0.0-87.0","x9fyxrs9","","","null","","Agent B","veridical","STIM_SET_2/1592150.bmp_pp77_L3_V1.0_veridical_freeview_isoTrue.mp4",""
"","","","call-function","88","228881","0.0-88.0","x9fyxrs9","","","","","","","",""
"13218.579999999987","{""judgement"":0}","[0]","survey-likert","89","242101","0.0-89.0","x9fyxrs9","","","","","","","","1"
"935.5950000000012","{""confidence"":1}","[0]","survey-likert","90","243037","0.0-90.0","x9fyxrs9","","","","","","","",""
"1498.6900000000023","","","instructions","91","244537","0.0-91.0","x9fyxrs9","[{""page_index"":0,""viewing_time"":902.6549999999988},{""page_index"":1,""viewing_time"":301.82500000001164},{""page_index"":2,""viewing_time"":294.00499999997555}]","","","","","","",""
"1044.1749999999884","","","instructions","92","245581","0.0-92.0","x9fyxrs9","[{""page_index"":0,""viewing_time"":314.2600000000093},{""page_index"":1,""viewing_time"":360.9199999999837},{""page_index"":2,""viewing_time"":368.8950000000186}]","","","","","","",""
"","","","call-function","93","245582","0.0-93.0","x9fyxrs9","","","","","","","",""
"null","","","html-keyboard-response","94","247084","0.0-94.0","x9fyxrs9","","<span style=""color:Black; font-size:50px;"">Agent A","null","","","","",""
"null","","","video-keyboard-response","95","250186","0.0-95.0","x9fyxrs9","","","null","","Agent A","scrambled","STIM_SET_2/498372.bmp_pp95_L2_V1_scrambled_freeview_isoTrue.mp4",""
"null","","","html-keyboard-response","96","251691","0.0-96.0","x9fyxrs9","","<span style=""color:Black; font-size:50px;"">Agent B","null","","","","",""
"null","","","video-keyboard-response","97","254793","0.0-97.0","x9fyxrs9","","","null","","Agent B","veridical","STIM_SET_2/498372.bmp_pp95_L2_V1_veridical_freeview_isoTrue.mp4",""
"","","","call-function","98","254793","0.0-98.0","x9fyxrs9","","","","","","","",""
"1738.2949999999837","{""judgement"":1}","[0]","survey-likert","99","256532","0.0-99.0","x9fyxrs9","","","","","","","","1"
"872.1499999999942","{""confidence"":2}","[0]","survey-likert","100","257406","0.0-100.0","x9fyxrs9","","","","","","","",""
"","","","call-function","101","257406","0.0-101.0","x9fyxrs9","","","","","","","",""
"null","","","html-keyboard-response","102","258909","0.0-102.0","x9fyxrs9","","<span style=""color:Black; font-size:50px;"">Agent A","null","","","","",""
"null","","","video-keyboard-response","103","262010","0.0-103.0","x9fyxrs9","","","null","","Agent A","scrambled","STIM_SET_2/150463.bmp_pp55_L3_V1.0_scrambled_freeview_isoTrue.mp4",""
"null","","","html-keyboard-response","104","263514","0.0-104.0","x9fyxrs9","","<span style=""color:Black; font-size:50px;"">Agent B","null","","","","",""
"null","","","video-keyboard-response","105","266586","0.0-105.0","x9fyxrs9","","","null","","Agent B","veridical","STIM_SET_2/150463.bmp_pp55_L3_V1.0_veridical_freeview_isoTrue.mp4",""
"","","","call-function","106","266586","0.0-106.0","x9fyxrs9","","","","","","","",""
"1821.1749999999884","{""judgement"":1}","[0]","survey-likert","107","268408","0.0-107.0","x9fyxrs9","","","","","","","","1"
"1887.265000000014","{""confidence"":2}","[0]","survey-likert","108","270297","0.0-108.0","x9fyxrs9","","","","","","","",""
"","","","call-function","109","270297","0.0-109.0","x9fyxrs9","","","","","","","",""
"null","","","html-keyboard-response","110","271799","0.0-110.0","x9fyxrs9","","<span style=""color:Black; font-size:50px;"">Agent A","null","","","","",""
"null","","","video-keyboard-response","111","274881","0.0-111.0","x9fyxrs9","","","null","","Agent A","veridical","STIM_SET_2/1592168.bmp_pp71_L1_V1.0_veridical_freeview_isoTrue.mp4",""
"null","","","html-keyboard-response","112","276383","0.0-112.0","x9fyxrs9","","<span style=""color:Black; font-size:50px;"">Agent B","null","","","","",""
"null","","","video-keyboard-response","113","279459","0.0-113.0","x9fyxrs9","","","null","","Agent B","scrambled","STIM_SET_2/1592168.bmp_pp71_L1_V1.0_scrambled_freeview_isoTrue.mp4",""
"","","","call-function","114","279460","0.0-114.0","x9fyxrs9","","","","","","","",""
"1511.2850000000326","{""judgement"":1}","[0]","survey-likert","115","280972","0.0-115.0","x9fyxrs9","","","","","","","","0"
"981.4500000000116","{""confidence"":2}","[0]","survey-likert","116","281955","0.0-116.0","x9fyxrs9","","","","","","","",""
"","","","call-function","117","281956","0.0-117.0","x9fyxrs9","","","","","","","",""
"null","","","html-keyboard-response","118","283460","0.0-118.0","x9fyxrs9","","<span style=""color:Black; font-size:50px;"">Agent A","null","","","","",""
"null","","","video-keyboard-response","119","286532","0.0-119.0","x9fyxrs9","","","null","","Agent A","veridical","STIM_SET_2/1159508.bmp_pp151_L1_V1.0_veridical_freeview_isoTrue.mp4",""
"null","","","html-keyboard-response","120","288034","0.0-120.0","x9fyxrs9","","<span style=""color:Black; font-size:50px;"">Agent B","null","","","","",""
"null","","","video-keyboard-response","121","291129","0.0-121.0","x9fyxrs9","","","null","","Agent B","scrambled","STIM_SET_2/1159508.bmp_pp151_L1_V1.0_scrambled_freeview_isoTrue.mp4",""
"","","","call-function","122","291129","0.0-122.0","x9fyxrs9","","","","","","","",""
"1245.469999999972","{""judgement"":0}","[0]","survey-likert","123","292375","0.0-123.0","x9fyxrs9","","","","","","","","0"
"932.1200000000536","{""confidence"":3}","[0]","survey-likert","124","293309","0.0-124.0","x9fyxrs9","","","","","","","",""
"","","","call-function","125","293309","0.0-125.0","x9fyxrs9","","","","","","","",""
"null","","","html-keyboard-response","126","294814","0.0-126.0","x9fyxrs9","","<span style=""color:Black; font-size:50px;"">Agent A","null","","","","",""
"null","","","video-keyboard-response","127","297914","0.0-127.0","x9fyxrs9","","","null","","Agent A","scrambled","STIM_SET_2/1160247.bmp_pp54_L2_V1.0_scrambled_freeview_isoTrue.mp4",""
"null","","","html-keyboard-response","128","299418","0.0-128.0","x9fyxrs9","","<span style=""color:Black; font-size:50px;"">Agent B","null","","","","",""
"null","","","video-keyboard-response","129","302516","0.0-129.0","x9fyxrs9","","","null","","Agent B","veridical","STIM_SET_2/1160247.bmp_pp54_L2_V1.0_veridical_freeview_isoTrue.mp4",""
"","","","call-function","130","302516","0.0-130.0","x9fyxrs9","","","","","","","",""
"1763.5350000000326","{""judgement"":1}","[0]","survey-likert","131","304281","0.0-131.0","x9fyxrs9","","","","","","","","1"
"752.0450000000419","{""confidence"":3}","[0]","survey-likert","132","305034","0.0-132.0","x9fyxrs9","","","","","","","",""
"","","","call-function","133","305035","0.0-133.0","x9fyxrs9","","","","","","","",""
"null","","","html-keyboard-response","134","306539","0.0-134.0","x9fyxrs9","","<span style=""color:Black; font-size:50px;"">Agent A","null","","","","",""
"null","","","video-keyboard-response","135","309607","0.0-135.0","x9fyxrs9","","","null","","Agent A","scrambled","STIM_SET_2/1592568.bmp_pp71_L1_V1.0_scrambled_freeview_isoTrue.mp4",""
"null","","","html-keyboard-response","136","311112","0.0-136.0","x9fyxrs9","","<span style=""color:Black; font-size:50px;"">Agent B","null","","","","",""
"null","","","video-keyboard-response","137","314218","0.0-137.0","x9fyxrs9","","","null","","Agent B","veridical","STIM_SET_2/1592568.bmp_pp71_L1_V1.0_veridical_freeview_isoTrue.mp4",""
"","","","call-function","138","314219","0.0-138.0","x9fyxrs9","","","","","","","",""
"2440.0050000000047","{""judgement"":1}","[0]","survey-likert","139","316660","0.0-139.0","x9fyxrs9","","","","","","","","1"
"1450.789999999979","{""confidence"":3}","[0]","survey-likert","140","318111","0.0-140.0","x9fyxrs9","","","","","","","",""
"","","","call-function","141","318112","0.0-141.0","x9fyxrs9","","","","","","","",""
"null","","","html-keyboard-response","142","319618","0.0-142.0","x9fyxrs9","","<span style=""color:Black; font-size:50px;"">Agent A","null","","","","",""
"null","","","video-keyboard-response","143","322728","0.0-143.0","x9fyxrs9","","","null","","Agent A","scrambled","STIM_SET_2/713742.bmp_pp91_L3_V1.0_scrambled_freeview_isoTrue.mp4",""
"null","","","html-keyboard-response","144","324230","0.0-144.0","x9fyxrs9","","<span style=""color:Black; font-size:50px;"">Agent B","null","","","","",""
"null","","","video-keyboard-response","145","327337","0.0-145.0","x9fyxrs9","","","null","","Agent B","veridical","STIM_SET_2/713742.bmp_pp91_L3_V1.0_veridical_freeview_isoTrue.mp4",""
"","","","call-function","146","327337","0.0-146.0","x9fyxrs9","","","","","","","",""
"1374.9650000000256","{""judgement"":1}","[0]","survey-likert","147","328713","0.0-147.0","x9fyxrs9","","","","","","","","1"
"1375.7949999999837","{""confidence"":3}","[0]","survey-likert","148","330091","0.0-148.0","x9fyxrs9","","","","","","","",""
"","","","call-function","149","330093","0.0-149.0","x9fyxrs9","","","","","","","",""
"null","","","html-keyboard-response","150","331597","0.0-150.0","x9fyxrs9","","<span style=""color:Black; font-size:50px;"">Agent A","null","","","","",""
"null","","","video-keyboard-response","151","334673","0.0-151.0","x9fyxrs9","","","null","","Agent A","veridical","STIM_SET_2/1591781.bmp_pp63_L1_V1.0_veridical_freeview_isoTrue.mp4",""
"null","","","html-keyboard-response","152","336180","0.0-152.0","x9fyxrs9","","<span style=""color:Black; font-size:50px;"">Agent B","null","","","","",""
"null","","","video-keyboard-response","153","339262","0.0-153.0","x9fyxrs9","","","null","","Agent B","scrambled","STIM_SET_2/1591781.bmp_pp63_L1_V1.0_scrambled_freeview_isoTrue.mp4",""
"","","","call-function","154","339263","0.0-154.0","x9fyxrs9","","","","","","","",""
"2449.734999999986","{""judgement"":0}","[0]","survey-likert","155","341714","0.0-155.0","x9fyxrs9","","","","","","","","0"
"879.570000000007","{""confidence"":2}","[0]","survey-likert","156","342595","0.0-156.0","x9fyxrs9","","","","","","","",""
"","","","call-function","157","342596","0.0-157.0","x9fyxrs9","","","","","","","",""
"null","","","html-keyboard-response","158","344100","0.0-158.0","x9fyxrs9","","<span style=""color:Black; font-size:50px;"">Agent A","null","","","","",""
"null","","","video-keyboard-response","159","347179","0.0-159.0","x9fyxrs9","","","null","","Agent A","veridical","STIM_SET_2/498025.bmp_pp81_L1_V1.0_veridical_freeview_isoTrue.mp4",""
"null","","","html-keyboard-response","160","348683","0.0-160.0","x9fyxrs9","","<span style=""color:Black; font-size:50px;"">Agent B","null","","","","",""
"null","","","video-keyboard-response","161","351758","0.0-161.0","x9fyxrs9","","","null","","Agent B","scrambled","STIM_SET_2/498025.bmp_pp81_L1_V1.0_scrambled_freeview_isoTrue.mp4",""
"","","","call-function","162","351759","0.0-162.0","x9fyxrs9","","","","","","","",""
"2096.0349999999744","{""judgement"":0}","[0]","survey-likert","163","353856","0.0-163.0","x9fyxrs9","","","","","","","","0"
"1300.6750000000466","{""confidence"":2}","[0]","survey-likert","164","355158","0.0-164.0","x9fyxrs9","","","","","","","",""
"","","","call-function","165","355158","0.0-165.0","x9fyxrs9","","","","","","","",""
"null","","","html-keyboard-response","166","356661","0.0-166.0","x9fyxrs9","","<span style=""color:Black; font-size:50px;"">Agent A","null","","","","",""
"null","","","video-keyboard-response","167","359759","0.0-167.0","x9fyxrs9","","","null","","Agent A","veridical","STIM_SET_2/1592857.bmp_pp52_L1_V1_veridical_freeview_isoTrue.mp4",""
"null","","","html-keyboard-response","168","361262","0.0-168.0","x9fyxrs9","","<span style=""color:Black; font-size:50px;"">Agent B","null","","","","",""
"null","","","video-keyboard-response","169","364363","0.0-169.0","x9fyxrs9","","","null","","Agent B","scrambled","STIM_SET_2/1592857.bmp_pp52_L1_V1_scrambled_freeview_isoTrue.mp4",""
"","","","call-function","170","364364","0.0-170.0","x9fyxrs9","","","","","","","",""
"2098.085000000021","{""judgement"":1}","[0]","survey-likert","171","366463","0.0-171.0","x9fyxrs9","","","","","","","","0"
"988.7649999999558","{""confidence"":2}","[0]","survey-likert","172","367454","0.0-172.0","x9fyxrs9","","","","","","","",""
"1154.9799999999814","","","instructions","173","368609","0.0-173.0","x9fyxrs9","[{""page_index"":0,""viewing_time"":810.3549999999814},{""page_index"":1,""viewing_time"":215.34999999997672},{""page_index"":2,""viewing_time"":128.93499999999767}]","","","","","","",""
"632.8850000000093","","","instructions","174","369243","0.0-174.0","x9fyxrs9","[{""page_index"":0,""viewing_time"":115.18000000005122},{""page_index"":1,""viewing_time"":109.9199999999837},{""page_index"":2,""viewing_time"":407.679999999993}]","","","","","","",""
"","","","call-function","175","369243","0.0-175.0","x9fyxrs9","","","","","","","",""
"null","","","html-keyboard-response","176","370744","0.0-176.0","x9fyxrs9","","<span style=""color:Black; font-size:50px;"">Agent A","null","","","","",""
"null","","","video-keyboard-response","177","373805","0.0-177.0","x9fyxrs9","","","null","","Agent A","scrambled","STIM_SET_2/1592298.bmp_pp56_L3_V1.0_scrambled_freeview_isoTrue.mp4",""
"null","","","html-keyboard-response","178","375308","0.0-178.0","x9fyxrs9","","<span style=""color:Black; font-size:50px;"">Agent B","null","","","","",""
"null","","","video-keyboard-response","179","378411","0.0-179.0","x9fyxrs9","","","null","","Agent B","veridical","STIM_SET_2/1592298.bmp_pp56_L3_V1.0_veridical_freeview_isoTrue.mp4",""
"","","","call-function","180","378412","0.0-180.0","x9fyxrs9","","","","","","","",""
"1815.0750000000116","{""judgement"":1}","[0]","survey-likert","181","380227","0.0-181.0","x9fyxrs9","","","","","","","","1"
"1001.9550000000163","{""confidence"":2}","[0]","survey-likert","182","381231","0.0-182.0","x9fyxrs9","","","","","","","",""
"","","","call-function","183","381231","0.0-183.0","x9fyxrs9","","","","","","","",""
"null","","","html-keyboard-response","184","382733","0.0-184.0","x9fyxrs9","","<span style=""color:Black; font-size:50px;"">Agent A","null","","","","",""
"null","","","video-keyboard-response","185","385836","0.0-185.0","x9fyxrs9","","","null","","Agent A","scrambled","STIM_SET_2/713274.bmp_pp73_L3_V1.0_scrambled_freeview_isoTrue.mp4",""
"null","","","html-keyboard-response","186","387340","0.0-186.0","x9fyxrs9","","<span style=""color:Black; font-size:50px;"">Agent B","null","","","","",""
"null","","","video-keyboard-response","187","390442","0.0-187.0","x9fyxrs9","","","null","","Agent B","veridical","STIM_SET_2/713274.bmp_pp73_L3_V1.0_veridical_freeview_isoTrue.mp4",""
"","","","call-function","188","390442","0.0-188.0","x9fyxrs9","","","","","","","",""
"1035.0999999999767","{""judgement"":1}","[0]","survey-likert","189","391479","0.0-189.0","x9fyxrs9","","","","","","","","1"
"1032.804999999993","{""confidence"":1}","[0]","survey-likert","190","392513","0.0-190.0","x9fyxrs9","","","","","","","",""
"","","","call-function","191","392513","0.0-191.0","x9fyxrs9","","","","","","","",""
"null","","","html-keyboard-response","192","394017","0.0-192.0","x9fyxrs9","","<span style=""color:Black; font-size:50px;"">Agent A","null","","","","",""
"null","","","video-keyboard-response","193","397116","0.0-193.0","x9fyxrs9","","","null","","Agent A","veridical","STIM_SET_2/1159819.bmp_pp151_L1_V1.0_veridical_freeview_isoTrue.mp4",""
"null","","","html-keyboard-response","194","398621","0.0-194.0","x9fyxrs9","","<span style=""color:Black; font-size:50px;"">Agent B","null","","","","",""
"null","","","video-keyboard-response","195","401693","0.0-195.0","x9fyxrs9","","","null","","Agent B","scrambled","STIM_SET_2/1159819.bmp_pp151_L1_V1.0_scrambled_freeview_isoTrue.mp4",""
"","","","call-function","196","401694","0.0-196.0","x9fyxrs9","","","","","","","",""
"1520.030000000028","{""judgement"":0}","[0]","survey-likert","197","403215","0.0-197.0","x9fyxrs9","","","","","","","","0"
"988.9000000000233","{""confidence"":2}","[0]","survey-likert","198","404205","0.0-198.0","x9fyxrs9","","","","","","","",""
"","","","call-function","199","404205","0.0-199.0","x9fyxrs9","","","","","","","",""
"null","","","html-keyboard-response","200","405711","0.0-200.0","x9fyxrs9","","<span style=""color:Black; font-size:50px;"">Agent A","null","","","","",""
"null","","","video-keyboard-response","201","408782","0.0-201.0","x9fyxrs9","","","null","","Agent A","scrambled","STIM_SET_2/1159427.bmp_pp98_L1_V1.0_scrambled_freeview_isoTrue.mp4",""
"null","","","html-keyboard-response","202","410286","0.0-202.0","x9fyxrs9","","<span style=""color:Black; font-size:50px;"">Agent B","null","","","","",""
"null","","","video-keyboard-response","203","413356","0.0-203.0","x9fyxrs9","","","null","","Agent B","veridical","STIM_SET_2/1159427.bmp_pp98_L1_V1.0_veridical_freeview_isoTrue.mp4",""
"","","","call-function","204","413356","0.0-204.0","x9fyxrs9","","","","","","","",""
"1897.7200000000303","{""judgement"":0}","[0]","survey-likert","205","415255","0.0-205.0","x9fyxrs9","","","","","","","","1"
"836.75","{""confidence"":1}","[0]","survey-likert","206","416093","0.0-206.0","x9fyxrs9","","","","","","","",""
"","","","call-function","207","416093","0.0-207.0","x9fyxrs9","","","","","","","",""
"null","","","html-keyboard-response","208","417598","0.0-208.0","x9fyxrs9","","<span style=""color:Black; font-size:50px;"">Agent A","null","","","","",""
"null","","","video-keyboard-response","209","420670","0.0-209.0","x9fyxrs9","","","null","","Agent A","scrambled","STIM_SET_2/1592350.bmp_pp55_L3_V1.0_scrambled_freeview_isoTrue.mp4",""
"null","","","html-keyboard-response","210","422175","0.0-210.0","x9fyxrs9","","<span style=""color:Black; font-size:50px;"">Agent B","null","","","","",""
"null","","","video-keyboard-response","211","425274","0.0-211.0","x9fyxrs9","","","null","","Agent B","veridical","STIM_SET_2/1592350.bmp_pp55_L3_V1.0_veridical_freeview_isoTrue.mp4",""
"","","","call-function","212","425275","0.0-212.0","x9fyxrs9","","","","","","","",""
"1308.109999999986","{""judgement"":0}","[0]","survey-likert","213","426584","0.0-213.0","x9fyxrs9","","","","","","","","1"
"1124.8549999999814","{""confidence"":1}","[0]","survey-likert","214","427710","0.0-214.0","x9fyxrs9","","","","","","","",""
"","","","call-function","215","427710","0.0-215.0","x9fyxrs9","","","","","","","",""
"null","","","html-keyboard-response","216","429214","0.0-216.0","x9fyxrs9","","<span style=""color:Black; font-size:50px;"">Agent A","null","","","","",""
"null","","","video-keyboard-response","217","432310","0.0-217.0","x9fyxrs9","","","null","","Agent A","scrambled","STIM_SET_2/1159973.bmp_pp98_L1_V1.0_scrambled_freeview_isoTrue.mp4",""
"null","","","html-keyboard-response","218","433812","0.0-218.0","x9fyxrs9","","<span style=""color:Black; font-size:50px;"">Agent B","null","","","","",""
"null","","","video-keyboard-response","219","436906","0.0-219.0","x9fyxrs9","","","null","","Agent B","veridical","STIM_SET_2/1159973.bmp_pp98_L1_V1.0_veridical_freeview_isoTrue.mp4",""
"","","","call-function","220","436906","0.0-220.0","x9fyxrs9","","","","","","","",""
"1347.984999999986","{""judgement"":0}","[0]","survey-likert","221","438255","0.0-221.0","x9fyxrs9","","","","","","","","1"
"1006.2399999999907","{""confidence"":3}","[0]","survey-likert","222","439263","0.0-222.0","x9fyxrs9","","","","","","","",""
"","","","call-function","223","439263","0.0-223.0","x9fyxrs9","","","","","","","",""
"null","","","html-keyboard-response","224","440765","0.0-224.0","x9fyxrs9","","<span style=""color:Black; font-size:50px;"">Agent A","null","","","","",""
"null","","","video-keyboard-response","225","443858","0.0-225.0","x9fyxrs9","","","null","","Agent A","veridical","STIM_SET_2/286034.bmp_pp69_L3_V1.0_veridical_freeview_isoTrue.mp4",""
"null","","","html-keyboard-response","226","445362","0.0-226.0","x9fyxrs9","","<span style=""color:Black; font-size:50px;"">Agent B","null","","","","",""
"null","","","video-keyboard-response","227","448451","0.0-227.0","x9fyxrs9","","","null","","Agent B","scrambled","STIM_SET_2/286034.bmp_pp69_L3_V1.0_scrambled_freeview_isoTrue.mp4",""
"","","","call-function","228","448452","0.0-228.0","x9fyxrs9","","","","","","","",""
"1183.524999999965","{""judgement"":0}","[0]","survey-likert","229","449636","0.0-229.0","x9fyxrs9","","","","","","","","0"
"1432.6149999999907","{""confidence"":2}","[0]","survey-likert","230","451070","0.0-230.0","x9fyxrs9","","","","","","","",""
"","","","call-function","231","451071","0.0-231.0","x9fyxrs9","","","","","","","",""
"null","","","html-keyboard-response","232","452577","0.0-232.0","x9fyxrs9","","<span style=""color:Black; font-size:50px;"">Agent A","null","","","","",""
"null","","","video-keyboard-response","233","455641","0.0-233.0","x9fyxrs9","","","null","","Agent A","veridical","STIM_SET_2/61513.bmp_pp75_L1_V1.0_veridical_freeview_isoTrue.mp4",""
"null","","","html-keyboard-response","234","457143","0.0-234.0","x9fyxrs9","","<span style=""color:Black; font-size:50px;"">Agent B","null","","","","",""
"null","","","video-keyboard-response","235","460205","0.0-235.0","x9fyxrs9","","","null","","Agent B","scrambled","STIM_SET_2/61513.bmp_pp75_L1_V1.0_scrambled_freeview_isoTrue.mp4",""
"","","","call-function","236","460206","0.0-236.0","x9fyxrs9","","","","","","","",""
"1600.4649999999674","{""judgement"":0}","[0]","survey-likert","237","461807","0.0-237.0","x9fyxrs9","","","","","","","","0"
"2059.6849999999977","{""confidence"":1}","[0]","survey-likert","238","463868","0.0-238.0","x9fyxrs9","","","","","","","",""
"","","","call-function","239","463869","0.0-239.0","x9fyxrs9","","","","","","","",""
"null","","","html-keyboard-response","240","465370","0.0-240.0","x9fyxrs9","","<span style=""color:Black; font-size:50px;"">Agent A","null","","","","",""
"null","","","video-keyboard-response","241","468438","0.0-241.0","x9fyxrs9","","","null","","Agent A","scrambled","STIM_SET_2/1160049.bmp_pp53_L2_V1.0_scrambled_freeview_isoTrue.mp4",""
"null","","","html-keyboard-response","242","469943","0.0-242.0","x9fyxrs9","","<span style=""color:Black; font-size:50px;"">Agent B","null","","","","",""
"null","","","video-keyboard-response","243","473012","0.0-243.0","x9fyxrs9","","","null","","Agent B","veridical","STIM_SET_2/1160049.bmp_pp53_L2_V1.0_veridical_freeview_isoTrue.mp4",""
"","","","call-function","244","473013","0.0-244.0","x9fyxrs9","","","","","","","",""
"2326.7449999999953","{""judgement"":1}","[0]","survey-likert","245","475341","0.0-245.0","x9fyxrs9","","","","","","","","1"
"1925.515000000014","{""confidence"":1}","[0]","survey-likert","246","477269","0.0-246.0","x9fyxrs9","","","","","","","",""
"","","","call-function","247","477270","0.0-247.0","x9fyxrs9","","","","","","","",""
"null","","","html-keyboard-response","248","478774","0.0-248.0","x9fyxrs9","","<span style=""color:Black; font-size:50px;"">Agent A","null","","","","",""
"null","","","video-keyboard-response","249","481842","0.0-249.0","x9fyxrs9","","","null","","Agent A","veridical","STIM_SET_2/1592129.bmp_pp153_L3_V1.0_veridical_freeview_isoTrue.mp4",""
"null","","","html-keyboard-response","250","483346","0.0-250.0","x9fyxrs9","","<span style=""color:Black; font-size:50px;"">Agent B","null","","","","",""
"null","","","video-keyboard-response","251","486418","0.0-251.0","x9fyxrs9","","","null","","Agent B","scrambled","STIM_SET_2/1592129.bmp_pp153_L3_V1.0_scrambled_freeview_isoTrue.mp4",""
"","","","call-function","252","486418","0.0-252.0","x9fyxrs9","","","","","","","",""
"2091.8349999999627","{""judgement"":1}","[0]","survey-likert","253","488511","0.0-253.0","x9fyxrs9","","","","","","","","0"
"847.4099999999744","{""confidence"":2}","[0]","survey-likert","254","489360","0.0-254.0","x9fyxrs9","","","","","","","",""
"1096.780000000028","","","instructions","255","490458","0.0-255.0","x9fyxrs9","[{""page_index"":0,""viewing_time"":888.2200000000303},{""page_index"":1,""viewing_time"":121.26000000000931},{""page_index"":2,""viewing_time"":87.08499999996275}]","","","","","","",""
"551.3600000000442","","","instructions","256","491010","0.0-256.0","x9fyxrs9","[{""page_index"":0,""viewing_time"":90.14500000001863},{""page_index"":1,""viewing_time"":221.00500000000466},{""page_index"":2,""viewing_time"":240.09499999997206}]","","","","","","",""
"","","","call-function","257","491011","0.0-257.0","x9fyxrs9","","","","","","","",""
"null","","","html-keyboard-response","258","492517","0.0-258.0","x9fyxrs9","","<span style=""color:Black; font-size:50px;"">Agent A","null","","","","",""
"null","","","video-keyboard-response","259","495593","0.0-259.0","x9fyxrs9","","","null","","Agent A","veridical","STIM_SET_2/150277.bmp_pp65_L3_V1.0_veridical_freeview_isoTrue.mp4",""
"null","","","html-keyboard-response","260","497099","0.0-260.0","x9fyxrs9","","<span style=""color:Black; font-size:50px;"">Agent B","null","","","","",""
"null","","","video-keyboard-response","261","500170","0.0-261.0","x9fyxrs9","","","null","","Agent B","scrambled","STIM_SET_2/150277.bmp_pp65_L3_V1.0_scrambled_freeview_isoTrue.mp4",""
"","","","call-function","262","500171","0.0-262.0","x9fyxrs9","","","","","","","",""
"1689.530000000028","{""judgement"":0}","[0]","survey-likert","263","501862","0.0-263.0","x9fyxrs9","","","","","","","","0"
"1789.0299999999697","{""confidence"":1}","[0]","survey-likert","264","503652","0.0-264.0","x9fyxrs9","","","","","","","",""
"","","","call-function","265","503652","0.0-265.0","x9fyxrs9","","","","","","","",""
"null","","","html-keyboard-response","266","505156","0.0-266.0","x9fyxrs9","","<span style=""color:Black; font-size:50px;"">Agent A","null","","","","",""
"null","","","video-keyboard-response","267","508254","0.0-267.0","x9fyxrs9","","","null","","Agent A","scrambled","STIM_SET_2/498258.bmp_pp51_L1_V1.0_scrambled_freeview_isoTrue.mp4",""
"null","","","html-keyboard-response","268","509755","0.0-268.0","x9fyxrs9","","<span style=""color:Black; font-size:50px;"">Agent B","null","","","","",""
"null","","","video-keyboard-response","269","512851","0.0-269.0","x9fyxrs9","","","null","","Agent B","veridical","STIM_SET_2/498258.bmp_pp51_L1_V1.0_veridical_freeview_isoTrue.mp4",""
"","","","call-function","270","512851","0.0-270.0","x9fyxrs9","","","","","","","",""
"1765.990000000049","{""judgement"":1}","[0]","survey-likert","271","514618","0.0-271.0","x9fyxrs9","","","","","","","","1"
"799.6849999999977","{""confidence"":2}","[0]","survey-likert","272","515419","0.0-272.0","x9fyxrs9","","","","","","","",""
"","","","call-function","273","515420","0.0-273.0","x9fyxrs9","","","","","","","",""
"null","","","html-keyboard-response","274","516922","0.0-274.0","x9fyxrs9","","<span style=""color:Black; font-size:50px;"">Agent A","null","","","","",""
"null","","","video-keyboard-response","275","520017","0.0-275.0","x9fyxrs9","","","null","","Agent A","scrambled","STIM_SET_2/713652.bmp_pp89_L1_V1_scrambled_freeview_isoTrue.mp4",""
"null","","","html-keyboard-response","276","521523","0.0-276.0","x9fyxrs9","","<span style=""color:Black; font-size:50px;"">Agent B","null","","","","",""
"null","","","video-keyboard-response","277","524621","0.0-277.0","x9fyxrs9","","","null","","Agent B","veridical","STIM_SET_2/713652.bmp_pp89_L1_V1_veridical_freeview_isoTrue.mp4",""
"","","","call-function","278","524622","0.0-278.0","x9fyxrs9","","","","","","","",""
"1627.6300000000047","{""judgement"":1}","[0]","survey-likert","279","526250","0.0-279.0","x9fyxrs9","","","","","","","","1"
"1139.6750000000466","{""confidence"":2}","[0]","survey-likert","280","527391","0.0-280.0","x9fyxrs9","","","","","","","",""
"","","","call-function","281","527391","0.0-281.0","x9fyxrs9","","","","","","","",""
"null","","","html-keyboard-response","282","528895","0.0-282.0","x9fyxrs9","","<span style=""color:Black; font-size:50px;"">Agent A","null","","","","",""
"null","","","video-keyboard-response","283","531995","0.0-283.0","x9fyxrs9","","","null","","Agent A","veridical","STIM_SET_2/713633.bmp_pp58_L1_V1.0_veridical_freeview_isoTrue.mp4",""
"null","","","html-keyboard-response","284","533502","0.0-284.0","x9fyxrs9","","<span style=""color:Black; font-size:50px;"">Agent B","null","","","","",""
"null","","","video-keyboard-response","285","536605","0.0-285.0","x9fyxrs9","","","null","","Agent B","scrambled","STIM_SET_2/713633.bmp_pp58_L1_V1.0_scrambled_freeview_isoTrue.mp4",""
"","","","call-function","286","536606","0.0-286.0","x9fyxrs9","","","","","","","",""
"1616.1500000000233","{""judgement"":1}","[0]","survey-likert","287","538223","0.0-287.0","x9fyxrs9","","","","","","","","0"
"1069.0400000000373","{""confidence"":2}","[0]","survey-likert","288","539293","0.0-288.0","x9fyxrs9","","","","","","","",""
"","","","call-function","289","539294","0.0-289.0","x9fyxrs9","","","","","","","",""
"null","","","html-keyboard-response","290","540798","0.0-290.0","x9fyxrs9","","<span style=""color:Black; font-size:50px;"">Agent A","null","","","","",""
"null","","","video-keyboard-response","291","543898","0.0-291.0","x9fyxrs9","","","null","","Agent A","scrambled","STIM_SET_2/1592747.bmp_pp53_L2_V1.0_scrambled_freeview_isoTrue.mp4",""
"null","","","html-keyboard-response","292","545403","0.0-292.0","x9fyxrs9","","<span style=""color:Black; font-size:50px;"">Agent B","null","","","","",""
"null","","","video-keyboard-response","293","548474","0.0-293.0","x9fyxrs9","","","null","","Agent B","veridical","STIM_SET_2/1592747.bmp_pp53_L2_V1.0_veridical_freeview_isoTrue.mp4",""
"","","","call-function","294","548475","0.0-294.0","x9fyxrs9","","","","","","","",""
"1222.5299999999115","{""judgement"":1}","[0]","survey-likert","295","549698","0.0-295.0","x9fyxrs9","","","","","","","","1"
"1653.015000000014","{""confidence"":2}","[0]","survey-likert","296","551352","0.0-296.0","x9fyxrs9","","","","","","","",""
"","","","call-function","297","551353","0.0-297.0","x9fyxrs9","","","","","","","",""
"null","","","html-keyboard-response","298","552856","0.0-298.0","x9fyxrs9","","<span style=""color:Black; font-size:50px;"">Agent A","null","","","","",""
"null","","","video-keyboard-response","299","555937","0.0-299.0","x9fyxrs9","","","null","","Agent A","scrambled","STIM_SET_2/713770.bmp_pp89_L1_V1.0_scrambled_freeview_isoTrue.mp4",""
"null","","","html-keyboard-response","300","557438","0.0-300.0","x9fyxrs9","","<span style=""color:Black; font-size:50px;"">Agent B","null","","","","",""
"null","","","video-keyboard-response","301","560516","0.0-301.0","x9fyxrs9","","","null","","Agent B","veridical","STIM_SET_2/713770.bmp_pp89_L1_V1.0_veridical_freeview_isoTrue.mp4",""
"","","","call-function","302","560516","0.0-302.0","x9fyxrs9","","","","","","","",""
"1670.5","{""judgement"":0}","[0]","survey-likert","303","562188","0.0-303.0","x9fyxrs9","","","","","","","","1"
"4732.07500000007","{""confidence"":1}","[0]","survey-likert","304","566921","0.0-304.0","x9fyxrs9","","","","","","","",""
"","","","call-function","305","566922","0.0-305.0","x9fyxrs9","","","","","","","",""
"null","","","html-keyboard-response","306","568425","0.0-306.0","x9fyxrs9","","<span style=""color:Black; font-size:50px;"">Agent A","null","","","","",""
"null","","","video-keyboard-response","307","571496","0.0-307.0","x9fyxrs9","","","null","","Agent A","scrambled","STIM_SET_2/1592201.bmp_pp97_L3_V1.0_scrambled_freeview_isoTrue.mp4",""
"null","","","html-keyboard-response","308","573001","0.0-308.0","x9fyxrs9","","<span style=""color:Black; font-size:50px;"">Agent B","null","","","","",""
"null","","","video-keyboard-response","309","576104","0.0-309.0","x9fyxrs9","","","null","","Agent B","veridical","STIM_SET_2/1592201.bmp_pp97_L3_V1.0_veridical_freeview_isoTrue.mp4",""
"","","","call-function","310","576105","0.0-310.0","x9fyxrs9","","","","","","","",""
"1572.3549999999814","{""judgement"":1}","[0]","survey-likert","311","577678","0.0-311.0","x9fyxrs9","","","","","","","","1"
"1413.594999999972","{""confidence"":1}","[0]","survey-likert","312","579093","0.0-312.0","x9fyxrs9","","","","","","","",""
"","","","call-function","313","579094","0.0-313.0","x9fyxrs9","","","","","","","",""
"null","","","html-keyboard-response","314","580596","0.0-314.0","x9fyxrs9","","<span style=""color:Black; font-size:50px;"">Agent A","null","","","","",""
"null","","","video-keyboard-response","315","583701","0.0-315.0","x9fyxrs9","","","null","","Agent A","scrambled","STIM_SET_2/1592305.bmp_pp65_L3_V1.0_scrambled_freeview_isoTrue.mp4",""
"null","","","html-keyboard-response","316","585203","0.0-316.0","x9fyxrs9","","<span style=""color:Black; font-size:50px;"">Agent B","null","","","","",""
"null","","","video-keyboard-response","317","588305","0.0-317.0","x9fyxrs9","","","null","","Agent B","veridical","STIM_SET_2/1592305.bmp_pp65_L3_V1.0_veridical_freeview_isoTrue.mp4",""
"","","","call-function","318","588306","0.0-318.0","x9fyxrs9","","","","","","","",""
"1202.375","{""judgement"":1}","[0]","survey-likert","319","589509","0.0-319.0","x9fyxrs9","","","","","","","","1"
"984","{""confidence"":1}","[0]","survey-likert","320","590494","0.0-320.0","x9fyxrs9","","","","","","","",""
"","","","call-function","321","590495","0.0-321.0","x9fyxrs9","","","","","","","",""
"null","","","html-keyboard-response","322","591998","0.0-322.0","x9fyxrs9","","<span style=""color:Black; font-size:50px;"">Agent A","null","","","","",""
"null","","","video-keyboard-response","323","595066","0.0-323.0","x9fyxrs9","","","null","","Agent A","veridical","STIM_SET_2/1159325.bmp_pp67_L2_V1.0_veridical_freeview_isoTrue.mp4",""
"null","","","html-keyboard-response","324","596569","0.0-324.0","x9fyxrs9","","<span style=""color:Black; font-size:50px;"">Agent B","null","","","","",""
"null","","","video-keyboard-response","325","599639","0.0-325.0","x9fyxrs9","","","null","","Agent B","scrambled","STIM_SET_2/1159325.bmp_pp67_L2_V1.0_scrambled_freeview_isoTrue.mp4",""
"","","","call-function","326","599639","0.0-326.0","x9fyxrs9","","","","","","","",""
"1204.2150000000838","{""judgement"":0}","[0]","survey-likert","327","600844","0.0-327.0","x9fyxrs9","","","","","","","","0"
"1963.3850000000093","{""confidence"":3}","[0]","survey-likert","328","602809","0.0-328.0","x9fyxrs9","","","","","","","",""
"","","","call-function","329","602810","0.0-329.0","x9fyxrs9","","","","","","","",""
"null","","","html-keyboard-response","330","604312","0.0-330.0","x9fyxrs9","","<span style=""color:Black; font-size:50px;"">Agent A","null","","","","",""
"null","","","video-keyboard-response","331","607414","0.0-331.0","x9fyxrs9","","","null","","Agent A","veridical","STIM_SET_2/713788.bmp_pp52_L1_V1.0_veridical_freeview_isoTrue.mp4",""
"null","","","html-keyboard-response","332","608916","0.0-332.0","x9fyxrs9","","<span style=""color:Black; font-size:50px;"">Agent B","null","","","","",""
"null","","","video-keyboard-response","333","611988","0.0-333.0","x9fyxrs9","","","null","","Agent B","scrambled","STIM_SET_2/713788.bmp_pp52_L1_V1.0_scrambled_freeview_isoTrue.mp4",""
"","","","call-function","334","611988","0.0-334.0","x9fyxrs9","","","","","","","",""
"5172.079999999958","{""judgement"":1}","[0]","survey-likert","335","617161","0.0-335.0","x9fyxrs9","","","","","","","","0"
"821.859999999986","{""confidence"":1}","[0]","survey-likert","336","617984","0.0-336.0","x9fyxrs9","","","","","","","",""
"50268.97999999998","","","instructions","337","668255","0.0-337.0","x9fyxrs9","[{""page_index"":0,""viewing_time"":49159.52499999991},{""page_index"":1,""viewing_time"":897.9100000000326},{""page_index"":2,""viewing_time"":211.3200000000652}]","","","","","","",""
"1710.920000000042","","","instructions","338","669967","0.0-338.0","x9fyxrs9","[{""page_index"":0,""viewing_time"":143.01500000001397},{""page_index"":1,""viewing_time"":1185.7700000000186},{""page_index"":2,""viewing_time"":382.0299999999115}]","","","","","","",""
"","","","call-function","339","669968","0.0-339.0","x9fyxrs9","","","","","","","",""
"null","","","html-keyboard-response","340","671472","0.0-340.0","x9fyxrs9","","<span style=""color:Black; font-size:50px;"">Agent A","null","","","","",""
"null","","","video-keyboard-response","341","674539","0.0-341.0","x9fyxrs9","","","null","","Agent A","veridical","STIM_SET_2/1592017.bmp_pp154_L1_V1.0_veridical_freeview_isoTrue.mp4",""
"null","","","html-keyboard-response","342","676044","0.0-342.0","x9fyxrs9","","<span style=""color:Black; font-size:50px;"">Agent B","null","","","","",""
"null","","","video-keyboard-response","343","679112","0.0-343.0","x9fyxrs9","","","null","","Agent B","scrambled","STIM_SET_2/1592017.bmp_pp154_L1_V1.0_scrambled_freeview_isoTrue.mp4",""
"","","","call-function","344","679112","0.0-344.0","x9fyxrs9","","","","","","","",""
"1398.2849999999162","{""judgement"":0}","[0]","survey-likert","345","680512","0.0-345.0","x9fyxrs9","","","","","","","","0"
"768.5400000000373","{""confidence"":3}","[0]","survey-likert","346","681282","0.0-346.0","x9fyxrs9","","","","","","","",""
"","","","call-function","347","681283","0.0-347.0","x9fyxrs9","","","","","","","",""
"null","","","html-keyboard-response","348","682786","0.0-348.0","x9fyxrs9","","<span style=""color:Black; font-size:50px;"">Agent A","null","","","","",""
"null","","","video-keyboard-response","349","685859","0.0-349.0","x9fyxrs9","","","null","","Agent A","scrambled","STIM_SET_2/107955.bmp_pp90_L2_V1.0_scrambled_freeview_isoTrue.mp4",""
"null","","","html-keyboard-response","350","687363","0.0-350.0","x9fyxrs9","","<span style=""color:Black; font-size:50px;"">Agent B","null","","","","",""
"null","","","video-keyboard-response","351","690430","0.0-351.0","x9fyxrs9","","","null","","Agent B","veridical","STIM_SET_2/107955.bmp_pp90_L2_V1.0_veridical_freeview_isoTrue.mp4",""
"","","","call-function","352","690431","0.0-352.0","x9fyxrs9","","","","","","","",""
"970.7050000000745","{""judgement"":1}","[0]","survey-likert","353","691403","0.0-353.0","x9fyxrs9","","","","","","","","1"
"677.8299999999581","{""confidence"":2}","[0]","survey-likert","354","692082","0.0-354.0","x9fyxrs9","","","","","","","",""
"","","","call-function","355","692082","0.0-355.0","x9fyxrs9","","","","","","","",""
"null","","","html-keyboard-response","356","693585","0.0-356.0","x9fyxrs9","","<span style=""color:Black; font-size:50px;"">Agent A","null","","","","",""
"null","","","video-keyboard-response","357","696689","0.0-357.0","x9fyxrs9","","","null","","Agent A","scrambled","STIM_SET_2/498261.bmp_pp84_L3_V1.0_scrambled_freeview_isoTrue.mp4",""
"null","","","html-keyboard-response","358","698195","0.0-358.0","x9fyxrs9","","<span style=""color:Black; font-size:50px;"">Agent B","null","","","","",""
"null","","","video-keyboard-response","359","701296","0.0-359.0","x9fyxrs9","","","null","","Agent B","veridical","STIM_SET_2/498261.bmp_pp84_L3_V1.0_veridical_freeview_isoTrue.mp4",""
"","","","call-function","360","701296","0.0-360.0","x9fyxrs9","","","","","","","",""
"1842.1999999999534","{""judgement"":0}","[0]","survey-likert","361","703140","0.0-361.0","x9fyxrs9","","","","","","","","1"
"3482.8399999999674","{""confidence"":2}","[0]","survey-likert","362","706624","0.0-362.0","x9fyxrs9","","","","","","","",""
"","","","call-function","363","706624","0.0-363.0","x9fyxrs9","","","","","","","",""
"null","","","html-keyboard-response","364","708130","0.0-364.0","x9fyxrs9","","<span style=""color:Black; font-size:50px;"">Agent A","null","","","","",""
"null","","","video-keyboard-response","365","711188","0.0-365.0","x9fyxrs9","","","null","","Agent A","veridical","STIM_SET_2/713328.bmp_pp86_L2_V1.0_veridical_freeview_isoTrue.mp4",""
"null","","","html-keyboard-response","366","712693","0.0-366.0","x9fyxrs9","","<span style=""color:Black; font-size:50px;"">Agent B","null","","","","",""
"null","","","video-keyboard-response","367","715750","0.0-367.0","x9fyxrs9","","","null","","Agent B","scrambled","STIM_SET_2/713328.bmp_pp86_L2_V1.0_scrambled_freeview_isoTrue.mp4",""
"","","","call-function","368","715751","0.0-368.0","x9fyxrs9","","","","","","","",""
"1150.5399999999208","{""judgement"":0}","[0]","survey-likert","369","716902","0.0-369.0","x9fyxrs9","","","","","","","","0"
"1599.6549999999115","{""confidence"":3}","[0]","survey-likert","370","718504","0.0-370.0","x9fyxrs9","","","","","","","",""
"","","","call-function","371","718504","0.0-371.0","x9fyxrs9","","","","","","","",""
"null","","","html-keyboard-response","372","720009","0.0-372.0","x9fyxrs9","","<span style=""color:Black; font-size:50px;"">Agent A","null","","","","",""
"null","","","video-keyboard-response","373","723098","0.0-373.0","x9fyxrs9","","","null","","Agent A","veridical","STIM_SET_2/285946.bmp_pp79_L2_V1.0_veridical_freeview_isoTrue.mp4",""
"null","","","html-keyboard-response","374","724603","0.0-374.0","x9fyxrs9","","<span style=""color:Black; font-size:50px;"">Agent B","null","","","","",""
"null","","","video-keyboard-response","375","727688","0.0-375.0","x9fyxrs9","","","null","","Agent B","scrambled","STIM_SET_2/285946.bmp_pp79_L2_V1.0_scrambled_freeview_isoTrue.mp4",""
"","","","call-function","376","727689","0.0-376.0","x9fyxrs9","","","","","","","",""
"4509.039999999921","{""judgement"":1}","[0]","survey-likert","377","732199","0.0-377.0","x9fyxrs9","","","","","","","","0"
"942.7850000000326","{""confidence"":0}","[0]","survey-likert","378","733143","0.0-378.0","x9fyxrs9","","","","","","","",""
"","","","call-function","379","733143","0.0-379.0","x9fyxrs9","","","","","","","",""
"null","","","html-keyboard-response","380","734646","0.0-380.0","x9fyxrs9","","<span style=""color:Black; font-size:50px;"">Agent A","null","","","","",""
"null","","","video-keyboard-response","381","737712","0.0-381.0","x9fyxrs9","","","null","","Agent A","veridical","STIM_SET_2/498326.bmp_pp57_L1_V1.0_veridical_freeview_isoTrue.mp4",""
"null","","","html-keyboard-response","382","739214","0.0-382.0","x9fyxrs9","","<span style=""color:Black; font-size:50px;"">Agent B","null","","","","",""
"null","","","video-keyboard-response","383","742281","0.0-383.0","x9fyxrs9","","","null","","Agent B","scrambled","STIM_SET_2/498326.bmp_pp57_L1_V1.0_scrambled_freeview_isoTrue.mp4",""
"","","","call-function","384","742282","0.0-384.0","x9fyxrs9","","","","","","","",""
"1557.5549999999348","{""judgement"":0}","[0]","survey-likert","385","743840","0.0-385.0","x9fyxrs9","","","","","","","","0"
"680.8400000000838","{""confidence"":2}","[0]","survey-likert","386","744523","0.0-386.0","x9fyxrs9","","","","","","","",""
"","","","call-function","387","744523","0.0-387.0","x9fyxrs9","","","","","","","",""
"null","","","html-keyboard-response","388","746027","0.0-388.0","x9fyxrs9","","<span style=""color:Black; font-size:50px;"">Agent A","null","","","","",""
"null","","","video-keyboard-response","389","749106","0.0-389.0","x9fyxrs9","","","null","","Agent A","scrambled","STIM_SET_2/107909.bmp_pp95_L2_V1.0_scrambled_freeview_isoTrue.mp4",""
"null","","","html-keyboard-response","390","750609","0.0-390.0","x9fyxrs9","","<span style=""color:Black; font-size:50px;"">Agent B","null","","","","",""
"null","","","video-keyboard-response","391","753686","0.0-391.0","x9fyxrs9","","","null","","Agent B","veridical","STIM_SET_2/107909.bmp_pp95_L2_V1.0_veridical_freeview_isoTrue.mp4",""
"","","","call-function","392","753686","0.0-392.0","x9fyxrs9","","","","","","","",""
"1728.2850000000326","{""judgement"":0}","[0]","survey-likert","393","755416","0.0-393.0","x9fyxrs9","","","","","","","","1"
"1289.3199999999488","{""confidence"":2}","[0]","survey-likert","394","756707","0.0-394.0","x9fyxrs9","","","","","","","",""
"","","","call-function","395","756708","0.0-395.0","x9fyxrs9","","","","","","","",""
"null","","","html-keyboard-response","396","758214","0.0-396.0","x9fyxrs9","","<span style=""color:Black; font-size:50px;"">Agent A","null","","","","",""
"null","","","video-keyboard-response","397","761309","0.0-397.0","x9fyxrs9","","","null","","Agent A","scrambled","STIM_SET_2/285684.bmp_pp80_L3_V1.0_scrambled_freeview_isoTrue.mp4",""
"null","","","html-keyboard-response","398","762811","0.0-398.0","x9fyxrs9","","<span style=""color:Black; font-size:50px;"">Agent B","null","","","","",""
"null","","","video-keyboard-response","399","765907","0.0-399.0","x9fyxrs9","","","null","","Agent B","veridical","STIM_SET_2/285684.bmp_pp80_L3_V1.0_veridical_freeview_isoTrue.mp4",""
"","","","call-function","400","765909","0.0-400.0","x9fyxrs9","","","","","","","",""
"1229.984999999986","{""judgement"":1}","[0]","survey-likert","401","767140","0.0-401.0","x9fyxrs9","","","","","","","","1"
"2044.0250000000233","{""confidence"":2}","[0]","survey-likert","402","769185","0.0-402.0","x9fyxrs9","","","","","","","",""
"","","","call-function","403","769186","0.0-403.0","x9fyxrs9","","","","","","","",""
"null","","","html-keyboard-response","404","770687","0.0-404.0","x9fyxrs9","","<span style=""color:Black; font-size:50px;"">Agent A","null","","","","",""
"null","","","video-keyboard-response","405","773788","0.0-405.0","x9fyxrs9","","","null","","Agent A","scrambled","STIM_SET_2/713689.bmp_pp153_L3_V1.0_scrambled_freeview_isoTrue.mp4",""
"null","","","html-keyboard-response","406","775295","0.0-406.0","x9fyxrs9","","<span style=""color:Black; font-size:50px;"">Agent B","null","","","","",""
"null","","","video-keyboard-response","407","778392","0.0-407.0","x9fyxrs9","","","null","","Agent B","veridical","STIM_SET_2/713689.bmp_pp153_L3_V1.0_veridical_freeview_isoTrue.mp4",""
"","","","call-function","408","778392","0.0-408.0","x9fyxrs9","","","","","","","",""
"1921.2449999999953","{""judgement"":0}","[0]","survey-likert","409","780315","0.0-409.0","x9fyxrs9","","","","","","","","1"
"1001.7700000000186","{""confidence"":0}","[0]","survey-likert","410","781318","0.0-410.0","x9fyxrs9","","","","","","","",""
"","","","call-function","411","781318","0.0-411.0","x9fyxrs9","","","","","","","",""
"null","","","html-keyboard-response","412","782824","0.0-412.0","x9fyxrs9","","<span style=""color:Black; font-size:50px;"">Agent A","null","","","","",""
"null","","","video-keyboard-response","413","785931","0.0-413.0","x9fyxrs9","","","null","","Agent A","veridical","STIM_SET_2/713381.bmp_pp82_L2_V1.0_veridical_freeview_isoTrue.mp4",""
"null","","","html-keyboard-response","414","787435","0.0-414.0","x9fyxrs9","","<span style=""color:Black; font-size:50px;"">Agent B","null","","","","",""
"null","","","video-keyboard-response","415","790542","0.0-415.0","x9fyxrs9","","","null","","Agent B","scrambled","STIM_SET_2/713381.bmp_pp82_L2_V1.0_scrambled_freeview_isoTrue.mp4",""
"","","","call-function","416","790542","0.0-416.0","x9fyxrs9","","","","","","","",""
"4327.755000000005","{""judgement"":1}","[0]","survey-likert","417","794871","0.0-417.0","x9fyxrs9","","","","","","","","0"
"1410.4400000000605","{""confidence"":1}","[0]","survey-likert","418","796283","0.0-418.0","x9fyxrs9","","","","","","","",""
"96826.995","","","instructions","419","893112","0.0-419.0","x9fyxrs9","[{""page_index"":0,""viewing_time"":55496.83499999996},{""page_index"":1,""viewing_time"":40465.55000000005},{""page_index"":2,""viewing_time"":863.9699999999721}]","","","","","","",""
"771.7949999999255","","","instructions","420","893885","0.0-420.0","x9fyxrs9","[{""page_index"":0,""viewing_time"":236.85499999998137},{""page_index"":1,""viewing_time"":92.25500000000466},{""page_index"":2,""viewing_time"":442.5799999999581}]","","","","","","",""
"","","","call-function","421","893887","0.0-421.0","x9fyxrs9","","","","","","","",""
"null","","","html-keyboard-response","422","895393","0.0-422.0","x9fyxrs9","","<span style=""color:Black; font-size:50px;"">Agent A","null","","","","",""
"null","","","video-keyboard-response","423","898467","0.0-423.0","x9fyxrs9","","","null","","Agent A","veridical","STIM_SET_2/1592530.bmp_pp75_L1_V1.0_veridical_freeview_isoTrue.mp4",""
"null","","","html-keyboard-response","424","899973","0.0-424.0","x9fyxrs9","","<span style=""color:Black; font-size:50px;"">Agent B","null","","","","",""
"null","","","video-keyboard-response","425","903046","0.0-425.0","x9fyxrs9","","","null","","Agent B","scrambled","STIM_SET_2/1592530.bmp_pp75_L1_V1.0_scrambled_freeview_isoTrue.mp4",""
"","","","call-function","426","903047","0.0-426.0","x9fyxrs9","","","","","","","",""
"2813.454999999958","{""judgement"":1}","[0]","survey-likert","427","905861","0.0-427.0","x9fyxrs9","","","","","","","","0"
"936.6149999999907","{""confidence"":1}","[0]","survey-likert","428","906800","0.0-428.0","x9fyxrs9","","","","","","","",""
"","","","call-function","429","906800","0.0-429.0","x9fyxrs9","","","","","","","",""
"null","","","html-keyboard-response","430","908303","0.0-430.0","x9fyxrs9","","<span style=""color:Black; font-size:50px;"">Agent A","null","","","","",""
"null","","","video-keyboard-response","431","911372","0.0-431.0","x9fyxrs9","","","null","","Agent A","veridical","STIM_SET_2/1592044.bmp_pp94_L2_V1.0_veridical_freeview_isoTrue.mp4",""
"null","","","html-keyboard-response","432","912879","0.0-432.0","x9fyxrs9","","<span style=""color:Black; font-size:50px;"">Agent B","null","","","","",""
"null","","","video-keyboard-response","433","915945","0.0-433.0","x9fyxrs9","","","null","","Agent B","scrambled","STIM_SET_2/1592044.bmp_pp94_L2_V1.0_scrambled_freeview_isoTrue.mp4",""
"","","","call-function","434","915946","0.0-434.0","x9fyxrs9","","","","","","","",""
"1435.8950000000186","{""judgement"":0}","[0]","survey-likert","435","917383","0.0-435.0","x9fyxrs9","","","","","","","","0"
"1466.0750000000698","{""confidence"":2}","[0]","survey-likert","436","918850","0.0-436.0","x9fyxrs9","","","","","","","",""
"","","","call-function","437","918851","0.0-437.0","x9fyxrs9","","","","","","","",""
"null","","","html-keyboard-response","438","920357","0.0-438.0","x9fyxrs9","","<span style=""color:Black; font-size:50px;"">Agent A","null","","","","",""
"null","","","video-keyboard-response","439","923450","0.0-439.0","x9fyxrs9","","","null","","Agent A","veridical","STIM_SET_2/285932.bmp_pp64_L1_V1.0_veridical_freeview_isoTrue.mp4",""
"null","","","html-keyboard-response","440","924955","0.0-440.0","x9fyxrs9","","<span style=""color:Black; font-size:50px;"">Agent B","null","","","","",""
"null","","","video-keyboard-response","441","928048","0.0-441.0","x9fyxrs9","","","null","","Agent B","scrambled","STIM_SET_2/285932.bmp_pp64_L1_V1.0_scrambled_freeview_isoTrue.mp4",""
"","","","call-function","442","928049","0.0-442.0","x9fyxrs9","","","","","","","",""
"1127.3349999999627","{""judgement"":0}","[0]","survey-likert","443","929177","0.0-443.0","x9fyxrs9","","","","","","","","0"
"1353.8249999999534","{""confidence"":3}","[0]","survey-likert","444","930532","0.0-444.0","x9fyxrs9","","","","","","","",""
"","","","call-function","445","930533","0.0-445.0","x9fyxrs9","","","","","","","",""
"null","","","html-keyboard-response","446","932035","0.0-446.0","x9fyxrs9","","<span style=""color:Black; font-size:50px;"">Agent A","null","","","","",""
"null","","","video-keyboard-response","447","935136","0.0-447.0","x9fyxrs9","","","null","","Agent A","veridical","STIM_SET_2/713858.bmp_pp57_L1_V1.0_veridical_freeview_isoTrue.mp4",""
"null","","","html-keyboard-response","448","936641","0.0-448.0","x9fyxrs9","","<span style=""color:Black; font-size:50px;"">Agent B","null","","","","",""
"null","","","video-keyboard-response","449","939745","0.0-449.0","x9fyxrs9","","","null","","Agent B","scrambled","STIM_SET_2/713858.bmp_pp57_L1_V1.0_scrambled_freeview_isoTrue.mp4",""
"","","","call-function","450","939746","0.0-450.0","x9fyxrs9","","","","","","","",""
"1853.6900000000605","{""judgement"":0}","[0]","survey-likert","451","941600","0.0-451.0","x9fyxrs9","","","","","","","","0"
"689.8100000000559","{""confidence"":0}","[0]","survey-likert","452","942291","0.0-452.0","x9fyxrs9","","","","","","","",""
"","","","call-function","453","942292","0.0-453.0","x9fyxrs9","","","","","","","",""
"null","","","html-keyboard-response","454","943795","0.0-454.0","x9fyxrs9","","<span style=""color:Black; font-size:50px;"">Agent A","null","","","","",""
"null","","","video-keyboard-response","455","946884","0.0-455.0","x9fyxrs9","","","null","","Agent A","scrambled","STIM_SET_2/1159392.bmp_pp96_L2_V1.0_scrambled_freeview_isoTrue.mp4",""
"null","","","html-keyboard-response","456","948390","0.0-456.0","x9fyxrs9","","<span style=""color:Black; font-size:50px;"">Agent B","null","","","","",""
"null","","","video-keyboard-response","457","951480","0.0-457.0","x9fyxrs9","","","null","","Agent B","veridical","STIM_SET_2/1159392.bmp_pp96_L2_V1.0_veridical_freeview_isoTrue.mp4",""
"","","","call-function","458","951481","0.0-458.0","x9fyxrs9","","","","","","","",""
"1775.4100000000326","{""judgement"":1}","[0]","survey-likert","459","953257","0.0-459.0","x9fyxrs9","","","","","","","","1"
"1134.875","{""confidence"":3}","[0]","survey-likert","460","954393","0.0-460.0","x9fyxrs9","","","","","","","",""
"","","","call-function","461","954394","0.0-461.0","x9fyxrs9","","","","","","","",""
"null","","","html-keyboard-response","462","955898","0.0-462.0","x9fyxrs9","","<span style=""color:Black; font-size:50px;"">Agent A","null","","","","",""
"null","","","video-keyboard-response","463","959009","0.0-463.0","x9fyxrs9","","","null","","Agent A","scrambled","STIM_SET_2/1159592.bmp_pp91_L3_V1.0_scrambled_freeview_isoTrue.mp4",""
"null","","","html-keyboard-response","464","960512","0.0-464.0","x9fyxrs9","","<span style=""color:Black; font-size:50px;"">Agent B","null","","","","",""
"null","","","video-keyboard-response","465","963592","0.0-465.0","x9fyxrs9","","","null","","Agent B","veridical","STIM_SET_2/1159592.bmp_pp91_L3_V1.0_veridical_freeview_isoTrue.mp4",""
"","","","call-function","466","963592","0.0-466.0","x9fyxrs9","","","","","","","",""
"2188.930000000051","{""judgement"":0}","[0]","survey-likert","467","965782","0.0-467.0","x9fyxrs9","","","","","","","","1"
"983.8399999999674","{""confidence"":2}","[0]","survey-likert","468","966767","0.0-468.0","x9fyxrs9","","","","","","","",""
"","","","call-function","469","966768","0.0-469.0","x9fyxrs9","","","","","","","",""
"null","","","html-keyboard-response","470","968272","0.0-470.0","x9fyxrs9","","<span style=""color:Black; font-size:50px;"">Agent A","null","","","","",""
"null","","","video-keyboard-response","471","971351","0.0-471.0","x9fyxrs9","","","null","","Agent A","scrambled","STIM_SET_2/713790.bmp_pp100_L3_V1_scrambled_freeview_isoTrue.mp4",""
"null","","","html-keyboard-response","472","972854","0.0-472.0","x9fyxrs9","","<span style=""color:Black; font-size:50px;"">Agent B","null","","","","",""
"null","","","video-keyboard-response","473","975931","0.0-473.0","x9fyxrs9","","","null","","Agent B","veridical","STIM_SET_2/713790.bmp_pp100_L3_V1_veridical_freeview_isoTrue.mp4",""
"","","","call-function","474","975932","0.0-474.0","x9fyxrs9","","","","","","","",""
"1536.1999999999534","{""judgement"":0}","[0]","survey-likert","475","977469","0.0-475.0","x9fyxrs9","","","","","","","","1"
"1753.4749999999767","{""confidence"":1}","[0]","survey-likert","476","979224","0.0-476.0","x9fyxrs9","","","","","","","",""
"","","","call-function","477","979225","0.0-477.0","x9fyxrs9","","","","","","","",""
"null","","","html-keyboard-response","478","980727","0.0-478.0","x9fyxrs9","","<span style=""color:Black; font-size:50px;"">Agent A","null","","","","",""
"null","","","video-keyboard-response","479","983799","0.0-479.0","x9fyxrs9","","","null","","Agent A","veridical","STIM_SET_2/1592047.bmp_pp51_L1_V1.0_veridical_freeview_isoTrue.mp4",""
"null","","","html-keyboard-response","480","985305","0.0-480.0","x9fyxrs9","","<span style=""color:Black; font-size:50px;"">Agent B","null","","","","",""
"null","","","video-keyboard-response","481","988401","0.0-481.0","x9fyxrs9","","","null","","Agent B","scrambled","STIM_SET_2/1592047.bmp_pp51_L1_V1.0_scrambled_freeview_isoTrue.mp4",""
"","","","call-function","482","988402","0.0-482.0","x9fyxrs9","","","","","","","",""
"1946.2249999999767","{""judgement"":0}","[0]","survey-likert","483","990349","0.0-483.0","x9fyxrs9","","","","","","","","0"
"1727.5700000000652","{""confidence"":2}","[0]","survey-likert","484","992078","0.0-484.0","x9fyxrs9","","","","","","","",""
"","","","call-function","485","992079","0.0-485.0","x9fyxrs9","","","","","","","",""
"null","","","html-keyboard-response","486","993584","0.0-486.0","x9fyxrs9","","<span style=""color:Black; font-size:50px;"">Agent A","null","","","","",""
"null","","","video-keyboard-response","487","996680","0.0-487.0","x9fyxrs9","","","null","","Agent A","scrambled","STIM_SET_2/1160189.bmp_pp64_L1_V1.0_scrambled_freeview_isoTrue.mp4",""
"null","","","html-keyboard-response","488","998187","0.0-488.0","x9fyxrs9","","<span style=""color:Black; font-size:50px;"">Agent B","null","","","","",""
"null","","","video-keyboard-response","489","1001285","0.0-489.0","x9fyxrs9","","","null","","Agent B","veridical","STIM_SET_2/1160189.bmp_pp64_L1_V1.0_veridical_freeview_isoTrue.mp4",""
"","","","call-function","490","1001286","0.0-490.0","x9fyxrs9","","","","","","","",""
"1405.5699999999488","{""judgement"":1}","[0]","survey-likert","491","1002692","0.0-491.0","x9fyxrs9","","","","","","","","1"
"1487.920000000042","{""confidence"":1}","[0]","survey-likert","492","1004181","0.0-492.0","x9fyxrs9","","","","","","","",""
"","","","call-function","493","1004182","0.0-493.0","x9fyxrs9","","","","","","","",""
"null","","","html-keyboard-response","494","1005686","0.0-494.0","x9fyxrs9","","<span style=""color:Black; font-size:50px;"">Agent A","null","","","","",""
"null","","","video-keyboard-response","495","1008783","0.0-495.0","x9fyxrs9","","","null","","Agent A","scrambled","STIM_SET_2/1592038.bmp_pp79_L2_V1.0_scrambled_freeview_isoTrue.mp4",""
"null","","","html-keyboard-response","496","1010291","0.0-496.0","x9fyxrs9","","<span style=""color:Black; font-size:50px;"">Agent B","null","","","","",""
"null","","","video-keyboard-response","497","1013388","0.0-497.0","x9fyxrs9","","","null","","Agent B","veridical","STIM_SET_2/1592038.bmp_pp79_L2_V1.0_veridical_freeview_isoTrue.mp4",""
"","","","call-function","498","1013388","0.0-498.0","x9fyxrs9","","","","","","","",""
"2147.1350000000093","{""judgement"":1}","[0]","survey-likert","499","1015536","0.0-499.0","x9fyxrs9","","","","","","","","1"
"2119.875","{""confidence"":0}","[0]","survey-likert","500","1017657","0.0-500.0","x9fyxrs9","","","","","","","",""
"1607.7899999999208","","","instructions","501","1019266","0.0-501.0","x9fyxrs9","[{""page_index"":0,""viewing_time"":1276.7399999999907},{""page_index"":1,""viewing_time"":205},{""page_index"":2,""viewing_time"":125.93499999993946}]","","","","","","",""
"1106.4000000000233","","","instructions","502","1020373","0.0-502.0","x9fyxrs9","[{""page_index"":0,""viewing_time"":114.13000000000466},{""page_index"":1,""viewing_time"":427.92500000004657},{""page_index"":2,""viewing_time"":564.234999999986}]","","","","","","",""
"","","","call-function","503","1020375","0.0-503.0","x9fyxrs9","","","","","","","",""
"null","","","html-keyboard-response","504","1021879","0.0-504.0","x9fyxrs9","","<span style=""color:Black; font-size:50px;"">Agent A","null","","","","",""
"null","","","video-keyboard-response","505","1024983","0.0-505.0","x9fyxrs9","","","null","","Agent A","scrambled","STIM_SET_2/713920.bmp_pp76_L1_V1.0_scrambled_freeview_isoTrue.mp4",""
"null","","","html-keyboard-response","506","1026485","0.0-506.0","x9fyxrs9","","<span style=""color:Black; font-size:50px;"">Agent B","null","","","","",""
"null","","","video-keyboard-response","507","1029555","0.0-507.0","x9fyxrs9","","","null","","Agent B","veridical","STIM_SET_2/713920.bmp_pp76_L1_V1.0_veridical_freeview_isoTrue.mp4",""
"","","","call-function","508","1029557","0.0-508.0","x9fyxrs9","","","","","","","",""
"1880.3800000000047","{""judgement"":1}","[0]","survey-likert","509","1031439","0.0-509.0","x9fyxrs9","","","","","","","","1"
"985.0999999999767","{""confidence"":2}","[0]","survey-likert","510","1032425","0.0-510.0","x9fyxrs9","","","","","","","",""
"","","","call-function","511","1032426","0.0-511.0","x9fyxrs9","","","","","","","",""
"null","","","html-keyboard-response","512","1033929","0.0-512.0","x9fyxrs9","","<span style=""color:Black; font-size:50px;"">Agent A","null","","","","",""
"null","","","video-keyboard-response","513","1036996","0.0-513.0","x9fyxrs9","","","null","","Agent A","scrambled","STIM_SET_2/1592314.bmp_pp100_L3_V1.0_scrambled_freeview_isoTrue.mp4",""
"null","","","html-keyboard-response","514","1038498","0.0-514.0","x9fyxrs9","","<span style=""color:Black; font-size:50px;"">Agent B","null","","","","",""
"null","","","video-keyboard-response","515","1041568","0.0-515.0","x9fyxrs9","","","null","","Agent B","veridical","STIM_SET_2/1592314.bmp_pp100_L3_V1.0_veridical_freeview_isoTrue.mp4",""
"","","","call-function","516","1041569","0.0-516.0","x9fyxrs9","","","","","","","",""
"2522.4000000000233","{""judgement"":0}","[0]","survey-likert","517","1044093","0.0-517.0","x9fyxrs9","","","","","","","","1"
"760.5450000000419","{""confidence"":0}","[0]","survey-likert","518","1044855","0.0-518.0","x9fyxrs9","","","","","","","",""
"","","","call-function","519","1044855","0.0-519.0","x9fyxrs9","","","","","","","",""
"null","","","html-keyboard-response","520","1046359","0.0-520.0","x9fyxrs9","","<span style=""color:Black; font-size:50px;"">Agent A","null","","","","",""
"null","","","video-keyboard-response","521","1049422","0.0-521.0","x9fyxrs9","","","null","","Agent A","scrambled","STIM_SET_2/1592951.bmp_pp80_L3_V1.0_scrambled_freeview_isoTrue.mp4",""
"null","","","html-keyboard-response","522","1050924","0.0-522.0","x9fyxrs9","","<span style=""color:Black; font-size:50px;"">Agent B","null","","","","",""
"null","","","video-keyboard-response","523","1054009","0.0-523.0","x9fyxrs9","","","null","","Agent B","veridical","STIM_SET_2/1592951.bmp_pp80_L3_V1.0_veridical_freeview_isoTrue.mp4",""
"","","","call-function","524","1054009","0.0-524.0","x9fyxrs9","","","","","","","",""
"1170.3149999999441","{""judgement"":1}","[0]","survey-likert","525","1055181","0.0-525.0","x9fyxrs9","","","","","","","","1"
"1087.005000000121","{""confidence"":1}","[0]","survey-likert","526","1056269","0.0-526.0","x9fyxrs9","","","","","","","",""
"","","","call-function","527","1056269","0.0-527.0","x9fyxrs9","","","","","","","",""
"null","","","html-keyboard-response","528","1057774","0.0-528.0","x9fyxrs9","","<span style=""color:Black; font-size:50px;"">Agent A","null","","","","",""
"null","","","video-keyboard-response","529","1060867","0.0-529.0","x9fyxrs9","","","null","","Agent A","scrambled","STIM_SET_2/1592567.bmp_pp70_L2_V1.0_scrambled_freeview_isoTrue.mp4",""
"null","","","html-keyboard-response","530","1062372","0.0-530.0","x9fyxrs9","","<span style=""color:Black; font-size:50px;"">Agent B","null","","","","",""
"null","","","video-keyboard-response","531","1065459","0.0-531.0","x9fyxrs9","","","null","","Agent B","veridical","STIM_SET_2/1592567.bmp_pp70_L2_V1.0_veridical_freeview_isoTrue.mp4",""
"","","","call-function","532","1065460","0.0-532.0","x9fyxrs9","","","","","","","",""
"898.9899999999907","{""judgement"":1}","[0]","survey-likert","533","1066360","0.0-533.0","x9fyxrs9","","","","","","","","1"
"1072.6499999999069","{""confidence"":2}","[0]","survey-likert","534","1067433","0.0-534.0","x9fyxrs9","","","","","","","",""
"","","","call-function","535","1067434","0.0-535.0","x9fyxrs9","","","","","","","",""
"null","","","html-keyboard-response","536","1068941","0.0-536.0","x9fyxrs9","","<span style=""color:Black; font-size:50px;"">Agent A","null","","","","",""
"null","","","video-keyboard-response","537","1072001","0.0-537.0","x9fyxrs9","","","null","","Agent A","scrambled","STIM_SET_2/1159860.bmp_pp152_L2_V1.0_scrambled_freeview_isoTrue.mp4",""
"null","","","html-keyboard-response","538","1073507","0.0-538.0","x9fyxrs9","","<span style=""color:Black; font-size:50px;"">Agent B","null","","","","",""
"null","","","video-keyboard-response","539","1076566","0.0-539.0","x9fyxrs9","","","null","","Agent B","veridical","STIM_SET_2/1159860.bmp_pp152_L2_V1.0_veridical_freeview_isoTrue.mp4",""
"","","","call-function","540","1076566","0.0-540.0","x9fyxrs9","","","","","","","",""
"1241.219999999972","{""judgement"":1}","[0]","survey-likert","541","1077808","0.0-541.0","x9fyxrs9","","","","","","","","1"
"918.1399999998976","{""confidence"":2}","[0]","survey-likert","542","1078728","0.0-542.0","x9fyxrs9","","","","","","","",""
"","","","call-function","543","1078729","0.0-543.0","x9fyxrs9","","","","","","","",""
"null","","","html-keyboard-response","544","1080235","0.0-544.0","x9fyxrs9","","<span style=""color:Black; font-size:50px;"">Agent A","null","","","","",""
"null","","","video-keyboard-response","545","1083330","0.0-545.0","x9fyxrs9","","","null","","Agent A","veridical","STIM_SET_2/1591975.bmp_pp88_L2_V1.0_veridical_freeview_isoTrue.mp4",""
"null","","","html-keyboard-response","546","1084836","0.0-546.0","x9fyxrs9","","<span style=""color:Black; font-size:50px;"">Agent B","null","","","","",""
"null","","","video-keyboard-response","547","1087929","0.0-547.0","x9fyxrs9","","","null","","Agent B","scrambled","STIM_SET_2/1591975.bmp_pp88_L2_V1.0_scrambled_freeview_isoTrue.mp4",""
"","","","call-function","548","1087930","0.0-548.0","x9fyxrs9","","","","","","","",""
"1302.1049999999814","{""judgement"":0}","[0]","survey-likert","549","1089233","0.0-549.0","x9fyxrs9","","","","","","","","0"
"1415.3599999998696","{""confidence"":2}","[0]","survey-likert","550","1090650","0.0-550.0","x9fyxrs9","","","","","","","",""
"","","","call-function","551","1090650","0.0-551.0","x9fyxrs9","","","","","","","",""
"null","","","html-keyboard-response","552","1092154","0.0-552.0","x9fyxrs9","","<span style=""color:Black; font-size:50px;"">Agent A","null","","","","",""
"null","","","video-keyboard-response","553","1095224","0.0-553.0","x9fyxrs9","","","null","","Agent A","veridical","STIM_SET_2/1591920.bmp_pp97_L3_V1_veridical_freeview_isoTrue.mp4",""
"null","","","html-keyboard-response","554","1096729","0.0-554.0","x9fyxrs9","","<span style=""color:Black; font-size:50px;"">Agent B","null","","","","",""
"null","","","video-keyboard-response","555","1099826","0.0-555.0","x9fyxrs9","","","null","","Agent B","scrambled","STIM_SET_2/1591920.bmp_pp97_L3_V1_scrambled_freeview_isoTrue.mp4",""
"","","","call-function","556","1099827","0.0-556.0","x9fyxrs9","","","","","","","",""
"1235.1200000001118","{""judgement"":0}","[0]","survey-likert","557","1101063","0.0-557.0","x9fyxrs9","","","","","","","","0"
"738.1399999998976","{""confidence"":1}","[0]","survey-likert","558","1101803","0.0-558.0","x9fyxrs9","","","","","","","",""
"","","","call-function","559","1101803","0.0-559.0","x9fyxrs9","","","","","","","",""
"null","","","html-keyboard-response","560","1103307","0.0-560.0","x9fyxrs9","","<span style=""color:Black; font-size:50px;"">Agent A","null","","","","",""
"null","","","video-keyboard-response","561","1106378","0.0-561.0","x9fyxrs9","","","null","","Agent A","scrambled","STIM_SET_2/1159956.bmp_pp59_L3_V1.0_scrambled_freeview_isoTrue.mp4",""
"null","","","html-keyboard-response","562","1107883","0.0-562.0","x9fyxrs9","","<span style=""color:Black; font-size:50px;"">Agent B","null","","","","",""
"null","","","video-keyboard-response","563","1110959","0.0-563.0","x9fyxrs9","","","null","","Agent B","veridical","STIM_SET_2/1159956.bmp_pp59_L3_V1.0_veridical_freeview_isoTrue.mp4",""
"","","","call-function","564","1110959","0.0-564.0","x9fyxrs9","","","","","","","",""
"1476.2250000000931","{""judgement"":1}","[0]","survey-likert","565","1112437","0.0-565.0","x9fyxrs9","","","","","","","","1"
"1050.4850000001024","{""confidence"":1}","[0]","survey-likert","566","1113489","0.0-566.0","x9fyxrs9","","","","","","","",""
"","","","call-function","567","1113489","0.0-567.0","x9fyxrs9","","","","","","","",""
"null","","","html-keyboard-response","568","1114993","0.0-568.0","x9fyxrs9","","<span style=""color:Black; font-size:50px;"">Agent A","null","","","","",""
"null","","","video-keyboard-response","569","1118062","0.0-569.0","x9fyxrs9","","","null","","Agent A","veridical","STIM_SET_2/713829.bmp_pp60_L3_V1.0_veridical_freeview_isoTrue.mp4",""
"null","","","html-keyboard-response","570","1119566","0.0-570.0","x9fyxrs9","","<span style=""color:Black; font-size:50px;"">Agent B","null","","","","",""
"null","","","video-keyboard-response","571","1122663","0.0-571.0","x9fyxrs9","","","null","","Agent B","scrambled","STIM_SET_2/713829.bmp_pp60_L3_V1.0_scrambled_freeview_isoTrue.mp4",""
"","","","call-function","572","1122664","0.0-572.0","x9fyxrs9","","","","","","","",""
"1632.0600000000559","{""judgement"":0}","[0]","survey-likert","573","1124297","0.0-573.0","x9fyxrs9","","","","","","","","0"
"946.5300000000279","{""confidence"":2}","[0]","survey-likert","574","1125245","0.0-574.0","x9fyxrs9","","","","","","","",""
"","","","call-function","575","1125245","0.0-575.0","x9fyxrs9","","","","","","","",""
"null","","","html-keyboard-response","576","1126751","0.0-576.0","x9fyxrs9","","<span style=""color:Black; font-size:50px;"">Agent A","null","","","","",""
"null","","","video-keyboard-response","577","1129856","0.0-577.0","x9fyxrs9","","","null","","Agent A","scrambled","STIM_SET_2/1159874.bmp_pp96_L2_V1.0_scrambled_freeview_isoTrue.mp4",""
"null","","","html-keyboard-response","578","1131359","0.0-578.0","x9fyxrs9","","<span style=""color:Black; font-size:50px;"">Agent B","null","","","","",""
"null","","","video-keyboard-response","579","1134458","0.0-579.0","x9fyxrs9","","","null","","Agent B","veridical","STIM_SET_2/1159874.bmp_pp96_L2_V1.0_veridical_freeview_isoTrue.mp4",""
"","","","call-function","580","1134459","0.0-580.0","x9fyxrs9","","","","","","","",""
"1063.0999999998603","{""judgement"":1}","[0]","survey-likert","581","1135523","0.0-581.0","x9fyxrs9","","","","","","","","1"
"2754.909999999916","{""confidence"":3}","[0]","survey-likert","582","1138279","0.0-582.0","x9fyxrs9","","","","","","","",""
"1145.6699999999255","","","instructions","583","1139425","0.0-583.0","x9fyxrs9","[{""page_index"":0,""viewing_time"":1145.4599999999627}]","","","","","","",""
"1474.255000000121","","","instructions","584","1140900","0.0-584.0","x9fyxrs9","[{""page_index"":0,""viewing_time"":1474.1450000000186}]","","","","","","",""
"5670.645000000019","{""post-1"":1}","[0]","survey-likert","585","1146572","0.0-585.0","x9fyxrs9","","","","","","","",""
"5867.725000000093","{""post-1"":1}","[0]","survey-likert","586","1152441","0.0-586.0","x9fyxrs9","","","","","","","",""
"1316.125","{""post-2"":1}","[0]","survey-likert","587","1153758","0.0-587.0","x9fyxrs9","","","","","","","",""
"6313.915000000037","{""post-2"":1}","[0]","survey-likert","588","1160074","0.0-588.0","x9fyxrs9","","","","","","","",""
"5894.229999999981","{""post-3"":2}","[0]","survey-likert","589","1165971","0.0-589.0","x9fyxrs9","","","","","","","",""
"1630.9799999999814","{""post-3"":1}","[0]","survey-likert","590","1167604","0.0-590.0","x9fyxrs9","","","","","","","",""
"7071.314999999944","{""post-4"":1}","[0]","survey-likert","591","1174677","0.0-591.0","x9fyxrs9","","","","","","","",""
"751.285000000149","{""post-4"":1}","[0]","survey-likert","592","1175430","0.0-592.0","x9fyxrs9","","","","","","","",""
"8931.89000000013","{""post-5"":1}","[0]","survey-likert","593","1184364","0.0-593.0","x9fyxrs9","","","","","","","",""
"4242.174999999814","{""post-5"":2}","[0]","survey-likert","594","1188607","0.0-594.0","x9fyxrs9","","","","","","","",""
"46535.095000000205","{""Q0"":""This one was a bit harder since I cannot consider the context of the image so I would be unsure if sudden movements or slow movements would be justifiable.""}","","survey-text","595","1235148","0.0-595.0","x9fyxrs9","","","","","","","",""
"57723.82999999984","{""Q0"":""A lot easier to spot the hotspots as it contrasts with the black background. I mainly just \""felt\"" the movement and dictated whether a movement seemed too unnatural or even dizzying at times.""}","","survey-text","596","1292875","0.0-596.0","x9fyxrs9","","","","","","","",""
"31073.51000000001","{""Q0"":""Again, no context of the image made it difficult to justify slow or sudden movements.""}","","survey-text","597","1323953","0.0-597.0","x9fyxrs9","","","","","","","",""
"1952.0550000001676","","","instructions","598","1325907","0.0-598.0","x9fyxrs9","[{""page_index"":0,""viewing_time"":1951.8400000000838}]","","","","","","",""
"116877.06500000018","{""Experimenter_end"":[""Printed ID# x9fyxrs9 on consent form"",""Given subject SONA credit or payment"",""Given the subject debrief form""]}","[0]","survey-multi-select","599","1442787","0.0-599.0","x9fyxrs9","","","","","","","",""
