"rt","responses","question_order","trial_type","trial_index","time_elapsed","internal_node_id","ID","view_history","stimulus","key_press","value","agent","condition","image","correct_answer"
"8524.875","{""Experimenter"":[""Confirmed subject's identity"",""Confirmed normal or corrected-to-normal vision"",""Obtained consent (signature and date)"",""Checked the test room lighting"",""Checked computer screen lighting"",""Checked distance from screen to chin rest (50cm)"",""Cleaned and adjusted chin rest"",""Counterbalanced the order of the tasks"",""Opened the experiment in Firefox"",""Made the experiment full screen"",""Encouraged subject to silence phone, put away distractors, etc.""]}","[0]","survey-multi-select","0","8532","0.0-0.0","xffq2jk0","","","","","","","",""
"13345.494999999999","","","instructions","1","21879","0.0-1.0","xffq2jk0","[{""page_index"":0,""viewing_time"":13344.945}]","","","","","","",""
"11722.695","","","instructions","2","33604","0.0-2.0","xffq2jk0","[{""page_index"":0,""viewing_time"":5337.540000000001},{""page_index"":1,""viewing_time"":1502.130000000001},{""page_index"":2,""viewing_time"":4882.899999999998}]","","","","","","",""
"1852.7950000000055","","","instructions","3","35457","0.0-3.0","xffq2jk0","[{""page_index"":0,""viewing_time"":1852.6900000000023}]","","","","","","",""
"null","","","video-keyboard-response","4","38533","0.0-4.0","xffq2jk0","","","null","","","","",""
"8129.309999999998","","","instructions","5","46663","0.0-5.0","xffq2jk0","[{""page_index"":0,""viewing_time"":3039.084999999999},{""page_index"":1,""viewing_time"":2406.9949999999953},{""page_index"":2,""viewing_time"":2683.125}]","","","","","","",""
"2304.5699999999997","","","instructions","6","48969","0.0-6.0","xffq2jk0","[{""page_index"":0,""viewing_time"":2304.459999999999}]","","","","","","",""
"1072.1949999999997","","","instructions","7","50042","0.0-7.0","xffq2jk0","[{""page_index"":0,""viewing_time"":1071.9700000000012}]","","","","","","",""
"null","","","video-keyboard-response","8","53115","0.0-8.0","xffq2jk0","","","null","","","","",""
"9223.934999999998","","","instructions","9","62339","0.0-9.0","xffq2jk0","[{""page_index"":0,""viewing_time"":1341.9700000000012},{""page_index"":1,""viewing_time"":3448.8600000000006},{""page_index"":2,""viewing_time"":4432.9649999999965}]","","","","","","",""
"5233.619999999995","","","instructions","10","67574","0.0-10.0","xffq2jk0","[{""page_index"":0,""viewing_time"":5233.505000000005}]","","","","","","",""
"","","","call-function","11","67575","0.0-11.0","xffq2jk0","","","","","","","",""
"null","","","html-keyboard-response","12","69079","0.0-12.0","xffq2jk0","","<span style=""color:Black; font-size:50px;"">Agent A","null","","","","",""
"null","","","video-keyboard-response","13","72150","0.0-13.0","xffq2jk0","","","null","","Agent A","scrambled","STIM_SET_5/1592747.bmp_pp53_L2_V1.0_veridical_freeview_isoTrue_Hflip_fps144.mp4",""
"null","","","html-keyboard-response","14","73653","0.0-14.0","xffq2jk0","","<span style=""color:Black; font-size:50px;"">Agent B","null","","","","",""
"null","","","video-keyboard-response","15","76720","0.0-15.0","xffq2jk0","","","null","","Agent B","veridical","STIM_SET_2_144/1592747.bmp_pp53_L2_V1.0_veridical_freeview_isoTrue_fps144.mp4",""
"","","","call-function","16","76721","0.0-16.0","xffq2jk0","","","","","","","",""
"2033.7000000000116","{""judgement"":1}","[0]","survey-likert","17","78756","0.0-17.0","xffq2jk0","","","","","","","","1"
"1979.5650000000023","{""confidence"":1}","[0]","survey-likert","18","80736","0.0-18.0","xffq2jk0","","","","","","","",""
"","","","call-function","19","80737","0.0-19.0","xffq2jk0","","","","","","","",""
"null","","","html-keyboard-response","20","82238","0.0-20.0","xffq2jk0","","<span style=""color:Black; font-size:50px;"">Agent A","null","","","","",""
"null","","","video-keyboard-response","21","85319","0.0-21.0","xffq2jk0","","","null","","Agent A","veridical","STIM_SET_2_144/286034.bmp_pp69_L3_V1.0_veridical_freeview_isoTrue_fps144.mp4",""
"null","","","html-keyboard-response","22","86823","0.0-22.0","xffq2jk0","","<span style=""color:Black; font-size:50px;"">Agent B","null","","","","",""
"null","","","video-keyboard-response","23","89902","0.0-23.0","xffq2jk0","","","null","","Agent B","scrambled","STIM_SET_5/286034.bmp_pp69_L3_V1.0_veridical_freeview_isoTrue_Hflip_fps144.mp4",""
"","","","call-function","24","89902","0.0-24.0","xffq2jk0","","","","","","","",""
"2166.300000000003","{""judgement"":0}","[0]","survey-likert","25","92069","0.0-25.0","xffq2jk0","","","","","","","","0"
"1927.6100000000006","{""confidence"":0}","[0]","survey-likert","26","93998","0.0-26.0","xffq2jk0","","","","","","","",""
"","","","call-function","27","93999","0.0-27.0","xffq2jk0","","","","","","","",""
"null","","","html-keyboard-response","28","95500","0.0-28.0","xffq2jk0","","<span style=""color:Black; font-size:50px;"">Agent A","null","","","","",""
"null","","","video-keyboard-response","29","98590","0.0-29.0","xffq2jk0","","","null","","Agent A","scrambled","STIM_SET_5/498372.bmp_pp95_L2_V1_veridical_freeview_isoTrue_Hflip_fps144.mp4",""
"null","","","html-keyboard-response","30","100095","0.0-30.0","xffq2jk0","","<span style=""color:Black; font-size:50px;"">Agent B","null","","","","",""
"null","","","video-keyboard-response","31","103172","0.0-31.0","xffq2jk0","","","null","","Agent B","veridical","STIM_SET_2_144/498372.bmp_pp95_L2_V1_veridical_freeview_isoTrue_fps144.mp4",""
"","","","call-function","32","103172","0.0-32.0","xffq2jk0","","","","","","","",""
"3190.0149999999994","{""judgement"":1}","[0]","survey-likert","33","106363","0.0-33.0","xffq2jk0","","","","","","","","1"
"3636.100000000006","{""confidence"":0}","[0]","survey-likert","34","110000","0.0-34.0","xffq2jk0","","","","","","","",""
"","","","call-function","35","110001","0.0-35.0","xffq2jk0","","","","","","","",""
"null","","","html-keyboard-response","36","111505","0.0-36.0","xffq2jk0","","<span style=""color:Black; font-size:50px;"">Agent A","null","","","","",""
"null","","","video-keyboard-response","37","114580","0.0-37.0","xffq2jk0","","","null","","Agent A","veridical","STIM_SET_2_144/1159860.bmp_pp152_L2_V1.0_veridical_freeview_isoTrue_fps144.mp4",""
"null","","","html-keyboard-response","38","116085","0.0-38.0","xffq2jk0","","<span style=""color:Black; font-size:50px;"">Agent B","null","","","","",""
"null","","","video-keyboard-response","39","119147","0.0-39.0","xffq2jk0","","","null","","Agent B","scrambled","STIM_SET_5/1159860.bmp_pp152_L2_V1.0_veridical_freeview_isoTrue_Hflip_fps144.mp4",""
"","","","call-function","40","119148","0.0-40.0","xffq2jk0","","","","","","","",""
"3378.779999999999","{""judgement"":0}","[0]","survey-likert","41","122528","0.0-41.0","xffq2jk0","","","","","","","","0"
"3239.0699999999924","{""confidence"":0}","[0]","survey-likert","42","125768","0.0-42.0","xffq2jk0","","","","","","","",""
"","","","call-function","43","125769","0.0-43.0","xffq2jk0","","","","","","","",""
"null","","","html-keyboard-response","44","127273","0.0-44.0","xffq2jk0","","<span style=""color:Black; font-size:50px;"">Agent A","null","","","","",""
"null","","","video-keyboard-response","45","130360","0.0-45.0","xffq2jk0","","","null","","Agent A","veridical","STIM_SET_2_144/1160204.bmp_pp54_L2_V1.0_veridical_freeview_isoTrue_fps144.mp4",""
"null","","","html-keyboard-response","46","131867","0.0-46.0","xffq2jk0","","<span style=""color:Black; font-size:50px;"">Agent B","null","","","","",""
"null","","","video-keyboard-response","47","134934","0.0-47.0","xffq2jk0","","","null","","Agent B","scrambled","STIM_SET_5/1160204.bmp_pp54_L2_V1.0_veridical_freeview_isoTrue_Hflip_fps144.mp4",""
"","","","call-function","48","134935","0.0-48.0","xffq2jk0","","","","","","","",""
"2286.070000000007","{""judgement"":0}","[0]","survey-likert","49","137222","0.0-49.0","xffq2jk0","","","","","","","","0"
"2280.5599999999977","{""confidence"":0}","[0]","survey-likert","50","139505","0.0-50.0","xffq2jk0","","","","","","","",""
"","","","call-function","51","139506","0.0-51.0","xffq2jk0","","","","","","","",""
"null","","","html-keyboard-response","52","141010","0.0-52.0","xffq2jk0","","<span style=""color:Black; font-size:50px;"">Agent A","null","","","","",""
"null","","","video-keyboard-response","53","144079","0.0-53.0","xffq2jk0","","","null","","Agent A","scrambled","STIM_SET_5/713274.bmp_pp73_L3_V1.0_veridical_freeview_isoTrue_Hflip_fps144.mp4",""
"null","","","html-keyboard-response","54","145584","0.0-54.0","xffq2jk0","","<span style=""color:Black; font-size:50px;"">Agent B","null","","","","",""
"null","","","video-keyboard-response","55","148654","0.0-55.0","xffq2jk0","","","null","","Agent B","veridical","STIM_SET_2_144/713274.bmp_pp73_L3_V1.0_veridical_freeview_isoTrue_fps144.mp4",""
"","","","call-function","56","148655","0.0-56.0","xffq2jk0","","","","","","","",""
"2789.4550000000163","{""judgement"":1}","[0]","survey-likert","57","151445","0.0-57.0","xffq2jk0","","","","","","","","1"
"1679.265000000014","{""confidence"":0}","[0]","survey-likert","58","153126","0.0-58.0","xffq2jk0","","","","","","","",""
"","","","call-function","59","153127","0.0-59.0","xffq2jk0","","","","","","","",""
"null","","","html-keyboard-response","60","154631","0.0-60.0","xffq2jk0","","<span style=""color:Black; font-size:50px;"">Agent A","null","","","","",""
"null","","","video-keyboard-response","61","157698","0.0-61.0","xffq2jk0","","","null","","Agent A","veridical","STIM_SET_2_144/285715.bmp_pp67_L2_V1.0_veridical_freeview_isoTrue_fps144.mp4",""
"null","","","html-keyboard-response","62","159201","0.0-62.0","xffq2jk0","","<span style=""color:Black; font-size:50px;"">Agent B","null","","","","",""
"null","","","video-keyboard-response","63","162266","0.0-63.0","xffq2jk0","","","null","","Agent B","scrambled","STIM_SET_5/285715.bmp_pp67_L2_V1.0_veridical_freeview_isoTrue_Hflip_fps144.mp4",""
"","","","call-function","64","162267","0.0-64.0","xffq2jk0","","","","","","","",""
"2969.2550000000047","{""judgement"":0}","[0]","survey-likert","65","165237","0.0-65.0","xffq2jk0","","","","","","","","0"
"1855.3949999999895","{""confidence"":0}","[0]","survey-likert","66","167094","0.0-66.0","xffq2jk0","","","","","","","",""
"","","","call-function","67","167094","0.0-67.0","xffq2jk0","","","","","","","",""
"null","","","html-keyboard-response","68","168600","0.0-68.0","xffq2jk0","","<span style=""color:Black; font-size:50px;"">Agent A","null","","","","",""
"null","","","video-keyboard-response","69","171683","0.0-69.0","xffq2jk0","","","null","","Agent A","scrambled","STIM_SET_5/1159427.bmp_pp98_L1_V1.0_veridical_freeview_isoTrue_Hflip_fps144.mp4",""
"null","","","html-keyboard-response","70","173189","0.0-70.0","xffq2jk0","","<span style=""color:Black; font-size:50px;"">Agent B","null","","","","",""
"null","","","video-keyboard-response","71","176268","0.0-71.0","xffq2jk0","","","null","","Agent B","veridical","STIM_SET_2_144/1159427.bmp_pp98_L1_V1.0_veridical_freeview_isoTrue_fps144.mp4",""
"","","","call-function","72","176268","0.0-72.0","xffq2jk0","","","","","","","",""
"2217.1600000000035","{""judgement"":0}","[0]","survey-likert","73","178486","0.0-73.0","xffq2jk0","","","","","","","","1"
"1560.9649999999965","{""confidence"":0}","[0]","survey-likert","74","180048","0.0-74.0","xffq2jk0","","","","","","","",""
"","","","call-function","75","180049","0.0-75.0","xffq2jk0","","","","","","","",""
"null","","","html-keyboard-response","76","181550","0.0-76.0","xffq2jk0","","<span style=""color:Black; font-size:50px;"">Agent A","null","","","","",""
"null","","","video-keyboard-response","77","184635","0.0-77.0","xffq2jk0","","","null","","Agent A","scrambled","STIM_SET_5/1592305.bmp_pp65_L3_V1.0_veridical_freeview_isoTrue_Hflip_fps144.mp4",""
"null","","","html-keyboard-response","78","186138","0.0-78.0","xffq2jk0","","<span style=""color:Black; font-size:50px;"">Agent B","null","","","","",""
"null","","","video-keyboard-response","79","189218","0.0-79.0","xffq2jk0","","","null","","Agent B","veridical","STIM_SET_2_144/1592305.bmp_pp65_L3_V1.0_veridical_freeview_isoTrue_fps144.mp4",""
"","","","call-function","80","189219","0.0-80.0","xffq2jk0","","","","","","","",""
"4070.954999999987","{""judgement"":0}","[0]","survey-likert","81","193291","0.0-81.0","xffq2jk0","","","","","","","","1"
"1415.4400000000023","{""confidence"":0}","[0]","survey-likert","82","194707","0.0-82.0","xffq2jk0","","","","","","","",""
"","","","call-function","83","194708","0.0-83.0","xffq2jk0","","","","","","","",""
"null","","","html-keyboard-response","84","196210","0.0-84.0","xffq2jk0","","<span style=""color:Black; font-size:50px;"">Agent A","null","","","","",""
"null","","","video-keyboard-response","85","199299","0.0-85.0","xffq2jk0","","","null","","Agent A","veridical","STIM_SET_2_144/285959.bmp_pp93_L1_V1.0_veridical_freeview_isoTrue_fps144.mp4",""
"null","","","html-keyboard-response","86","200804","0.0-86.0","xffq2jk0","","<span style=""color:Black; font-size:50px;"">Agent B","null","","","","",""
"null","","","video-keyboard-response","87","203893","0.0-87.0","xffq2jk0","","","null","","Agent B","scrambled","STIM_SET_5/285959.bmp_pp93_L1_V1.0_veridical_freeview_isoTrue_Hflip_fps144.mp4",""
"","","","call-function","88","203894","0.0-88.0","xffq2jk0","","","","","","","",""
"4153.720000000001","{""judgement"":1}","[0]","survey-likert","89","208048","0.0-89.0","xffq2jk0","","","","","","","","0"
"1571.7399999999907","{""confidence"":0}","[0]","survey-likert","90","209621","0.0-90.0","xffq2jk0","","","","","","","",""
"6524","","","instructions","91","216146","0.0-91.0","xffq2jk0","[{""page_index"":0,""viewing_time"":3071.2850000000035},{""page_index"":1,""viewing_time"":1220.164999999979},{""page_index"":2,""viewing_time"":2232.0650000000023}]","","","","","","",""
"4309.755000000005","","","instructions","92","220457","0.0-92.0","xffq2jk0","[{""page_index"":0,""viewing_time"":883.5899999999965},{""page_index"":1,""viewing_time"":2723.975000000006},{""page_index"":2,""viewing_time"":702.0500000000175}]","","","","","","",""
"","","","call-function","93","220457","0.0-93.0","xffq2jk0","","","","","","","",""
"null","","","html-keyboard-response","94","221962","0.0-94.0","xffq2jk0","","<span style=""color:Black; font-size:50px;"">Agent A","null","","","","",""
"null","","","video-keyboard-response","95","225038","0.0-95.0","xffq2jk0","","","null","","Agent A","veridical","STIM_SET_2_144/1592038.bmp_pp79_L2_V1.0_veridical_freeview_isoTrue_fps144.mp4",""
"null","","","html-keyboard-response","96","226540","0.0-96.0","xffq2jk0","","<span style=""color:Black; font-size:50px;"">Agent B","null","","","","",""
"null","","","video-keyboard-response","97","229616","0.0-97.0","xffq2jk0","","","null","","Agent B","scrambled","STIM_SET_5/1592038.bmp_pp79_L2_V1.0_veridical_freeview_isoTrue_Hflip_fps144.mp4",""
"","","","call-function","98","229617","0.0-98.0","xffq2jk0","","","","","","","",""
"3472.959999999992","{""judgement"":0}","[0]","survey-likert","99","233091","0.0-99.0","xffq2jk0","","","","","","","","0"
"1887.6800000000221","{""confidence"":0}","[0]","survey-likert","100","234979","0.0-100.0","xffq2jk0","","","","","","","",""
"","","","call-function","101","234980","0.0-101.0","xffq2jk0","","","","","","","",""
"null","","","html-keyboard-response","102","236486","0.0-102.0","xffq2jk0","","<span style=""color:Black; font-size:50px;"">Agent A","null","","","","",""
"null","","","video-keyboard-response","103","239556","0.0-103.0","xffq2jk0","","","null","","Agent A","veridical","STIM_SET_2_144/498396.bmp_pp99_L2_V1.0_veridical_freeview_isoTrue_fps144.mp4",""
"null","","","html-keyboard-response","104","241059","0.0-104.0","xffq2jk0","","<span style=""color:Black; font-size:50px;"">Agent B","null","","","","",""
"null","","","video-keyboard-response","105","244132","0.0-105.0","xffq2jk0","","","null","","Agent B","scrambled","STIM_SET_5/498396.bmp_pp99_L2_V1.0_veridical_freeview_isoTrue_Hflip_fps144.mp4",""
"","","","call-function","106","244133","0.0-106.0","xffq2jk0","","","","","","","",""
"3401.274999999994","{""judgement"":0}","[0]","survey-likert","107","247536","0.0-107.0","xffq2jk0","","","","","","","","0"
"1334.109999999986","{""confidence"":0}","[0]","survey-likert","108","248872","0.0-108.0","xffq2jk0","","","","","","","",""
"","","","call-function","109","248873","0.0-109.0","xffq2jk0","","","","","","","",""
"null","","","html-keyboard-response","110","250378","0.0-110.0","xffq2jk0","","<span style=""color:Black; font-size:50px;"">Agent A","null","","","","",""
"null","","","video-keyboard-response","111","253461","0.0-111.0","xffq2jk0","","","null","","Agent A","veridical","STIM_SET_2_144/498025.bmp_pp81_L1_V1.0_veridical_freeview_isoTrue_fps144.mp4",""
"null","","","html-keyboard-response","112","254964","0.0-112.0","xffq2jk0","","<span style=""color:Black; font-size:50px;"">Agent B","null","","","","",""
"null","","","video-keyboard-response","113","258050","0.0-113.0","xffq2jk0","","","null","","Agent B","scrambled","STIM_SET_5/498025.bmp_pp81_L1_V1.0_veridical_freeview_isoTrue_Hflip_fps144.mp4",""
"","","","call-function","114","258051","0.0-114.0","xffq2jk0","","","","","","","",""
"3381.665000000008","{""judgement"":0}","[0]","survey-likert","115","261434","0.0-115.0","xffq2jk0","","","","","","","","0"
"1483.1849999999686","{""confidence"":0}","[0]","survey-likert","116","262919","0.0-116.0","xffq2jk0","","","","","","","",""
"","","","call-function","117","262919","0.0-117.0","xffq2jk0","","","","","","","",""
"null","","","html-keyboard-response","118","264425","0.0-118.0","xffq2jk0","","<span style=""color:Black; font-size:50px;"">Agent A","null","","","","",""
"null","","","video-keyboard-response","119","267491","0.0-119.0","xffq2jk0","","","null","","Agent A","veridical","STIM_SET_2_144/1159325.bmp_pp67_L2_V1.0_veridical_freeview_isoTrue_fps144.mp4",""
"null","","","html-keyboard-response","120","268998","0.0-120.0","xffq2jk0","","<span style=""color:Black; font-size:50px;"">Agent B","null","","","","",""
"null","","","video-keyboard-response","121","272062","0.0-121.0","xffq2jk0","","","null","","Agent B","scrambled","STIM_SET_5/1159325.bmp_pp67_L2_V1.0_veridical_freeview_isoTrue_Hflip_fps144.mp4",""
"","","","call-function","122","272063","0.0-122.0","xffq2jk0","","","","","","","",""
"3317.8699999999953","{""judgement"":1}","[0]","survey-likert","123","275382","0.0-123.0","xffq2jk0","","","","","","","","0"
"2053.9850000000442","{""confidence"":0}","[0]","survey-likert","124","277437","0.0-124.0","xffq2jk0","","","","","","","",""
"","","","call-function","125","277438","0.0-125.0","xffq2jk0","","","","","","","",""
"null","","","html-keyboard-response","126","278942","0.0-126.0","xffq2jk0","","<span style=""color:Black; font-size:50px;"">Agent A","null","","","","",""
"null","","","video-keyboard-response","127","282026","0.0-127.0","xffq2jk0","","","null","","Agent A","scrambled","STIM_SET_5/1592350.bmp_pp55_L3_V1.0_veridical_freeview_isoTrue_Hflip_fps144.mp4",""
"null","","","html-keyboard-response","128","283532","0.0-128.0","xffq2jk0","","<span style=""color:Black; font-size:50px;"">Agent B","null","","","","",""
"null","","","video-keyboard-response","129","286616","0.0-129.0","xffq2jk0","","","null","","Agent B","veridical","STIM_SET_2_144/1592350.bmp_pp55_L3_V1.0_veridical_freeview_isoTrue_fps144.mp4",""
"","","","call-function","130","286616","0.0-130.0","xffq2jk0","","","","","","","",""
"4334.945000000007","{""judgement"":1}","[0]","survey-likert","131","290952","0.0-131.0","xffq2jk0","","","","","","","","1"
"2742.3699999999953","{""confidence"":0}","[0]","survey-likert","132","293696","0.0-132.0","xffq2jk0","","","","","","","",""
"","","","call-function","133","293697","0.0-133.0","xffq2jk0","","","","","","","",""
"null","","","html-keyboard-response","134","295199","0.0-134.0","xffq2jk0","","<span style=""color:Black; font-size:50px;"">Agent A","null","","","","",""
"null","","","video-keyboard-response","135","298275","0.0-135.0","xffq2jk0","","","null","","Agent A","veridical","STIM_SET_2_144/713652.bmp_pp89_L1_V1_veridical_freeview_isoTrue_fps144.mp4",""
"null","","","html-keyboard-response","136","299778","0.0-136.0","xffq2jk0","","<span style=""color:Black; font-size:50px;"">Agent B","null","","","","",""
"null","","","video-keyboard-response","137","302859","0.0-137.0","xffq2jk0","","","null","","Agent B","scrambled","STIM_SET_5/713652.bmp_pp89_L1_V1_veridical_freeview_isoTrue_Hflip_fps144.mp4",""
"","","","call-function","138","302860","0.0-138.0","xffq2jk0","","","","","","","",""
"1682.7200000000303","{""judgement"":0}","[0]","survey-likert","139","304543","0.0-139.0","xffq2jk0","","","","","","","","0"
"1603.899999999965","{""confidence"":0}","[0]","survey-likert","140","306149","0.0-140.0","xffq2jk0","","","","","","","",""
"","","","call-function","141","306149","0.0-141.0","xffq2jk0","","","","","","","",""
"null","","","html-keyboard-response","142","307651","0.0-142.0","xffq2jk0","","<span style=""color:Black; font-size:50px;"">Agent A","null","","","","",""
"null","","","video-keyboard-response","143","310731","0.0-143.0","xffq2jk0","","","null","","Agent A","scrambled","STIM_SET_5/1592314.bmp_pp100_L3_V1.0_veridical_freeview_isoTrue_Hflip_fps144.mp4",""
"null","","","html-keyboard-response","144","312235","0.0-144.0","xffq2jk0","","<span style=""color:Black; font-size:50px;"">Agent B","null","","","","",""
"null","","","video-keyboard-response","145","315312","0.0-145.0","xffq2jk0","","","null","","Agent B","veridical","STIM_SET_2_144/1592314.bmp_pp100_L3_V1.0_veridical_freeview_isoTrue_fps144.mp4",""
"","","","call-function","146","315313","0.0-146.0","xffq2jk0","","","","","","","",""
"3059.5650000000023","{""judgement"":1}","[0]","survey-likert","147","318374","0.0-147.0","xffq2jk0","","","","","","","","1"
"2006.0199999999604","{""confidence"":0}","[0]","survey-likert","148","320381","0.0-148.0","xffq2jk0","","","","","","","",""
"","","","call-function","149","320382","0.0-149.0","xffq2jk0","","","","","","","",""
"null","","","html-keyboard-response","150","321884","0.0-150.0","xffq2jk0","","<span style=""color:Black; font-size:50px;"">Agent A","null","","","","",""
"null","","","video-keyboard-response","151","324946","0.0-151.0","xffq2jk0","","","null","","Agent A","veridical","STIM_SET_2_144/498398.bmp_pp81_L1_V1.0_veridical_freeview_isoTrue_fps144.mp4",""
"null","","","html-keyboard-response","152","326451","0.0-152.0","xffq2jk0","","<span style=""color:Black; font-size:50px;"">Agent B","null","","","","",""
"null","","","video-keyboard-response","153","329516","0.0-153.0","xffq2jk0","","","null","","Agent B","scrambled","STIM_SET_5/498398.bmp_pp81_L1_V1.0_veridical_freeview_isoTrue_Hflip_fps144.mp4",""
"","","","call-function","154","329517","0.0-154.0","xffq2jk0","","","","","","","",""
"3363.9799999999814","{""judgement"":1}","[0]","survey-likert","155","332881","0.0-155.0","xffq2jk0","","","","","","","","0"
"2371.859999999986","{""confidence"":0}","[0]","survey-likert","156","335255","0.0-156.0","xffq2jk0","","","","","","","",""
"","","","call-function","157","335255","0.0-157.0","xffq2jk0","","","","","","","",""
"null","","","html-keyboard-response","158","336759","0.0-158.0","xffq2jk0","","<span style=""color:Black; font-size:50px;"">Agent A","null","","","","",""
"null","","","video-keyboard-response","159","339823","0.0-159.0","xffq2jk0","","","null","","Agent A","scrambled","STIM_SET_5/107955.bmp_pp90_L2_V1.0_veridical_freeview_isoTrue_Hflip_fps144.mp4",""
"null","","","html-keyboard-response","160","341326","0.0-160.0","xffq2jk0","","<span style=""color:Black; font-size:50px;"">Agent B","null","","","","",""
"null","","","video-keyboard-response","161","344390","0.0-161.0","xffq2jk0","","","null","","Agent B","veridical","STIM_SET_2_144/107955.bmp_pp90_L2_V1.0_veridical_freeview_isoTrue_fps144.mp4",""
"","","","call-function","162","344391","0.0-162.0","xffq2jk0","","","","","","","",""
"2671.6600000000326","{""judgement"":1}","[0]","survey-likert","163","347063","0.0-163.0","xffq2jk0","","","","","","","","1"
"1925.5200000000186","{""confidence"":0}","[0]","survey-likert","164","348990","0.0-164.0","xffq2jk0","","","","","","","",""
"","","","call-function","165","348991","0.0-165.0","xffq2jk0","","","","","","","",""
"null","","","html-keyboard-response","166","350493","0.0-166.0","xffq2jk0","","<span style=""color:Black; font-size:50px;"">Agent A","null","","","","",""
"null","","","video-keyboard-response","167","353563","0.0-167.0","xffq2jk0","","","null","","Agent A","scrambled","STIM_SET_5/713788.bmp_pp52_L1_V1.0_veridical_freeview_isoTrue_Hflip_fps144.mp4",""
"null","","","html-keyboard-response","168","355064","0.0-168.0","xffq2jk0","","<span style=""color:Black; font-size:50px;"">Agent B","null","","","","",""
"null","","","video-keyboard-response","169","358135","0.0-169.0","xffq2jk0","","","null","","Agent B","veridical","STIM_SET_2_144/713788.bmp_pp52_L1_V1.0_veridical_freeview_isoTrue_fps144.mp4",""
"","","","call-function","170","358136","0.0-170.0","xffq2jk0","","","","","","","",""
"3282.984999999986","{""judgement"":1}","[0]","survey-likert","171","361420","0.0-171.0","xffq2jk0","","","","","","","","1"
"1761.219999999972","{""confidence"":0}","[0]","survey-likert","172","363182","0.0-172.0","xffq2jk0","","","","","","","",""
"2958.2700000000186","","","instructions","173","366141","0.0-173.0","xffq2jk0","[{""page_index"":0,""viewing_time"":1329.8950000000186},{""page_index"":1,""viewing_time"":694.015000000014},{""page_index"":2,""viewing_time"":934.1549999999697}]","","","","","","",""
"1544.0849999999627","","","instructions","174","367686","0.0-174.0","xffq2jk0","[{""page_index"":0,""viewing_time"":488.98499999998603},{""page_index"":1,""viewing_time"":514.945000000007},{""page_index"":2,""viewing_time"":540.0449999999837}]","","","","","","",""
"","","","call-function","175","367687","0.0-175.0","xffq2jk0","","","","","","","",""
"null","","","html-keyboard-response","176","369189","0.0-176.0","xffq2jk0","","<span style=""color:Black; font-size:50px;"">Agent A","null","","","","",""
"null","","","video-keyboard-response","177","372275","0.0-177.0","xffq2jk0","","","null","","Agent A","veridical","STIM_SET_2_144/1159973.bmp_pp98_L1_V1.0_veridical_freeview_isoTrue_fps144.mp4",""
"null","","","html-keyboard-response","178","373781","0.0-178.0","xffq2jk0","","<span style=""color:Black; font-size:50px;"">Agent B","null","","","","",""
"null","","","video-keyboard-response","179","376869","0.0-179.0","xffq2jk0","","","null","","Agent B","scrambled","STIM_SET_5/1159973.bmp_pp98_L1_V1.0_veridical_freeview_isoTrue_Hflip_fps144.mp4",""
"","","","call-function","180","376870","0.0-180.0","xffq2jk0","","","","","","","",""
"2643.6999999999534","{""judgement"":0}","[0]","survey-likert","181","379514","0.0-181.0","xffq2jk0","","","","","","","","0"
"2327.594999999972","{""confidence"":0}","[0]","survey-likert","182","381843","0.0-182.0","xffq2jk0","","","","","","","",""
"","","","call-function","183","381844","0.0-183.0","xffq2jk0","","","","","","","",""
"null","","","html-keyboard-response","184","383345","0.0-184.0","xffq2jk0","","<span style=""color:Black; font-size:50px;"">Agent A","null","","","","",""
"null","","","video-keyboard-response","185","386437","0.0-185.0","xffq2jk0","","","null","","Agent A","veridical","STIM_SET_2_144/1591781.bmp_pp63_L1_V1.0_veridical_freeview_isoTrue_fps144.mp4",""
"null","","","html-keyboard-response","186","387943","0.0-186.0","xffq2jk0","","<span style=""color:Black; font-size:50px;"">Agent B","null","","","","",""
"null","","","video-keyboard-response","187","391033","0.0-187.0","xffq2jk0","","","null","","Agent B","scrambled","STIM_SET_5/1591781.bmp_pp63_L1_V1.0_veridical_freeview_isoTrue_Hflip_fps144.mp4",""
"","","","call-function","188","391034","0.0-188.0","xffq2jk0","","","","","","","",""
"2094.804999999993","{""judgement"":1}","[0]","survey-likert","189","393129","0.0-189.0","xffq2jk0","","","","","","","","0"
"1408.3250000000116","{""confidence"":1}","[0]","survey-likert","190","394539","0.0-190.0","xffq2jk0","","","","","","","",""
"","","","call-function","191","394539","0.0-191.0","xffq2jk0","","","","","","","",""
"null","","","html-keyboard-response","192","396044","0.0-192.0","xffq2jk0","","<span style=""color:Black; font-size:50px;"">Agent A","null","","","","",""
"null","","","video-keyboard-response","193","399131","0.0-193.0","xffq2jk0","","","null","","Agent A","scrambled","STIM_SET_5/1592201.bmp_pp97_L3_V1.0_veridical_freeview_isoTrue_Hflip_fps144.mp4",""
"null","","","html-keyboard-response","194","400633","0.0-194.0","xffq2jk0","","<span style=""color:Black; font-size:50px;"">Agent B","null","","","","",""
"null","","","video-keyboard-response","195","403700","0.0-195.0","xffq2jk0","","","null","","Agent B","veridical","STIM_SET_2_144/1592201.bmp_pp97_L3_V1.0_veridical_freeview_isoTrue_fps144.mp4",""
"","","","call-function","196","403701","0.0-196.0","xffq2jk0","","","","","","","",""
"3046.3850000000093","{""judgement"":0}","[0]","survey-likert","197","406749","0.0-197.0","xffq2jk0","","","","","","","","1"
"1284.344999999972","{""confidence"":0}","[0]","survey-likert","198","408034","0.0-198.0","xffq2jk0","","","","","","","",""
"","","","call-function","199","408035","0.0-199.0","xffq2jk0","","","","","","","",""
"null","","","html-keyboard-response","200","409540","0.0-200.0","xffq2jk0","","<span style=""color:Black; font-size:50px;"">Agent A","null","","","","",""
"null","","","video-keyboard-response","201","412611","0.0-201.0","xffq2jk0","","","null","","Agent A","scrambled","STIM_SET_5/1592289.bmp_pp92_L3_V1.0_veridical_freeview_isoTrue_Hflip_fps144.mp4",""
"null","","","html-keyboard-response","202","414116","0.0-202.0","xffq2jk0","","<span style=""color:Black; font-size:50px;"">Agent B","null","","","","",""
"null","","","video-keyboard-response","203","417186","0.0-203.0","xffq2jk0","","","null","","Agent B","veridical","STIM_SET_2_144/1592289.bmp_pp92_L3_V1.0_veridical_freeview_isoTrue_fps144.mp4",""
"","","","call-function","204","417187","0.0-204.0","xffq2jk0","","","","","","","",""
"4144.359999999986","{""judgement"":0}","[0]","survey-likert","205","421332","0.0-205.0","xffq2jk0","","","","","","","","1"
"1869.780000000028","{""confidence"":0}","[0]","survey-likert","206","423203","0.0-206.0","xffq2jk0","","","","","","","",""
"","","","call-function","207","423204","0.0-207.0","xffq2jk0","","","","","","","",""
"null","","","html-keyboard-response","208","424706","0.0-208.0","xffq2jk0","","<span style=""color:Black; font-size:50px;"">Agent A","null","","","","",""
"null","","","video-keyboard-response","209","427765","0.0-209.0","xffq2jk0","","","null","","Agent A","veridical","STIM_SET_2_144/498326.bmp_pp57_L1_V1.0_veridical_freeview_isoTrue_fps144.mp4",""
"null","","","html-keyboard-response","210","429267","0.0-210.0","xffq2jk0","","<span style=""color:Black; font-size:50px;"">Agent B","null","","","","",""
"null","","","video-keyboard-response","211","432343","0.0-211.0","xffq2jk0","","","null","","Agent B","scrambled","STIM_SET_5/498326.bmp_pp57_L1_V1.0_veridical_freeview_isoTrue_Hflip_fps144.mp4",""
"","","","call-function","212","432344","0.0-212.0","xffq2jk0","","","","","","","",""
"3465.4799999999814","{""judgement"":1}","[0]","survey-likert","213","435810","0.0-213.0","xffq2jk0","","","","","","","","0"
"1468.9150000000373","{""confidence"":0}","[0]","survey-likert","214","437280","0.0-214.0","xffq2jk0","","","","","","","",""
"","","","call-function","215","437281","0.0-215.0","xffq2jk0","","","","","","","",""
"null","","","html-keyboard-response","216","438783","0.0-216.0","xffq2jk0","","<span style=""color:Black; font-size:50px;"">Agent A","null","","","","",""
"null","","","video-keyboard-response","217","441876","0.0-217.0","xffq2jk0","","","null","","Agent A","scrambled","STIM_SET_5/713742.bmp_pp91_L3_V1.0_veridical_freeview_isoTrue_Hflip_fps144.mp4",""
"null","","","html-keyboard-response","218","443379","0.0-218.0","xffq2jk0","","<span style=""color:Black; font-size:50px;"">Agent B","null","","","","",""
"null","","","video-keyboard-response","219","446470","0.0-219.0","xffq2jk0","","","null","","Agent B","veridical","STIM_SET_2_144/713742.bmp_pp91_L3_V1.0_veridical_freeview_isoTrue_fps144.mp4",""
"","","","call-function","220","446471","0.0-220.0","xffq2jk0","","","","","","","",""
"2614.7649999999558","{""judgement"":0}","[0]","survey-likert","221","449087","0.0-221.0","xffq2jk0","","","","","","","","1"
"2328.0950000000303","{""confidence"":0}","[0]","survey-likert","222","451417","0.0-222.0","xffq2jk0","","","","","","","",""
"","","","call-function","223","451419","0.0-223.0","xffq2jk0","","","","","","","",""
"null","","","html-keyboard-response","224","452921","0.0-224.0","xffq2jk0","","<span style=""color:Black; font-size:50px;"">Agent A","null","","","","",""
"null","","","video-keyboard-response","225","455995","0.0-225.0","xffq2jk0","","","null","","Agent A","scrambled","STIM_SET_5/107909.bmp_pp95_L2_V1.0_veridical_freeview_isoTrue_Hflip_fps144.mp4",""
"null","","","html-keyboard-response","226","457500","0.0-226.0","xffq2jk0","","<span style=""color:Black; font-size:50px;"">Agent B","null","","","","",""
"null","","","video-keyboard-response","227","460576","0.0-227.0","xffq2jk0","","","null","","Agent B","veridical","STIM_SET_2_144/107909.bmp_pp95_L2_V1.0_veridical_freeview_isoTrue_fps144.mp4",""
"","","","call-function","228","460577","0.0-228.0","xffq2jk0","","","","","","","",""
"2682.2200000000303","{""judgement"":1}","[0]","survey-likert","229","463260","0.0-229.0","xffq2jk0","","","","","","","","1"
"1823.5400000000373","{""confidence"":0}","[0]","survey-likert","230","465085","0.0-230.0","xffq2jk0","","","","","","","",""
"","","","call-function","231","465086","0.0-231.0","xffq2jk0","","","","","","","",""
"null","","","html-keyboard-response","232","466592","0.0-232.0","xffq2jk0","","<span style=""color:Black; font-size:50px;"">Agent A","null","","","","",""
"null","","","video-keyboard-response","233","469658","0.0-233.0","xffq2jk0","","","null","","Agent A","scrambled","STIM_SET_5/285684.bmp_pp80_L3_V1.0_veridical_freeview_isoTrue_Hflip_fps144.mp4",""
"null","","","html-keyboard-response","234","471161","0.0-234.0","xffq2jk0","","<span style=""color:Black; font-size:50px;"">Agent B","null","","","","",""
"null","","","video-keyboard-response","235","474223","0.0-235.0","xffq2jk0","","","null","","Agent B","veridical","STIM_SET_2_144/285684.bmp_pp80_L3_V1.0_veridical_freeview_isoTrue_fps144.mp4",""
"","","","call-function","236","474224","0.0-236.0","xffq2jk0","","","","","","","",""
"2957.0299999999697","{""judgement"":1}","[0]","survey-likert","237","477182","0.0-237.0","xffq2jk0","","","","","","","","1"
"2336.5599999999977","{""confidence"":0}","[0]","survey-likert","238","479520","0.0-238.0","xffq2jk0","","","","","","","",""
"","","","call-function","239","479521","0.0-239.0","xffq2jk0","","","","","","","",""
"null","","","html-keyboard-response","240","481024","0.0-240.0","xffq2jk0","","<span style=""color:Black; font-size:50px;"">Agent A","null","","","","",""
"null","","","video-keyboard-response","241","484118","0.0-241.0","xffq2jk0","","","null","","Agent A","scrambled","STIM_SET_5/1159874.bmp_pp96_L2_V1.0_veridical_freeview_isoTrue_Hflip_fps144.mp4",""
"null","","","html-keyboard-response","242","485624","0.0-242.0","xffq2jk0","","<span style=""color:Black; font-size:50px;"">Agent B","null","","","","",""
"null","","","video-keyboard-response","243","488720","0.0-243.0","xffq2jk0","","","null","","Agent B","veridical","STIM_SET_2_144/1159874.bmp_pp96_L2_V1.0_veridical_freeview_isoTrue_fps144.mp4",""
"","","","call-function","244","488721","0.0-244.0","xffq2jk0","","","","","","","",""
"3831.359999999986","{""judgement"":0}","[0]","survey-likert","245","492553","0.0-245.0","xffq2jk0","","","","","","","","1"
"2225.734999999986","{""confidence"":0}","[0]","survey-likert","246","494780","0.0-246.0","xffq2jk0","","","","","","","",""
"","","","call-function","247","494781","0.0-247.0","xffq2jk0","","","","","","","",""
"null","","","html-keyboard-response","248","496284","0.0-248.0","xffq2jk0","","<span style=""color:Black; font-size:50px;"">Agent A","null","","","","",""
"null","","","video-keyboard-response","249","499365","0.0-249.0","xffq2jk0","","","null","","Agent A","veridical","STIM_SET_2_144/1159956.bmp_pp59_L3_V1.0_veridical_freeview_isoTrue_fps144.mp4",""
"null","","","html-keyboard-response","250","500868","0.0-250.0","xffq2jk0","","<span style=""color:Black; font-size:50px;"">Agent B","null","","","","",""
"null","","","video-keyboard-response","251","503950","0.0-251.0","xffq2jk0","","","null","","Agent B","scrambled","STIM_SET_5/1159956.bmp_pp59_L3_V1.0_veridical_freeview_isoTrue_Hflip_fps144.mp4",""
"","","","call-function","252","503950","0.0-252.0","xffq2jk0","","","","","","","",""
"2084.5950000000303","{""judgement"":1}","[0]","survey-likert","253","506036","0.0-253.0","xffq2jk0","","","","","","","","0"
"1733.0250000000233","{""confidence"":0}","[0]","survey-likert","254","507771","0.0-254.0","xffq2jk0","","","","","","","",""
"11303.765000000014","","","instructions","255","519075","0.0-255.0","xffq2jk0","[{""page_index"":0,""viewing_time"":9298.729999999981},{""page_index"":1,""viewing_time"":643.890000000014},{""page_index"":2,""viewing_time"":1360.9349999999977}]","","","","","","",""
"2569.3450000000303","","","instructions","256","521645","0.0-256.0","xffq2jk0","[{""page_index"":0,""viewing_time"":1282.1450000000186},{""page_index"":1,""viewing_time"":645.2249999999767},{""page_index"":2,""viewing_time"":641.8649999999907}]","","","","","","",""
"","","","call-function","257","521646","0.0-257.0","xffq2jk0","","","","","","","",""
"null","","","html-keyboard-response","258","523147","0.0-258.0","xffq2jk0","","<span style=""color:Black; font-size:50px;"">Agent A","null","","","","",""
"null","","","video-keyboard-response","259","526213","0.0-259.0","xffq2jk0","","","null","","Agent A","scrambled","STIM_SET_5/1592530.bmp_pp75_L1_V1.0_veridical_freeview_isoTrue_Hflip_fps144.mp4",""
"null","","","html-keyboard-response","260","527717","0.0-260.0","xffq2jk0","","<span style=""color:Black; font-size:50px;"">Agent B","null","","","","",""
"null","","","video-keyboard-response","261","530785","0.0-261.0","xffq2jk0","","","null","","Agent B","veridical","STIM_SET_2_144/1592530.bmp_pp75_L1_V1.0_veridical_freeview_isoTrue_fps144.mp4",""
"","","","call-function","262","530786","0.0-262.0","xffq2jk0","","","","","","","",""
"2469.1300000000047","{""judgement"":0}","[0]","survey-likert","263","533256","0.0-263.0","xffq2jk0","","","","","","","","1"
"2189.204999999958","{""confidence"":0}","[0]","survey-likert","264","535447","0.0-264.0","xffq2jk0","","","","","","","",""
"","","","call-function","265","535447","0.0-265.0","xffq2jk0","","","","","","","",""
"null","","","html-keyboard-response","266","536951","0.0-266.0","xffq2jk0","","<span style=""color:Black; font-size:50px;"">Agent A","null","","","","",""
"null","","","video-keyboard-response","267","540019","0.0-267.0","xffq2jk0","","","null","","Agent A","veridical","STIM_SET_2_144/61513.bmp_pp75_L1_V1.0_veridical_freeview_isoTrue_fps144.mp4",""
"null","","","html-keyboard-response","268","541524","0.0-268.0","xffq2jk0","","<span style=""color:Black; font-size:50px;"">Agent B","null","","","","",""
"null","","","video-keyboard-response","269","544590","0.0-269.0","xffq2jk0","","","null","","Agent B","scrambled","STIM_SET_5/61513.bmp_pp75_L1_V1.0_veridical_freeview_isoTrue_Hflip_fps144.mp4",""
"","","","call-function","270","544592","0.0-270.0","xffq2jk0","","","","","","","",""
"2870.784999999916","{""judgement"":1}","[0]","survey-likert","271","547465","0.0-271.0","xffq2jk0","","","","","","","","0"
"2810.534999999916","{""confidence"":0}","[0]","survey-likert","272","550278","0.0-272.0","xffq2jk0","","","","","","","",""
"","","","call-function","273","550279","0.0-273.0","xffq2jk0","","","","","","","",""
"null","","","html-keyboard-response","274","551782","0.0-274.0","xffq2jk0","","<span style=""color:Black; font-size:50px;"">Agent A","null","","","","",""
"null","","","video-keyboard-response","275","554845","0.0-275.0","xffq2jk0","","","null","","Agent A","veridical","STIM_SET_2_144/1592129.bmp_pp153_L3_V1.0_veridical_freeview_isoTrue_fps144.mp4",""
"null","","","html-keyboard-response","276","556350","0.0-276.0","xffq2jk0","","<span style=""color:Black; font-size:50px;"">Agent B","null","","","","",""
"null","","","video-keyboard-response","277","559412","0.0-277.0","xffq2jk0","","","null","","Agent B","scrambled","STIM_SET_5/1592129.bmp_pp153_L3_V1.0_veridical_freeview_isoTrue_Hflip_fps144.mp4",""
"","","","call-function","278","559413","0.0-278.0","xffq2jk0","","","","","","","",""
"3075.54999999993","{""judgement"":1}","[0]","survey-likert","279","562490","0.0-279.0","xffq2jk0","","","","","","","","0"
"2495.094999999972","{""confidence"":0}","[0]","survey-likert","280","564986","0.0-280.0","xffq2jk0","","","","","","","",""
"","","","call-function","281","564987","0.0-281.0","xffq2jk0","","","","","","","",""
"null","","","html-keyboard-response","282","566490","0.0-282.0","xffq2jk0","","<span style=""color:Black; font-size:50px;"">Agent A","null","","","","",""
"null","","","video-keyboard-response","283","569556","0.0-283.0","xffq2jk0","","","null","","Agent A","veridical","STIM_SET_2_144/1159392.bmp_pp96_L2_V1.0_veridical_freeview_isoTrue_fps144.mp4",""
"null","","","html-keyboard-response","284","571059","0.0-284.0","xffq2jk0","","<span style=""color:Black; font-size:50px;"">Agent B","null","","","","",""
"null","","","video-keyboard-response","285","574121","0.0-285.0","xffq2jk0","","","null","","Agent B","scrambled","STIM_SET_5/1159392.bmp_pp96_L2_V1.0_veridical_freeview_isoTrue_Hflip_fps144.mp4",""
"","","","call-function","286","574121","0.0-286.0","xffq2jk0","","","","","","","",""
"3993.2850000000326","{""judgement"":1}","[0]","survey-likert","287","578115","0.0-287.0","xffq2jk0","","","","","","","","0"
"5081.795000000042","{""confidence"":0}","[0]","survey-likert","288","583199","0.0-288.0","xffq2jk0","","","","","","","",""
"","","","call-function","289","583199","0.0-289.0","xffq2jk0","","","","","","","",""
"null","","","html-keyboard-response","290","584702","0.0-290.0","xffq2jk0","","<span style=""color:Black; font-size:50px;"">Agent A","null","","","","",""
"null","","","video-keyboard-response","291","587794","0.0-291.0","xffq2jk0","","","null","","Agent A","veridical","STIM_SET_2_144/1592568.bmp_pp71_L1_V1.0_veridical_freeview_isoTrue_fps144.mp4",""
"null","","","html-keyboard-response","292","589295","0.0-292.0","xffq2jk0","","<span style=""color:Black; font-size:50px;"">Agent B","null","","","","",""
"null","","","video-keyboard-response","293","592388","0.0-293.0","xffq2jk0","","","null","","Agent B","scrambled","STIM_SET_5/1592568.bmp_pp71_L1_V1.0_veridical_freeview_isoTrue_Hflip_fps144.mp4",""
"","","","call-function","294","592389","0.0-294.0","xffq2jk0","","","","","","","",""
"3235.7550000000047","{""judgement"":0}","[0]","survey-likert","295","595625","0.0-295.0","xffq2jk0","","","","","","","","0"
"2944.4000000000233","{""confidence"":0}","[0]","survey-likert","296","598571","0.0-296.0","xffq2jk0","","","","","","","",""
"","","","call-function","297","598572","0.0-297.0","xffq2jk0","","","","","","","",""
"null","","","html-keyboard-response","298","600076","0.0-298.0","xffq2jk0","","<span style=""color:Black; font-size:50px;"">Agent A","null","","","","",""
"null","","","video-keyboard-response","299","603168","0.0-299.0","xffq2jk0","","","null","","Agent A","scrambled","STIM_SET_5/713633.bmp_pp58_L1_V1.0_veridical_freeview_isoTrue_Hflip_fps144.mp4",""
"null","","","html-keyboard-response","300","604674","0.0-300.0","xffq2jk0","","<span style=""color:Black; font-size:50px;"">Agent B","null","","","","",""
"null","","","video-keyboard-response","301","607766","0.0-301.0","xffq2jk0","","","null","","Agent B","veridical","STIM_SET_2_144/713633.bmp_pp58_L1_V1.0_veridical_freeview_isoTrue_fps144.mp4",""
"","","","call-function","302","607767","0.0-302.0","xffq2jk0","","","","","","","",""
"3324.375","{""judgement"":1}","[0]","survey-likert","303","611092","0.0-303.0","xffq2jk0","","","","","","","","1"
"2356.679999999935","{""confidence"":0}","[0]","survey-likert","304","613450","0.0-304.0","xffq2jk0","","","","","","","",""
"","","","call-function","305","613451","0.0-305.0","xffq2jk0","","","","","","","",""
"null","","","html-keyboard-response","306","614954","0.0-306.0","xffq2jk0","","<span style=""color:Black; font-size:50px;"">Agent A","null","","","","",""
"null","","","video-keyboard-response","307","618021","0.0-307.0","xffq2jk0","","","null","","Agent A","scrambled","STIM_SET_5/1159329.bmp_pp61_L2_V1.0_veridical_freeview_isoTrue_Hflip_fps144.mp4",""
"null","","","html-keyboard-response","308","619525","0.0-308.0","xffq2jk0","","<span style=""color:Black; font-size:50px;"">Agent B","null","","","","",""
"null","","","video-keyboard-response","309","622590","0.0-309.0","xffq2jk0","","","null","","Agent B","veridical","STIM_SET_2_144/1159329.bmp_pp61_L2_V1.0_veridical_freeview_isoTrue_fps144.mp4",""
"","","","call-function","310","622591","0.0-310.0","xffq2jk0","","","","","","","",""
"7291.8300000000745","{""judgement"":0}","[0]","survey-likert","311","629883","0.0-311.0","xffq2jk0","","","","","","","","1"
"3629.4400000000605","{""confidence"":0}","[0]","survey-likert","312","633514","0.0-312.0","xffq2jk0","","","","","","","",""
"","","","call-function","313","633515","0.0-313.0","xffq2jk0","","","","","","","",""
"null","","","html-keyboard-response","314","635020","0.0-314.0","xffq2jk0","","<span style=""color:Black; font-size:50px;"">Agent A","null","","","","",""
"null","","","video-keyboard-response","315","638097","0.0-315.0","xffq2jk0","","","null","","Agent A","scrambled","STIM_SET_5/713790.bmp_pp100_L3_V1_veridical_freeview_isoTrue_Hflip_fps144.mp4",""
"null","","","html-keyboard-response","316","639603","0.0-316.0","xffq2jk0","","<span style=""color:Black; font-size:50px;"">Agent B","null","","","","",""
"null","","","video-keyboard-response","317","642677","0.0-317.0","xffq2jk0","","","null","","Agent B","veridical","STIM_SET_2_144/713790.bmp_pp100_L3_V1_veridical_freeview_isoTrue_fps144.mp4",""
"","","","call-function","318","642677","0.0-318.0","xffq2jk0","","","","","","","",""
"3038.350000000093","{""judgement"":1}","[0]","survey-likert","319","645716","0.0-319.0","xffq2jk0","","","","","","","","1"
"2294.094999999972","{""confidence"":0}","[0]","survey-likert","320","648012","0.0-320.0","xffq2jk0","","","","","","","",""
"","","","call-function","321","648012","0.0-321.0","xffq2jk0","","","","","","","",""
"null","","","html-keyboard-response","322","649518","0.0-322.0","xffq2jk0","","<span style=""color:Black; font-size:50px;"">Agent A","null","","","","",""
"null","","","video-keyboard-response","323","652594","0.0-323.0","xffq2jk0","","","null","","Agent A","veridical","STIM_SET_2_144/1592857.bmp_pp52_L1_V1_veridical_freeview_isoTrue_fps144.mp4",""
"null","","","html-keyboard-response","324","654098","0.0-324.0","xffq2jk0","","<span style=""color:Black; font-size:50px;"">Agent B","null","","","","",""
"null","","","video-keyboard-response","325","657158","0.0-325.0","xffq2jk0","","","null","","Agent B","scrambled","STIM_SET_5/1592857.bmp_pp52_L1_V1_veridical_freeview_isoTrue_Hflip_fps144.mp4",""
"","","","call-function","326","657160","0.0-326.0","xffq2jk0","","","","","","","",""
"2879.0899999999674","{""judgement"":1}","[0]","survey-likert","327","660041","0.0-327.0","xffq2jk0","","","","","","","","0"
"1805.6300000000047","{""confidence"":0}","[0]","survey-likert","328","661848","0.0-328.0","xffq2jk0","","","","","","","",""
"","","","call-function","329","661849","0.0-329.0","xffq2jk0","","","","","","","",""
"null","","","html-keyboard-response","330","663352","0.0-330.0","xffq2jk0","","<span style=""color:Black; font-size:50px;"">Agent A","null","","","","",""
"null","","","video-keyboard-response","331","666428","0.0-331.0","xffq2jk0","","","null","","Agent A","veridical","STIM_SET_2_144/713381.bmp_pp82_L2_V1.0_veridical_freeview_isoTrue_fps144.mp4",""
"null","","","html-keyboard-response","332","667931","0.0-332.0","xffq2jk0","","<span style=""color:Black; font-size:50px;"">Agent B","null","","","","",""
"null","","","video-keyboard-response","333","671008","0.0-333.0","xffq2jk0","","","null","","Agent B","scrambled","STIM_SET_5/713381.bmp_pp82_L2_V1.0_veridical_freeview_isoTrue_Hflip_fps144.mp4",""
"","","","call-function","334","671008","0.0-334.0","xffq2jk0","","","","","","","",""
"3825.140000000014","{""judgement"":0}","[0]","survey-likert","335","674835","0.0-335.0","xffq2jk0","","","","","","","","0"
"2851.805000000051","{""confidence"":0}","[0]","survey-likert","336","677688","0.0-336.0","xffq2jk0","","","","","","","",""
"7200.150000000023","","","instructions","337","684889","0.0-337.0","xffq2jk0","[{""page_index"":0,""viewing_time"":3769.8800000000047},{""page_index"":1,""viewing_time"":895.015000000014},{""page_index"":2,""viewing_time"":2535.055000000051}]","","","","","","",""
"1784.2299999999814","","","instructions","338","686674","0.0-338.0","xffq2jk0","[{""page_index"":0,""viewing_time"":571.1849999999395},{""page_index"":1,""viewing_time"":598.0050000000047},{""page_index"":2,""viewing_time"":614.9350000000559}]","","","","","","",""
"","","","call-function","339","686674","0.0-339.0","xffq2jk0","","","","","","","",""
"null","","","html-keyboard-response","340","688178","0.0-340.0","xffq2jk0","","<span style=""color:Black; font-size:50px;"">Agent A","null","","","","",""
"null","","","video-keyboard-response","341","691247","0.0-341.0","xffq2jk0","","","null","","Agent A","scrambled","STIM_SET_5/1592025.bmp_pp68_L1_V1.0_veridical_freeview_isoTrue_Hflip_fps144.mp4",""
"null","","","html-keyboard-response","342","692754","0.0-342.0","xffq2jk0","","<span style=""color:Black; font-size:50px;"">Agent B","null","","","","",""
"null","","","video-keyboard-response","343","695838","0.0-343.0","xffq2jk0","","","null","","Agent B","veridical","STIM_SET_2_144/1592025.bmp_pp68_L1_V1.0_veridical_freeview_isoTrue_fps144.mp4",""
"","","","call-function","344","695839","0.0-344.0","xffq2jk0","","","","","","","",""
"4739.030000000028","{""judgement"":0}","[0]","survey-likert","345","700578","0.0-345.0","xffq2jk0","","","","","","","","1"
"8191.834999999963","{""confidence"":0}","[0]","survey-likert","346","708772","0.0-346.0","xffq2jk0","","","","","","","",""
"","","","call-function","347","708772","0.0-347.0","xffq2jk0","","","","","","","",""
"null","","","html-keyboard-response","348","710277","0.0-348.0","xffq2jk0","","<span style=""color:Black; font-size:50px;"">Agent A","null","","","","",""
"null","","","video-keyboard-response","349","713367","0.0-349.0","xffq2jk0","","","null","","Agent A","veridical","STIM_SET_2_144/713858.bmp_pp57_L1_V1.0_veridical_freeview_isoTrue_fps144.mp4",""
"null","","","html-keyboard-response","350","714871","0.0-350.0","xffq2jk0","","<span style=""color:Black; font-size:50px;"">Agent B","null","","","","",""
"null","","","video-keyboard-response","351","717959","0.0-351.0","xffq2jk0","","","null","","Agent B","scrambled","STIM_SET_5/713858.bmp_pp57_L1_V1.0_veridical_freeview_isoTrue_Hflip_fps144.mp4",""
"","","","call-function","352","717959","0.0-352.0","xffq2jk0","","","","","","","",""
"7036.025000000023","{""judgement"":0}","[0]","survey-likert","353","724996","0.0-353.0","xffq2jk0","","","","","","","","0"
"2004.9349999999395","{""confidence"":0}","[0]","survey-likert","354","727003","0.0-354.0","xffq2jk0","","","","","","","",""
"","","","call-function","355","727003","0.0-355.0","xffq2jk0","","","","","","","",""
"null","","","html-keyboard-response","356","728509","0.0-356.0","xffq2jk0","","<span style=""color:Black; font-size:50px;"">Agent A","null","","","","",""
"null","","","video-keyboard-response","357","731578","0.0-357.0","xffq2jk0","","","null","","Agent A","scrambled","STIM_SET_5/713920.bmp_pp76_L1_V1.0_veridical_freeview_isoTrue_Hflip_fps144.mp4",""
"null","","","html-keyboard-response","358","733080","0.0-358.0","xffq2jk0","","<span style=""color:Black; font-size:50px;"">Agent B","null","","","","",""
"null","","","video-keyboard-response","359","736149","0.0-359.0","xffq2jk0","","","null","","Agent B","veridical","STIM_SET_2_144/713920.bmp_pp76_L1_V1.0_veridical_freeview_isoTrue_fps144.mp4",""
"","","","call-function","360","736150","0.0-360.0","xffq2jk0","","","","","","","",""
"2025.0950000000885","{""judgement"":1}","[0]","survey-likert","361","738175","0.0-361.0","xffq2jk0","","","","","","","","1"
"1695.765000000014","{""confidence"":0}","[0]","survey-likert","362","739873","0.0-362.0","xffq2jk0","","","","","","","",""
"","","","call-function","363","739873","0.0-363.0","xffq2jk0","","","","","","","",""
"null","","","html-keyboard-response","364","741376","0.0-364.0","xffq2jk0","","<span style=""color:Black; font-size:50px;"">Agent A","null","","","","",""
"null","","","video-keyboard-response","365","744446","0.0-365.0","xffq2jk0","","","null","","Agent A","scrambled","STIM_SET_5/1592298.bmp_pp56_L3_V1.0_veridical_freeview_isoTrue_Hflip_fps144.mp4",""
"null","","","html-keyboard-response","366","745949","0.0-366.0","xffq2jk0","","<span style=""color:Black; font-size:50px;"">Agent B","null","","","","",""
"null","","","video-keyboard-response","367","749034","0.0-367.0","xffq2jk0","","","null","","Agent B","veridical","STIM_SET_2_144/1592298.bmp_pp56_L3_V1.0_veridical_freeview_isoTrue_fps144.mp4",""
"","","","call-function","368","749035","0.0-368.0","xffq2jk0","","","","","","","",""
"10098.20000000007","{""judgement"":0}","[0]","survey-likert","369","759134","0.0-369.0","xffq2jk0","","","","","","","","1"
"2087.0849999999627","{""confidence"":0}","[0]","survey-likert","370","761223","0.0-370.0","xffq2jk0","","","","","","","",""
"","","","call-function","371","761223","0.0-371.0","xffq2jk0","","","","","","","",""
"null","","","html-keyboard-response","372","762726","0.0-372.0","xffq2jk0","","<span style=""color:Black; font-size:50px;"">Agent A","null","","","","",""
"null","","","video-keyboard-response","373","765788","0.0-373.0","xffq2jk0","","","null","","Agent A","veridical","STIM_SET_2_144/1591975.bmp_pp88_L2_V1.0_veridical_freeview_isoTrue_fps144.mp4",""
"null","","","html-keyboard-response","374","767291","0.0-374.0","xffq2jk0","","<span style=""color:Black; font-size:50px;"">Agent B","null","","","","",""
"null","","","video-keyboard-response","375","770353","0.0-375.0","xffq2jk0","","","null","","Agent B","scrambled","STIM_SET_5/1591975.bmp_pp88_L2_V1.0_veridical_freeview_isoTrue_Hflip_fps144.mp4",""
"","","","call-function","376","770354","0.0-376.0","xffq2jk0","","","","","","","",""
"2718.460000000079","{""judgement"":0}","[0]","survey-likert","377","773074","0.0-377.0","xffq2jk0","","","","","","","","0"
"1543.140000000014","{""confidence"":0}","[0]","survey-likert","378","774619","0.0-378.0","xffq2jk0","","","","","","","",""
"","","","call-function","379","774621","0.0-379.0","xffq2jk0","","","","","","","",""
"null","","","html-keyboard-response","380","776124","0.0-380.0","xffq2jk0","","<span style=""color:Black; font-size:50px;"">Agent A","null","","","","",""
"null","","","video-keyboard-response","381","779186","0.0-381.0","xffq2jk0","","","null","","Agent A","veridical","STIM_SET_2_144/285932.bmp_pp64_L1_V1.0_veridical_freeview_isoTrue_fps144.mp4",""
"null","","","html-keyboard-response","382","780692","0.0-382.0","xffq2jk0","","<span style=""color:Black; font-size:50px;"">Agent B","null","","","","",""
"null","","","video-keyboard-response","383","783756","0.0-383.0","xffq2jk0","","","null","","Agent B","scrambled","STIM_SET_5/285932.bmp_pp64_L1_V1.0_veridical_freeview_isoTrue_Hflip_fps144.mp4",""
"","","","call-function","384","783757","0.0-384.0","xffq2jk0","","","","","","","",""
"2941.319999999949","{""judgement"":0}","[0]","survey-likert","385","786699","0.0-385.0","xffq2jk0","","","","","","","","0"
"1648.5749999999534","{""confidence"":0}","[0]","survey-likert","386","788349","0.0-386.0","xffq2jk0","","","","","","","",""
"","","","call-function","387","788350","0.0-387.0","xffq2jk0","","","","","","","",""
"null","","","html-keyboard-response","388","789856","0.0-388.0","xffq2jk0","","<span style=""color:Black; font-size:50px;"">Agent A","null","","","","",""
"null","","","video-keyboard-response","389","792927","0.0-389.0","xffq2jk0","","","null","","Agent A","scrambled","STIM_SET_5/1159508.bmp_pp151_L1_V1.0_veridical_freeview_isoTrue_Hflip_fps144.mp4",""
"null","","","html-keyboard-response","390","794429","0.0-390.0","xffq2jk0","","<span style=""color:Black; font-size:50px;"">Agent B","null","","","","",""
"null","","","video-keyboard-response","391","797497","0.0-391.0","xffq2jk0","","","null","","Agent B","veridical","STIM_SET_2_144/1159508.bmp_pp151_L1_V1.0_veridical_freeview_isoTrue_fps144.mp4",""
"","","","call-function","392","797498","0.0-392.0","xffq2jk0","","","","","","","",""
"2992.0899999999674","{""judgement"":0}","[0]","survey-likert","393","800491","0.0-393.0","xffq2jk0","","","","","","","","1"
"3211.439999999944","{""confidence"":0}","[0]","survey-likert","394","803704","0.0-394.0","xffq2jk0","","","","","","","",""
"","","","call-function","395","803705","0.0-395.0","xffq2jk0","","","","","","","",""
"null","","","html-keyboard-response","396","805208","0.0-396.0","xffq2jk0","","<span style=""color:Black; font-size:50px;"">Agent A","null","","","","",""
"null","","","video-keyboard-response","397","808282","0.0-397.0","xffq2jk0","","","null","","Agent A","scrambled","STIM_SET_5/1592047.bmp_pp51_L1_V1.0_veridical_freeview_isoTrue_Hflip_fps144.mp4",""
"null","","","html-keyboard-response","398","809789","0.0-398.0","xffq2jk0","","<span style=""color:Black; font-size:50px;"">Agent B","null","","","","",""
"null","","","video-keyboard-response","399","812865","0.0-399.0","xffq2jk0","","","null","","Agent B","veridical","STIM_SET_2_144/1592047.bmp_pp51_L1_V1.0_veridical_freeview_isoTrue_fps144.mp4",""
"","","","call-function","400","812866","0.0-400.0","xffq2jk0","","","","","","","",""
"2737.4599999999627","{""judgement"":0}","[0]","survey-likert","401","815605","0.0-401.0","xffq2jk0","","","","","","","","1"
"1787.7700000000186","{""confidence"":0}","[0]","survey-likert","402","817394","0.0-402.0","xffq2jk0","","","","","","","",""
"","","","call-function","403","817394","0.0-403.0","xffq2jk0","","","","","","","",""
"null","","","html-keyboard-response","404","818900","0.0-404.0","xffq2jk0","","<span style=""color:Black; font-size:50px;"">Agent A","null","","","","",""
"null","","","video-keyboard-response","405","821983","0.0-405.0","xffq2jk0","","","null","","Agent A","veridical","STIM_SET_2_144/150277.bmp_pp65_L3_V1.0_veridical_freeview_isoTrue_fps144.mp4",""
"null","","","html-keyboard-response","406","823486","0.0-406.0","xffq2jk0","","<span style=""color:Black; font-size:50px;"">Agent B","null","","","","",""
"null","","","video-keyboard-response","407","826568","0.0-407.0","xffq2jk0","","","null","","Agent B","scrambled","STIM_SET_5/150277.bmp_pp65_L3_V1.0_veridical_freeview_isoTrue_Hflip_fps144.mp4",""
"","","","call-function","408","826568","0.0-408.0","xffq2jk0","","","","","","","",""
"5372.655000000028","{""judgement"":0}","[0]","survey-likert","409","831942","0.0-409.0","xffq2jk0","","","","","","","","0"
"2578.409999999916","{""confidence"":0}","[0]","survey-likert","410","834522","0.0-410.0","xffq2jk0","","","","","","","",""
"","","","call-function","411","834522","0.0-411.0","xffq2jk0","","","","","","","",""
"null","","","html-keyboard-response","412","836028","0.0-412.0","xffq2jk0","","<span style=""color:Black; font-size:50px;"">Agent A","null","","","","",""
"null","","","video-keyboard-response","413","839103","0.0-413.0","xffq2jk0","","","null","","Agent A","scrambled","STIM_SET_5/713829.bmp_pp60_L3_V1.0_veridical_freeview_isoTrue_Hflip_fps144.mp4",""
"null","","","html-keyboard-response","414","840606","0.0-414.0","xffq2jk0","","<span style=""color:Black; font-size:50px;"">Agent B","null","","","","",""
"null","","","video-keyboard-response","415","843668","0.0-415.0","xffq2jk0","","","null","","Agent B","veridical","STIM_SET_2_144/713829.bmp_pp60_L3_V1.0_veridical_freeview_isoTrue_fps144.mp4",""
"","","","call-function","416","843670","0.0-416.0","xffq2jk0","","","","","","","",""
"5836.730000000098","{""judgement"":0}","[0]","survey-likert","417","849508","0.0-417.0","xffq2jk0","","","","","","","","1"
"1936.9399999999441","{""confidence"":0}","[0]","survey-likert","418","851446","0.0-418.0","xffq2jk0","","","","","","","",""
"4289.084999999963","","","instructions","419","855736","0.0-419.0","xffq2jk0","[{""page_index"":0,""viewing_time"":1175.015000000014},{""page_index"":1,""viewing_time"":707.8950000000186},{""page_index"":2,""viewing_time"":2405.9599999999627}]","","","","","","",""
"2120.079999999958","","","instructions","420","857857","0.0-420.0","xffq2jk0","[{""page_index"":0,""viewing_time"":733.0949999999721},{""page_index"":1,""viewing_time"":698.0849999999627},{""page_index"":2,""viewing_time"":688.7950000000419}]","","","","","","",""
"","","","call-function","421","857858","0.0-421.0","xffq2jk0","","","","","","","",""
"null","","","html-keyboard-response","422","859359","0.0-422.0","xffq2jk0","","<span style=""color:Black; font-size:50px;"">Agent A","null","","","","",""
"null","","","video-keyboard-response","423","862428","0.0-423.0","xffq2jk0","","","null","","Agent A","veridical","STIM_SET_2_144/150463.bmp_pp55_L3_V1.0_veridical_freeview_isoTrue_fps144.mp4",""
"null","","","html-keyboard-response","424","863934","0.0-424.0","xffq2jk0","","<span style=""color:Black; font-size:50px;"">Agent B","null","","","","",""
"null","","","video-keyboard-response","425","867003","0.0-425.0","xffq2jk0","","","null","","Agent B","scrambled","STIM_SET_5/150463.bmp_pp55_L3_V1.0_veridical_freeview_isoTrue_Hflip_fps144.mp4",""
"","","","call-function","426","867004","0.0-426.0","xffq2jk0","","","","","","","",""
"3492.329999999958","{""judgement"":1}","[0]","survey-likert","427","870497","0.0-427.0","xffq2jk0","","","","","","","","0"
"1800.5699999999488","{""confidence"":0}","[0]","survey-likert","428","872299","0.0-428.0","xffq2jk0","","","","","","","",""
"","","","call-function","429","872300","0.0-429.0","xffq2jk0","","","","","","","",""
"null","","","html-keyboard-response","430","873805","0.0-430.0","xffq2jk0","","<span style=""color:Black; font-size:50px;"">Agent A","null","","","","",""
"null","","","video-keyboard-response","431","876887","0.0-431.0","xffq2jk0","","","null","","Agent A","veridical","STIM_SET_2_144/1160247.bmp_pp54_L2_V1.0_veridical_freeview_isoTrue_fps144.mp4",""
"null","","","html-keyboard-response","432","878390","0.0-432.0","xffq2jk0","","<span style=""color:Black; font-size:50px;"">Agent B","null","","","","",""
"null","","","video-keyboard-response","433","881484","0.0-433.0","xffq2jk0","","","null","","Agent B","scrambled","STIM_SET_5/1160247.bmp_pp54_L2_V1.0_veridical_freeview_isoTrue_Hflip_fps144.mp4",""
"","","","call-function","434","881484","0.0-434.0","xffq2jk0","","","","","","","",""
"5796.660000000033","{""judgement"":1}","[0]","survey-likert","435","887282","0.0-435.0","xffq2jk0","","","","","","","","0"
"2878.0350000000326","{""confidence"":0}","[0]","survey-likert","436","890161","0.0-436.0","xffq2jk0","","","","","","","",""
"","","","call-function","437","890162","0.0-437.0","xffq2jk0","","","","","","","",""
"null","","","html-keyboard-response","438","891664","0.0-438.0","xffq2jk0","","<span style=""color:Black; font-size:50px;"">Agent A","null","","","","",""
"null","","","video-keyboard-response","439","894743","0.0-439.0","xffq2jk0","","","null","","Agent A","veridical","STIM_SET_2_144/1592044.bmp_pp94_L2_V1.0_veridical_freeview_isoTrue_fps144.mp4",""
"null","","","html-keyboard-response","440","896247","0.0-440.0","xffq2jk0","","<span style=""color:Black; font-size:50px;"">Agent B","null","","","","",""
"null","","","video-keyboard-response","441","899326","0.0-441.0","xffq2jk0","","","null","","Agent B","scrambled","STIM_SET_5/1592044.bmp_pp94_L2_V1.0_veridical_freeview_isoTrue_Hflip_fps144.mp4",""
"","","","call-function","442","899327","0.0-442.0","xffq2jk0","","","","","","","",""
"3713.180000000051","{""judgement"":1}","[0]","survey-likert","443","903041","0.0-443.0","xffq2jk0","","","","","","","","0"
"1867.8649999999907","{""confidence"":0}","[0]","survey-likert","444","904910","0.0-444.0","xffq2jk0","","","","","","","",""
"","","","call-function","445","904911","0.0-445.0","xffq2jk0","","","","","","","",""
"null","","","html-keyboard-response","446","906417","0.0-446.0","xffq2jk0","","<span style=""color:Black; font-size:50px;"">Agent A","null","","","","",""
"null","","","video-keyboard-response","447","909491","0.0-447.0","xffq2jk0","","","null","","Agent A","veridical","STIM_SET_2_144/1159592.bmp_pp91_L3_V1.0_veridical_freeview_isoTrue_fps144.mp4",""
"null","","","html-keyboard-response","448","910998","0.0-448.0","xffq2jk0","","<span style=""color:Black; font-size:50px;"">Agent B","null","","","","",""
"null","","","video-keyboard-response","449","914089","0.0-449.0","xffq2jk0","","","null","","Agent B","scrambled","STIM_SET_5/1159592.bmp_pp91_L3_V1.0_veridical_freeview_isoTrue_Hflip_fps144.mp4",""
"","","","call-function","450","914090","0.0-450.0","xffq2jk0","","","","","","","",""
"4707.17499999993","{""judgement"":1}","[0]","survey-likert","451","918798","0.0-451.0","xffq2jk0","","","","","","","","0"
"1882.4400000000605","{""confidence"":2}","[0]","survey-likert","452","920682","0.0-452.0","xffq2jk0","","","","","","","",""
"","","","call-function","453","920683","0.0-453.0","xffq2jk0","","","","","","","",""
"null","","","html-keyboard-response","454","922187","0.0-454.0","xffq2jk0","","<span style=""color:Black; font-size:50px;"">Agent A","null","","","","",""
"null","","","video-keyboard-response","455","925269","0.0-455.0","xffq2jk0","","","null","","Agent A","scrambled","STIM_SET_5/1592921.bmp_pp69_L3_V1.0_veridical_freeview_isoTrue_Hflip_fps144.mp4",""
"null","","","html-keyboard-response","456","926774","0.0-456.0","xffq2jk0","","<span style=""color:Black; font-size:50px;"">Agent B","null","","","","",""
"null","","","video-keyboard-response","457","929840","0.0-457.0","xffq2jk0","","","null","","Agent B","veridical","STIM_SET_2_144/1592921.bmp_pp69_L3_V1.0_veridical_freeview_isoTrue_fps144.mp4",""
"","","","call-function","458","929841","0.0-458.0","xffq2jk0","","","","","","","",""
"3339.314999999944","{""judgement"":0}","[0]","survey-likert","459","933181","0.0-459.0","xffq2jk0","","","","","","","","1"
"2791.7449999999953","{""confidence"":0}","[0]","survey-likert","460","935974","0.0-460.0","xffq2jk0","","","","","","","",""
"","","","call-function","461","935975","0.0-461.0","xffq2jk0","","","","","","","",""
"null","","","html-keyboard-response","462","937479","0.0-462.0","xffq2jk0","","<span style=""color:Black; font-size:50px;"">Agent A","null","","","","",""
"null","","","video-keyboard-response","463","940541","0.0-463.0","xffq2jk0","","","null","","Agent A","veridical","STIM_SET_2_144/1592150.bmp_pp77_L3_V1.0_veridical_freeview_isoTrue_fps144.mp4",""
"null","","","html-keyboard-response","464","942047","0.0-464.0","xffq2jk0","","<span style=""color:Black; font-size:50px;"">Agent B","null","","","","",""
"null","","","video-keyboard-response","465","945110","0.0-465.0","xffq2jk0","","","null","","Agent B","scrambled","STIM_SET_5/1592150.bmp_pp77_L3_V1.0_veridical_freeview_isoTrue_Hflip_fps144.mp4",""
"","","","call-function","466","945111","0.0-466.0","xffq2jk0","","","","","","","",""
"2588.390000000014","{""judgement"":0}","[0]","survey-likert","467","947700","0.0-467.0","xffq2jk0","","","","","","","","0"
"1521.1699999999255","{""confidence"":0}","[0]","survey-likert","468","949223","0.0-468.0","xffq2jk0","","","","","","","",""
"","","","call-function","469","949224","0.0-469.0","xffq2jk0","","","","","","","",""
"null","","","html-keyboard-response","470","950726","0.0-470.0","xffq2jk0","","<span style=""color:Black; font-size:50px;"">Agent A","null","","","","",""
"null","","","video-keyboard-response","471","953803","0.0-471.0","xffq2jk0","","","null","","Agent A","scrambled","STIM_SET_5/713689.bmp_pp153_L3_V1.0_veridical_freeview_isoTrue_Hflip_fps144.mp4",""
"null","","","html-keyboard-response","472","955310","0.0-472.0","xffq2jk0","","<span style=""color:Black; font-size:50px;"">Agent B","null","","","","",""
"null","","","video-keyboard-response","473","958372","0.0-473.0","xffq2jk0","","","null","","Agent B","veridical","STIM_SET_2_144/713689.bmp_pp153_L3_V1.0_veridical_freeview_isoTrue_fps144.mp4",""
"","","","call-function","474","958374","0.0-474.0","xffq2jk0","","","","","","","",""
"1930.0050000000047","{""judgement"":0}","[0]","survey-likert","475","960306","0.0-475.0","xffq2jk0","","","","","","","","1"
"1481.280000000028","{""confidence"":0}","[0]","survey-likert","476","961788","0.0-476.0","xffq2jk0","","","","","","","",""
"","","","call-function","477","961789","0.0-477.0","xffq2jk0","","","","","","","",""
"null","","","html-keyboard-response","478","963292","0.0-478.0","xffq2jk0","","<span style=""color:Black; font-size:50px;"">Agent A","null","","","","",""
"null","","","video-keyboard-response","479","966364","0.0-479.0","xffq2jk0","","","null","","Agent A","veridical","STIM_SET_2_144/1159819.bmp_pp151_L1_V1.0_veridical_freeview_isoTrue_fps144.mp4",""
"null","","","html-keyboard-response","480","967871","0.0-480.0","xffq2jk0","","<span style=""color:Black; font-size:50px;"">Agent B","null","","","","",""
"null","","","video-keyboard-response","481","970940","0.0-481.0","xffq2jk0","","","null","","Agent B","scrambled","STIM_SET_5/1159819.bmp_pp151_L1_V1.0_veridical_freeview_isoTrue_Hflip_fps144.mp4",""
"","","","call-function","482","970941","0.0-482.0","xffq2jk0","","","","","","","",""
"3904.335000000079","{""judgement"":0}","[0]","survey-likert","483","974847","0.0-483.0","xffq2jk0","","","","","","","","0"
"1985.5899999999674","{""confidence"":0}","[0]","survey-likert","484","976834","0.0-484.0","xffq2jk0","","","","","","","",""
"","","","call-function","485","976835","0.0-485.0","xffq2jk0","","","","","","","",""
"null","","","html-keyboard-response","486","978340","0.0-486.0","xffq2jk0","","<span style=""color:Black; font-size:50px;"">Agent A","null","","","","",""
"null","","","video-keyboard-response","487","981405","0.0-487.0","xffq2jk0","","","null","","Agent A","veridical","STIM_SET_2_144/1160049.bmp_pp53_L2_V1.0_veridical_freeview_isoTrue_fps144.mp4",""
"null","","","html-keyboard-response","488","982908","0.0-488.0","xffq2jk0","","<span style=""color:Black; font-size:50px;"">Agent B","null","","","","",""
"null","","","video-keyboard-response","489","985984","0.0-489.0","xffq2jk0","","","null","","Agent B","scrambled","STIM_SET_5/1160049.bmp_pp53_L2_V1.0_veridical_freeview_isoTrue_Hflip_fps144.mp4",""
"","","","call-function","490","985985","0.0-490.0","xffq2jk0","","","","","","","",""
"2594.694999999949","{""judgement"":1}","[0]","survey-likert","491","988581","0.0-491.0","xffq2jk0","","","","","","","","0"
"1783.1600000000326","{""confidence"":0}","[0]","survey-likert","492","990365","0.0-492.0","xffq2jk0","","","","","","","",""
"","","","call-function","493","990366","0.0-493.0","xffq2jk0","","","","","","","",""
"null","","","html-keyboard-response","494","991867","0.0-494.0","xffq2jk0","","<span style=""color:Black; font-size:50px;"">Agent A","null","","","","",""
"null","","","video-keyboard-response","495","994967","0.0-495.0","xffq2jk0","","","null","","Agent A","scrambled","STIM_SET_5/285946.bmp_pp79_L2_V1.0_veridical_freeview_isoTrue_Hflip_fps144.mp4",""
"null","","","html-keyboard-response","496","996471","0.0-496.0","xffq2jk0","","<span style=""color:Black; font-size:50px;"">Agent B","null","","","","",""
"null","","","video-keyboard-response","497","999569","0.0-497.0","xffq2jk0","","","null","","Agent B","veridical","STIM_SET_2_144/285946.bmp_pp79_L2_V1.0_veridical_freeview_isoTrue_fps144.mp4",""
"","","","call-function","498","999570","0.0-498.0","xffq2jk0","","","","","","","",""
"3528.094999999972","{""judgement"":0}","[0]","survey-likert","499","1003099","0.0-499.0","xffq2jk0","","","","","","","","1"
"3202.560000000056","{""confidence"":0}","[0]","survey-likert","500","1006303","0.0-500.0","xffq2jk0","","","","","","","",""
"4037.555000000051","","","instructions","501","1010342","0.0-501.0","xffq2jk0","[{""page_index"":0,""viewing_time"":2170.3349999999627},{""page_index"":1,""viewing_time"":707.9000000000233},{""page_index"":2,""viewing_time"":1159.1149999999907}]","","","","","","",""
"2252.1350000000093","","","instructions","502","1012594","0.0-502.0","xffq2jk0","[{""page_index"":0,""viewing_time"":687.0699999999488},{""page_index"":1,""viewing_time"":875.984999999986},{""page_index"":2,""viewing_time"":688.9750000000931}]","","","","","","",""
"","","","call-function","503","1012595","0.0-503.0","xffq2jk0","","","","","","","",""
"null","","","html-keyboard-response","504","1014097","0.0-504.0","xffq2jk0","","<span style=""color:Black; font-size:50px;"">Agent A","null","","","","",""
"null","","","video-keyboard-response","505","1017181","0.0-505.0","xffq2jk0","","","null","","Agent A","veridical","STIM_SET_2_144/498258.bmp_pp51_L1_V1.0_veridical_freeview_isoTrue_fps144.mp4",""
"null","","","html-keyboard-response","506","1018683","0.0-506.0","xffq2jk0","","<span style=""color:Black; font-size:50px;"">Agent B","null","","","","",""
"null","","","video-keyboard-response","507","1021749","0.0-507.0","xffq2jk0","","","null","","Agent B","scrambled","STIM_SET_5/498258.bmp_pp51_L1_V1.0_veridical_freeview_isoTrue_Hflip_fps144.mp4",""
"","","","call-function","508","1021750","0.0-508.0","xffq2jk0","","","","","","","",""
"2886.9599999999627","{""judgement"":0}","[0]","survey-likert","509","1024638","0.0-509.0","xffq2jk0","","","","","","","","0"
"2279.765000000014","{""confidence"":0}","[0]","survey-likert","510","1026919","0.0-510.0","xffq2jk0","","","","","","","",""
"","","","call-function","511","1026920","0.0-511.0","xffq2jk0","","","","","","","",""
"null","","","html-keyboard-response","512","1028423","0.0-512.0","xffq2jk0","","<span style=""color:Black; font-size:50px;"">Agent A","null","","","","",""
"null","","","video-keyboard-response","513","1031491","0.0-513.0","xffq2jk0","","","null","","Agent A","veridical","STIM_SET_2_144/498261.bmp_pp84_L3_V1.0_veridical_freeview_isoTrue_fps144.mp4",""
"null","","","html-keyboard-response","514","1032993","0.0-514.0","xffq2jk0","","<span style=""color:Black; font-size:50px;"">Agent B","null","","","","",""
"null","","","video-keyboard-response","515","1036062","0.0-515.0","xffq2jk0","","","null","","Agent B","scrambled","STIM_SET_5/498261.bmp_pp84_L3_V1.0_veridical_freeview_isoTrue_Hflip_fps144.mp4",""
"","","","call-function","516","1036063","0.0-516.0","xffq2jk0","","","","","","","",""
"3961.1999999999534","{""judgement"":1}","[0]","survey-likert","517","1040025","0.0-517.0","xffq2jk0","","","","","","","","0"
"1982.8050000000512","{""confidence"":0}","[0]","survey-likert","518","1042009","0.0-518.0","xffq2jk0","","","","","","","",""
"","","","call-function","519","1042010","0.0-519.0","xffq2jk0","","","","","","","",""
"null","","","html-keyboard-response","520","1043514","0.0-520.0","xffq2jk0","","<span style=""color:Black; font-size:50px;"">Agent A","null","","","","",""
"null","","","video-keyboard-response","521","1046579","0.0-521.0","xffq2jk0","","","null","","Agent A","veridical","STIM_SET_2_144/1592567.bmp_pp70_L2_V1.0_veridical_freeview_isoTrue_fps144.mp4",""
"null","","","html-keyboard-response","522","1048086","0.0-522.0","xffq2jk0","","<span style=""color:Black; font-size:50px;"">Agent B","null","","","","",""
"null","","","video-keyboard-response","523","1051148","0.0-523.0","xffq2jk0","","","null","","Agent B","scrambled","STIM_SET_5/1592567.bmp_pp70_L2_V1.0_veridical_freeview_isoTrue_Hflip_fps144.mp4",""
"","","","call-function","524","1051149","0.0-524.0","xffq2jk0","","","","","","","",""
"3210.0200000000186","{""judgement"":0}","[0]","survey-likert","525","1054361","0.0-525.0","xffq2jk0","","","","","","","","0"
"1546.255000000121","{""confidence"":0}","[0]","survey-likert","526","1055909","0.0-526.0","xffq2jk0","","","","","","","",""
"","","","call-function","527","1055909","0.0-527.0","xffq2jk0","","","","","","","",""
"null","","","html-keyboard-response","528","1057412","0.0-528.0","xffq2jk0","","<span style=""color:Black; font-size:50px;"">Agent A","null","","","","",""
"null","","","video-keyboard-response","529","1060483","0.0-529.0","xffq2jk0","","","null","","Agent A","veridical","STIM_SET_2_144/1160189.bmp_pp64_L1_V1.0_veridical_freeview_isoTrue_fps144.mp4",""
"null","","","html-keyboard-response","530","1061985","0.0-530.0","xffq2jk0","","<span style=""color:Black; font-size:50px;"">Agent B","null","","","","",""
"null","","","video-keyboard-response","531","1065054","0.0-531.0","xffq2jk0","","","null","","Agent B","scrambled","STIM_SET_5/1160189.bmp_pp64_L1_V1.0_veridical_freeview_isoTrue_Hflip_fps144.mp4",""
"","","","call-function","532","1065054","0.0-532.0","xffq2jk0","","","","","","","",""
"2783","{""judgement"":1}","[0]","survey-likert","533","1067838","0.0-533.0","xffq2jk0","","","","","","","","0"
"1594.1599999999162","{""confidence"":0}","[0]","survey-likert","534","1069434","0.0-534.0","xffq2jk0","","","","","","","",""
"","","","call-function","535","1069435","0.0-535.0","xffq2jk0","","","","","","","",""
"null","","","html-keyboard-response","536","1070937","0.0-536.0","xffq2jk0","","<span style=""color:Black; font-size:50px;"">Agent A","null","","","","",""
"null","","","video-keyboard-response","537","1074013","0.0-537.0","xffq2jk0","","","null","","Agent A","veridical","STIM_SET_2_144/1592951.bmp_pp80_L3_V1.0_veridical_freeview_isoTrue_fps144.mp4",""
"null","","","html-keyboard-response","538","1075515","0.0-538.0","xffq2jk0","","<span style=""color:Black; font-size:50px;"">Agent B","null","","","","",""
"null","","","video-keyboard-response","539","1078590","0.0-539.0","xffq2jk0","","","null","","Agent B","scrambled","STIM_SET_5/1592951.bmp_pp80_L3_V1.0_veridical_freeview_isoTrue_Hflip_fps144.mp4",""
"","","","call-function","540","1078590","0.0-540.0","xffq2jk0","","","","","","","",""
"4009.899999999907","{""judgement"":0}","[0]","survey-likert","541","1082601","0.0-541.0","xffq2jk0","","","","","","","","0"
"1743.0100000000093","{""confidence"":0}","[0]","survey-likert","542","1084346","0.0-542.0","xffq2jk0","","","","","","","",""
"","","","call-function","543","1084346","0.0-543.0","xffq2jk0","","","","","","","",""
"null","","","html-keyboard-response","544","1085848","0.0-544.0","xffq2jk0","","<span style=""color:Black; font-size:50px;"">Agent A","null","","","","",""
"null","","","video-keyboard-response","545","1088926","0.0-545.0","xffq2jk0","","","null","","Agent A","veridical","STIM_SET_2_144/1592017.bmp_pp154_L1_V1.0_veridical_freeview_isoTrue_fps144.mp4",""
"null","","","html-keyboard-response","546","1090428","0.0-546.0","xffq2jk0","","<span style=""color:Black; font-size:50px;"">Agent B","null","","","","",""
"null","","","video-keyboard-response","547","1093505","0.0-547.0","xffq2jk0","","","null","","Agent B","scrambled","STIM_SET_5/1592017.bmp_pp154_L1_V1.0_veridical_freeview_isoTrue_Hflip_fps144.mp4",""
"","","","call-function","548","1093506","0.0-548.0","xffq2jk0","","","","","","","",""
"2627.225000000093","{""judgement"":1}","[0]","survey-likert","549","1096134","0.0-549.0","xffq2jk0","","","","","","","","0"
"4486.739999999991","{""confidence"":0}","[0]","survey-likert","550","1100622","0.0-550.0","xffq2jk0","","","","","","","",""
"","","","call-function","551","1100623","0.0-551.0","xffq2jk0","","","","","","","",""
"null","","","html-keyboard-response","552","1102126","0.0-552.0","xffq2jk0","","<span style=""color:Black; font-size:50px;"">Agent A","null","","","","",""
"null","","","video-keyboard-response","553","1105204","0.0-553.0","xffq2jk0","","","null","","Agent A","scrambled","STIM_SET_5/713328.bmp_pp86_L2_V1.0_veridical_freeview_isoTrue_Hflip_fps144.mp4",""
"null","","","html-keyboard-response","554","1106706","0.0-554.0","xffq2jk0","","<span style=""color:Black; font-size:50px;"">Agent B","null","","","","",""
"null","","","video-keyboard-response","555","1109766","0.0-555.0","xffq2jk0","","","null","","Agent B","veridical","STIM_SET_2_144/713328.bmp_pp86_L2_V1.0_veridical_freeview_isoTrue_fps144.mp4",""
"","","","call-function","556","1109767","0.0-556.0","xffq2jk0","","","","","","","",""
"3495.5200000000186","{""judgement"":0}","[0]","survey-likert","557","1113264","0.0-557.0","xffq2jk0","","","","","","","","1"
"2902.850000000093","{""confidence"":0}","[0]","survey-likert","558","1116168","0.0-558.0","xffq2jk0","","","","","","","",""
"","","","call-function","559","1116169","0.0-559.0","xffq2jk0","","","","","","","",""
"null","","","html-keyboard-response","560","1117674","0.0-560.0","xffq2jk0","","<span style=""color:Black; font-size:50px;"">Agent A","null","","","","",""
"null","","","video-keyboard-response","561","1120738","0.0-561.0","xffq2jk0","","","null","","Agent A","veridical","STIM_SET_2_144/1591920.bmp_pp97_L3_V1_veridical_freeview_isoTrue_fps144.mp4",""
"null","","","html-keyboard-response","562","1122242","0.0-562.0","xffq2jk0","","<span style=""color:Black; font-size:50px;"">Agent B","null","","","","",""
"null","","","video-keyboard-response","563","1125305","0.0-563.0","xffq2jk0","","","null","","Agent B","scrambled","STIM_SET_5/1591920.bmp_pp97_L3_V1_veridical_freeview_isoTrue_Hflip_fps144.mp4",""
"","","","call-function","564","1125305","0.0-564.0","xffq2jk0","","","","","","","",""
"2536.9799999999814","{""judgement"":0}","[0]","survey-likert","565","1127843","0.0-565.0","xffq2jk0","","","","","","","","0"
"2583.689999999944","{""confidence"":0}","[0]","survey-likert","566","1130428","0.0-566.0","xffq2jk0","","","","","","","",""
"","","","call-function","567","1130429","0.0-567.0","xffq2jk0","","","","","","","",""
"null","","","html-keyboard-response","568","1131935","0.0-568.0","xffq2jk0","","<span style=""color:Black; font-size:50px;"">Agent A","null","","","","",""
"null","","","video-keyboard-response","569","1135015","0.0-569.0","xffq2jk0","","","null","","Agent A","veridical","STIM_SET_2_144/1592168.bmp_pp71_L1_V1.0_veridical_freeview_isoTrue_fps144.mp4",""
"null","","","html-keyboard-response","570","1136519","0.0-570.0","xffq2jk0","","<span style=""color:Black; font-size:50px;"">Agent B","null","","","","",""
"null","","","video-keyboard-response","571","1139596","0.0-571.0","xffq2jk0","","","null","","Agent B","scrambled","STIM_SET_5/1592168.bmp_pp71_L1_V1.0_veridical_freeview_isoTrue_Hflip_fps144.mp4",""
"","","","call-function","572","1139597","0.0-572.0","xffq2jk0","","","","","","","",""
"2971.7950000001583","{""judgement"":0}","[0]","survey-likert","573","1142570","0.0-573.0","xffq2jk0","","","","","","","","0"
"1346.4499999999534","{""confidence"":0}","[0]","survey-likert","574","1143918","0.0-574.0","xffq2jk0","","","","","","","",""
"","","","call-function","575","1143919","0.0-575.0","xffq2jk0","","","","","","","",""
"null","","","html-keyboard-response","576","1145422","0.0-576.0","xffq2jk0","","<span style=""color:Black; font-size:50px;"">Agent A","null","","","","",""
"null","","","video-keyboard-response","577","1148501","0.0-577.0","xffq2jk0","","","null","","Agent A","veridical","STIM_SET_2_144/713770.bmp_pp89_L1_V1.0_veridical_freeview_isoTrue_fps144.mp4",""
"null","","","html-keyboard-response","578","1150008","0.0-578.0","xffq2jk0","","<span style=""color:Black; font-size:50px;"">Agent B","null","","","","",""
"null","","","video-keyboard-response","579","1153086","0.0-579.0","xffq2jk0","","","null","","Agent B","scrambled","STIM_SET_5/713770.bmp_pp89_L1_V1.0_veridical_freeview_isoTrue_Hflip_fps144.mp4",""
"","","","call-function","580","1153087","0.0-580.0","xffq2jk0","","","","","","","",""
"3242.2700000000186","{""judgement"":0}","[0]","survey-likert","581","1156330","0.0-581.0","xffq2jk0","","","","","","","","0"
"1554.6750000000466","{""confidence"":0}","[0]","survey-likert","582","1157886","0.0-582.0","xffq2jk0","","","","","","","",""
"1741.25","","","instructions","583","1159628","0.0-583.0","xffq2jk0","[{""page_index"":0,""viewing_time"":1741.0999999998603}]","","","","","","",""
"1403.9899999999907","","","instructions","584","1161033","0.0-584.0","xffq2jk0","[{""page_index"":0,""viewing_time"":1403.880000000121}]","","","","","","",""
"7535.715000000084","{""post-1"":0}","[0]","survey-likert","585","1168570","0.0-585.0","xffq2jk0","","","","","","","",""
"2193.410000000149","{""post-1"":0}","[0]","survey-likert","586","1170765","0.0-586.0","xffq2jk0","","","","","","","",""
"4506.360000000102","{""post-2"":0}","[0]","survey-likert","587","1175273","0.0-587.0","xffq2jk0","","","","","","","",""
"2166.190000000177","{""post-2"":0}","[0]","survey-likert","588","1177440","0.0-588.0","xffq2jk0","","","","","","","",""
"4103.104999999981","{""post-3"":1}","[0]","survey-likert","589","1181545","0.0-589.0","xffq2jk0","","","","","","","",""
"1875","{""post-3"":0}","[0]","survey-likert","590","1183421","0.0-590.0","xffq2jk0","","","","","","","",""
"4007.6450000000186","{""post-4"":0}","[0]","survey-likert","591","1187430","0.0-591.0","xffq2jk0","","","","","","","",""
"1979.9750000000931","{""post-4"":0}","[0]","survey-likert","592","1189412","0.0-592.0","xffq2jk0","","","","","","","",""
"4404.165000000037","{""post-5"":0}","[0]","survey-likert","593","1193817","0.0-593.0","xffq2jk0","","","","","","","",""
"5139.375","{""post-5"":1}","[0]","survey-likert","594","1198959","0.0-594.0","xffq2jk0","","","","","","","",""
"20346.62999999989","{""Q0"":""i struggled. sometimes the videos looked similar""}","","survey-text","595","1219312","0.0-595.0","xffq2jk0","","","","","","","",""
"30323.949999999953","{""Q0"":""i looked at the speed of the light and its path to determine my assessment ""}","","survey-text","596","1249640","0.0-596.0","xffq2jk0","","","","","","","",""
"27113.064999999944","{""Q0"":""differentiating them! sometimes, both looked human""}","","survey-text","597","1276756","0.0-597.0","xffq2jk0","","","","","","","",""
"2090.5049999998882","","","instructions","598","1278848","0.0-598.0","xffq2jk0","[{""page_index"":0,""viewing_time"":2090.3649999999907}]","","","","","","",""
"116459.56000000006","{""Experimenter_end"":[""Printed ID# xffq2jk0 on consent form"",""Given subject SONA credit or payment"",""Given the subject debrief form""]}","[0]","survey-multi-select","599","1395309","0.0-599.0","xffq2jk0","","","","","","","",""
