"rt","responses","question_order","trial_type","trial_index","time_elapsed","internal_node_id","ID","view_history","stimulus","key_press","value","agent","condition","image","correct_answer"
"9713.470000000001","{""Experimenter"":[""Confirmed subject's identity (ID card)"",""Confirmed normal or corrected-to-normal vision"",""Obtained consent (signature and date)"",""Checked the test room lighting"",""Checked computer screen lighting"",""Checked distance from screen to chin rest (50cm)"",""Cleaned and adjusted chin rest"",""Counterbalanced the order of the tasks"",""Opened the experiment in Firefox"",""Made the experiment full screen"",""Encouraged subject to silence phone, put away distractors, etc.""]}","[0]","survey-multi-select","0","9723","0.0-0.0","xsroldsy","","","","","","","",""
"13915.859999999999","","","instructions","1","23640","0.0-1.0","xsroldsy","[{""page_index"":0,""viewing_time"":13915.28}]","","","","","","",""
"13201.915","","","instructions","2","36844","0.0-2.0","xsroldsy","[{""page_index"":0,""viewing_time"":2595.6899999999987},{""page_index"":1,""viewing_time"":7342.259999999998},{""page_index"":2,""viewing_time"":3263.840000000004}]","","","","","","",""
"2145.7050000000017","","","instructions","3","38990","0.0-3.0","xsroldsy","[{""page_index"":0,""viewing_time"":2145.5999999999985}]","","","","","","",""
"null","","","video-keyboard-response","4","42066","0.0-4.0","xsroldsy","","","null","","","","",""
"13983.575000000004","","","instructions","5","56050","0.0-5.0","xsroldsy","[{""page_index"":0,""viewing_time"":3641.355000000003},{""page_index"":1,""viewing_time"":1663.1200000000026},{""page_index"":2,""viewing_time"":868.9099999999962},{""page_index"":3,""viewing_time"":4232.300000000003},{""page_index"":4,""viewing_time"":3577.7649999999994}]","","","","","","",""
"3098.779999999999","","","instructions","6","59149","0.0-6.0","xsroldsy","[{""page_index"":0,""viewing_time"":3098.654999999999}]","","","","","","",""
"","","","call-function","7","59150","0.0-7.0","xsroldsy","","","","","","","",""
"null","","","html-keyboard-response","8","60654","0.0-8.0","xsroldsy","","<span style=""color:Black; font-size:50px;"">Agent A","null","","","","",""
"null","","","video-keyboard-response","9","63446","0.0-9.0","xsroldsy","","","null","","Agent A","veridical","FOR_REV_BLOBBY_STIM/1592351.bmp_pp51_L1_V1.0_veridical_freeview_isoFalse_fps144.mp4",""
"null","","","html-keyboard-response","10","64950","0.0-10.0","xsroldsy","","<span style=""color:Black; font-size:50px;"">Agent B","null","","","","",""
"null","","","video-keyboard-response","11","67740","0.0-11.0","xsroldsy","","","null","","Agent B","scrambled","FOR_REV_BLOBBY_STIM/1592351.bmp_pp51_L1_V1.0_veridical_freeview_isoFalse_fps144_reversed_REAL.mp4",""
"","","","call-function","12","67741","0.0-12.0","xsroldsy","","","","","","","",""
"12874.090000000011","{""judgement"":0}","[0]","survey-likert","13","80616","0.0-13.0","xsroldsy","","","","","","","","0"
"1346.1699999999983","{""confidence"":1}","[0]","survey-likert","14","81963","0.0-14.0","xsroldsy","","","","","","","",""
"","","","call-function","15","81964","0.0-15.0","xsroldsy","","","","","","","",""
"null","","","html-keyboard-response","16","83470","0.0-16.0","xsroldsy","","<span style=""color:Black; font-size:50px;"">Agent A","null","","","","",""
"null","","","video-keyboard-response","17","86287","0.0-17.0","xsroldsy","","","null","","Agent A","veridical","FOR_REV_BLOBBY_STIM/713593.bmp_pp64_L1_V1.0_veridical_freeview_isoFalse_fps144.mp4",""
"null","","","html-keyboard-response","18","87789","0.0-18.0","xsroldsy","","<span style=""color:Black; font-size:50px;"">Agent B","null","","","","",""
"null","","","video-keyboard-response","19","90633","0.0-19.0","xsroldsy","","","null","","Agent B","scrambled","FOR_REV_BLOBBY_STIM/713593.bmp_pp64_L1_V1.0_veridical_freeview_isoFalse_fps144_reversed_REAL.mp4",""
"","","","call-function","20","90634","0.0-20.0","xsroldsy","","","","","","","",""
"1688.179999999993","{""judgement"":0}","[0]","survey-likert","21","92324","0.0-21.0","xsroldsy","","","","","","","","0"
"1515.9349999999977","{""confidence"":3}","[0]","survey-likert","22","93841","0.0-22.0","xsroldsy","","","","","","","",""
"","","","call-function","23","93841","0.0-23.0","xsroldsy","","","","","","","",""
"null","","","html-keyboard-response","24","95344","0.0-24.0","xsroldsy","","<span style=""color:Black; font-size:50px;"">Agent A","null","","","","",""
"null","","","video-keyboard-response","25","97892","0.0-25.0","xsroldsy","","","null","","Agent A","scrambled","FOR_REV_BLOBBY_STIM/1159813.bmp_pp79_L2_V1.0_veridical_freeview_isoFalse_fps144_reversed_REAL.mp4",""
"null","","","html-keyboard-response","26","99397","0.0-26.0","xsroldsy","","<span style=""color:Black; font-size:50px;"">Agent B","null","","","","",""
"null","","","video-keyboard-response","27","101951","0.0-27.0","xsroldsy","","","null","","Agent B","veridical","FOR_REV_BLOBBY_STIM/1159813.bmp_pp79_L2_V1.0_veridical_freeview_isoFalse_fps144.mp4",""
"","","","call-function","28","101952","0.0-28.0","xsroldsy","","","","","","","",""
"6313.835000000006","{""judgement"":0}","[0]","survey-likert","29","108266","0.0-29.0","xsroldsy","","","","","","","","1"
"1194.5999999999913","{""confidence"":1}","[0]","survey-likert","30","109462","0.0-30.0","xsroldsy","","","","","","","",""
"","","","call-function","31","109463","0.0-31.0","xsroldsy","","","","","","","",""
"null","","","html-keyboard-response","32","110968","0.0-32.0","xsroldsy","","<span style=""color:Black; font-size:50px;"">Agent A","null","","","","",""
"null","","","video-keyboard-response","33","113704","0.0-33.0","xsroldsy","","","null","","Agent A","veridical","FOR_REV_BLOBBY_STIM/1592581.bmp_pp100_L3_V1.0_veridical_freeview_isoFalse_fps144.mp4",""
"null","","","html-keyboard-response","34","115210","0.0-34.0","xsroldsy","","<span style=""color:Black; font-size:50px;"">Agent B","null","","","","",""
"null","","","video-keyboard-response","35","117970","0.0-35.0","xsroldsy","","","null","","Agent B","scrambled","FOR_REV_BLOBBY_STIM/1592581.bmp_pp100_L3_V1.0_veridical_freeview_isoFalse_fps144_reversed_REAL.mp4",""
"","","","call-function","36","117971","0.0-36.0","xsroldsy","","","","","","","",""
"2465.50499999999","{""judgement"":1}","[0]","survey-likert","37","120437","0.0-37.0","xsroldsy","","","","","","","","0"
"2067.165000000008","{""confidence"":2}","[0]","survey-likert","38","122505","0.0-38.0","xsroldsy","","","","","","","",""
"","","","call-function","39","122505","0.0-39.0","xsroldsy","","","","","","","",""
"null","","","html-keyboard-response","40","124009","0.0-40.0","xsroldsy","","<span style=""color:Black; font-size:50px;"">Agent A","null","","","","",""
"null","","","video-keyboard-response","41","126821","0.0-41.0","xsroldsy","","","null","","Agent A","veridical","FOR_REV_BLOBBY_STIM/1159882.bmp_pp61_L2_V1.0_veridical_freeview_isoFalse_fps144.mp4",""
"null","","","html-keyboard-response","42","128325","0.0-42.0","xsroldsy","","<span style=""color:Black; font-size:50px;"">Agent B","null","","","","",""
"null","","","video-keyboard-response","43","131135","0.0-43.0","xsroldsy","","","null","","Agent B","scrambled","FOR_REV_BLOBBY_STIM/1159882.bmp_pp61_L2_V1.0_veridical_freeview_isoFalse_fps144_reversed_REAL.mp4",""
"","","","call-function","44","131136","0.0-44.0","xsroldsy","","","","","","","",""
"1864.8949999999895","{""judgement"":0}","[0]","survey-likert","45","133001","0.0-45.0","xsroldsy","","","","","","","","0"
"1089.2900000000081","{""confidence"":2}","[0]","survey-likert","46","134092","0.0-46.0","xsroldsy","","","","","","","",""
"","","","call-function","47","134092","0.0-47.0","xsroldsy","","","","","","","",""
"null","","","html-keyboard-response","48","135595","0.0-48.0","xsroldsy","","<span style=""color:Black; font-size:50px;"">Agent A","null","","","","",""
"null","","","video-keyboard-response","49","138479","0.0-49.0","xsroldsy","","","null","","Agent A","scrambled","FOR_REV_BLOBBY_STIM/1593035.bmp_pp94_L2_V1.0_veridical_freeview_isoFalse_fps144_reversed_REAL.mp4",""
"null","","","html-keyboard-response","50","139985","0.0-50.0","xsroldsy","","<span style=""color:Black; font-size:50px;"">Agent B","null","","","","",""
"null","","","video-keyboard-response","51","142869","0.0-51.0","xsroldsy","","","null","","Agent B","veridical","FOR_REV_BLOBBY_STIM/1593035.bmp_pp94_L2_V1.0_veridical_freeview_isoFalse_fps144.mp4",""
"","","","call-function","52","142869","0.0-52.0","xsroldsy","","","","","","","",""
"2649.8699999999953","{""judgement"":1}","[0]","survey-likert","53","145520","0.0-53.0","xsroldsy","","","","","","","","1"
"1182.7299999999814","{""confidence"":1}","[0]","survey-likert","54","146704","0.0-54.0","xsroldsy","","","","","","","",""
"","","","call-function","55","146704","0.0-55.0","xsroldsy","","","","","","","",""
"null","","","html-keyboard-response","56","148209","0.0-56.0","xsroldsy","","<span style=""color:Black; font-size:50px;"">Agent A","null","","","","",""
"null","","","video-keyboard-response","57","151041","0.0-57.0","xsroldsy","","","null","","Agent A","veridical","FOR_REV_BLOBBY_STIM/498253.bmp_pp67_L2_V1.0_veridical_freeview_isoFalse_fps144.mp4",""
"null","","","html-keyboard-response","58","152542","0.0-58.0","xsroldsy","","<span style=""color:Black; font-size:50px;"">Agent B","null","","","","",""
"null","","","video-keyboard-response","59","155403","0.0-59.0","xsroldsy","","","null","","Agent B","scrambled","FOR_REV_BLOBBY_STIM/498253.bmp_pp67_L2_V1.0_veridical_freeview_isoFalse_fps144_reversed_REAL.mp4",""
"","","","call-function","60","155403","0.0-60.0","xsroldsy","","","","","","","",""
"2085.375","{""judgement"":0}","[0]","survey-likert","61","157489","0.0-61.0","xsroldsy","","","","","","","","0"
"1360.3699999999953","{""confidence"":2}","[0]","survey-likert","62","158851","0.0-62.0","xsroldsy","","","","","","","",""
"","","","call-function","63","158851","0.0-63.0","xsroldsy","","","","","","","",""
"null","","","html-keyboard-response","64","160354","0.0-64.0","xsroldsy","","<span style=""color:Black; font-size:50px;"">Agent A","null","","","","",""
"null","","","video-keyboard-response","65","163203","0.0-65.0","xsroldsy","","","null","","Agent A","scrambled","FOR_REV_BLOBBY_STIM/1592657.bmp_pp98_L1_V1.0_veridical_freeview_isoFalse_fps144_reversed_REAL.mp4",""
"null","","","html-keyboard-response","66","164705","0.0-66.0","xsroldsy","","<span style=""color:Black; font-size:50px;"">Agent B","null","","","","",""
"null","","","video-keyboard-response","67","167527","0.0-67.0","xsroldsy","","","null","","Agent B","veridical","FOR_REV_BLOBBY_STIM/1592657.bmp_pp98_L1_V1.0_veridical_freeview_isoFalse_fps144.mp4",""
"","","","call-function","68","167528","0.0-68.0","xsroldsy","","","","","","","",""
"3245.149999999994","{""judgement"":1}","[0]","survey-likert","69","170775","0.0-69.0","xsroldsy","","","","","","","","1"
"901.2400000000198","{""confidence"":2}","[0]","survey-likert","70","171678","0.0-70.0","xsroldsy","","","","","","","",""
"","","","call-function","71","171679","0.0-71.0","xsroldsy","","","","","","","",""
"null","","","html-keyboard-response","72","173180","0.0-72.0","xsroldsy","","<span style=""color:Black; font-size:50px;"">Agent A","null","","","","",""
"null","","","video-keyboard-response","73","175943","0.0-73.0","xsroldsy","","","null","","Agent A","veridical","FOR_REV_BLOBBY_STIM/1159621.bmp_pp92_L3_V1.0_veridical_freeview_isoFalse_fps144.mp4",""
"null","","","html-keyboard-response","74","177450","0.0-74.0","xsroldsy","","<span style=""color:Black; font-size:50px;"">Agent B","null","","","","",""
"null","","","video-keyboard-response","75","181294","0.0-75.0","xsroldsy","","","null","","Agent B","scrambled","FOR_REV_BLOBBY_STIM/1159621.bmp_pp92_L3_V1.0_veridical_freeview_isoFalse_fps144_reversed_REAL.mp4",""
"","","","call-function","76","181294","0.0-76.0","xsroldsy","","","","","","","",""
"2158.790000000008","{""judgement"":0}","[0]","survey-likert","77","183454","0.0-77.0","xsroldsy","","","","","","","","0"
"2439.3699999999953","{""confidence"":2}","[0]","survey-likert","78","185895","0.0-78.0","xsroldsy","","","","","","","",""
"","","","call-function","79","185896","0.0-79.0","xsroldsy","","","","","","","",""
"null","","","html-keyboard-response","80","187400","0.0-80.0","xsroldsy","","<span style=""color:Black; font-size:50px;"">Agent A","null","","","","",""
"null","","","video-keyboard-response","81","190181","0.0-81.0","xsroldsy","","","null","","Agent A","veridical","FOR_REV_BLOBBY_STIM/1159829.bmp_pp91_L3_V1.0_veridical_freeview_isoFalse_fps144.mp4",""
"null","","","html-keyboard-response","82","191686","0.0-82.0","xsroldsy","","<span style=""color:Black; font-size:50px;"">Agent B","null","","","","",""
"null","","","video-keyboard-response","83","194468","0.0-83.0","xsroldsy","","","null","","Agent B","scrambled","FOR_REV_BLOBBY_STIM/1159829.bmp_pp91_L3_V1.0_veridical_freeview_isoFalse_fps144_reversed_REAL.mp4",""
"","","","call-function","84","194469","0.0-84.0","xsroldsy","","","","","","","",""
"1526.8000000000175","{""judgement"":0}","[0]","survey-likert","85","195996","0.0-85.0","xsroldsy","","","","","","","","0"
"1766.804999999993","{""confidence"":3}","[0]","survey-likert","86","197764","0.0-86.0","xsroldsy","","","","","","","",""
"1958.960000000021","","","instructions","87","199724","0.0-87.0","xsroldsy","[{""page_index"":0,""viewing_time"":882.9300000000221},{""page_index"":1,""viewing_time"":698.75},{""page_index"":2,""viewing_time"":377.125}]","","","","","","",""
"1983.8549999999814","","","instructions","88","201708","0.0-88.0","xsroldsy","[{""page_index"":0,""viewing_time"":351.2749999999942},{""page_index"":1,""viewing_time"":626.9750000000058},{""page_index"":2,""viewing_time"":1005.3800000000047}]","","","","","","",""
"","","","call-function","89","201709","0.0-89.0","xsroldsy","","","","","","","",""
"null","","","html-keyboard-response","90","203213","0.0-90.0","xsroldsy","","<span style=""color:Black; font-size:50px;"">Agent A","null","","","","",""
"null","","","video-keyboard-response","91","206114","0.0-91.0","xsroldsy","","","null","","Agent A","scrambled","FOR_REV_BLOBBY_STIM/285905.bmp_pp57_L1_V1.0_veridical_freeview_isoFalse_fps144_reversed_REAL.mp4",""
"null","","","html-keyboard-response","92","207619","0.0-92.0","xsroldsy","","<span style=""color:Black; font-size:50px;"">Agent B","null","","","","",""
"null","","","video-keyboard-response","93","210513","0.0-93.0","xsroldsy","","","null","","Agent B","veridical","FOR_REV_BLOBBY_STIM/285905.bmp_pp57_L1_V1.0_veridical_freeview_isoFalse_fps144.mp4",""
"","","","call-function","94","210513","0.0-94.0","xsroldsy","","","","","","","",""
"1509.1449999999895","{""judgement"":1}","[0]","survey-likert","95","212023","0.0-95.0","xsroldsy","","","","","","","","1"
"2240.149999999994","{""confidence"":3}","[0]","survey-likert","96","214265","0.0-96.0","xsroldsy","","","","","","","",""
"","","","call-function","97","214265","0.0-97.0","xsroldsy","","","","","","","",""
"null","","","html-keyboard-response","98","215767","0.0-98.0","xsroldsy","","<span style=""color:Black; font-size:50px;"">Agent A","null","","","","",""
"null","","","video-keyboard-response","99","218397","0.0-99.0","xsroldsy","","","null","","Agent A","veridical","FOR_REV_BLOBBY_STIM/61537.bmp_pp73_L3_V1.0_veridical_freeview_isoFalse_fps144.mp4",""
"null","","","html-keyboard-response","100","219900","0.0-100.0","xsroldsy","","<span style=""color:Black; font-size:50px;"">Agent B","null","","","","",""
"null","","","video-keyboard-response","101","222531","0.0-101.0","xsroldsy","","","null","","Agent B","scrambled","FOR_REV_BLOBBY_STIM/61537.bmp_pp73_L3_V1.0_veridical_freeview_isoFalse_fps144_reversed_REAL.mp4",""
"","","","call-function","102","222531","0.0-102.0","xsroldsy","","","","","","","",""
"5463.6600000000035","{""judgement"":0}","[0]","survey-likert","103","227996","0.0-103.0","xsroldsy","","","","","","","","0"
"1010.2300000000105","{""confidence"":1}","[0]","survey-likert","104","229007","0.0-104.0","xsroldsy","","","","","","","",""
"","","","call-function","105","229007","0.0-105.0","xsroldsy","","","","","","","",""
"null","","","html-keyboard-response","106","230511","0.0-106.0","xsroldsy","","<span style=""color:Black; font-size:50px;"">Agent A","null","","","","",""
"null","","","video-keyboard-response","107","233289","0.0-107.0","xsroldsy","","","null","","Agent A","veridical","FOR_REV_BLOBBY_STIM/1592804.bmp_pp91_L3_V1.0_veridical_freeview_isoFalse_fps144.mp4",""
"null","","","html-keyboard-response","108","234792","0.0-108.0","xsroldsy","","<span style=""color:Black; font-size:50px;"">Agent B","null","","","","",""
"null","","","video-keyboard-response","109","237573","0.0-109.0","xsroldsy","","","null","","Agent B","scrambled","FOR_REV_BLOBBY_STIM/1592804.bmp_pp91_L3_V1.0_veridical_freeview_isoFalse_fps144_reversed_REAL.mp4",""
"","","","call-function","110","237573","0.0-110.0","xsroldsy","","","","","","","",""
"5138.4499999999825","{""judgement"":1}","[0]","survey-likert","111","242713","0.0-111.0","xsroldsy","","","","","","","","0"
"2359.2050000000163","{""confidence"":2}","[0]","survey-likert","112","245073","0.0-112.0","xsroldsy","","","","","","","",""
"","","","call-function","113","245074","0.0-113.0","xsroldsy","","","","","","","",""
"null","","","html-keyboard-response","114","246578","0.0-114.0","xsroldsy","","<span style=""color:Black; font-size:50px;"">Agent A","null","","","","",""
"null","","","video-keyboard-response","115","249106","0.0-115.0","xsroldsy","","","null","","Agent A","scrambled","FOR_REV_BLOBBY_STIM/1591876.bmp_pp63_L1_V1.0_veridical_freeview_isoFalse_fps144_reversed_REAL.mp4",""
"null","","","html-keyboard-response","116","250612","0.0-116.0","xsroldsy","","<span style=""color:Black; font-size:50px;"">Agent B","null","","","","",""
"null","","","video-keyboard-response","117","253138","0.0-117.0","xsroldsy","","","null","","Agent B","veridical","FOR_REV_BLOBBY_STIM/1591876.bmp_pp63_L1_V1.0_veridical_freeview_isoFalse_fps144.mp4",""
"","","","call-function","118","253139","0.0-118.0","xsroldsy","","","","","","","",""
"1858.6200000000244","{""judgement"":1}","[0]","survey-likert","119","254998","0.0-119.0","xsroldsy","","","","","","","","1"
"1446.5350000000035","{""confidence"":2}","[0]","survey-likert","120","256446","0.0-120.0","xsroldsy","","","","","","","",""
"","","","call-function","121","256446","0.0-121.0","xsroldsy","","","","","","","",""
"null","","","html-keyboard-response","122","257948","0.0-122.0","xsroldsy","","<span style=""color:Black; font-size:50px;"">Agent A","null","","","","",""
"null","","","video-keyboard-response","123","260620","0.0-123.0","xsroldsy","","","null","","Agent A","veridical","FOR_REV_BLOBBY_STIM/1160168.bmp_pp53_L2_V1.0_veridical_freeview_isoFalse_fps144.mp4",""
"null","","","html-keyboard-response","124","262124","0.0-124.0","xsroldsy","","<span style=""color:Black; font-size:50px;"">Agent B","null","","","","",""
"null","","","video-keyboard-response","125","264799","0.0-125.0","xsroldsy","","","null","","Agent B","scrambled","FOR_REV_BLOBBY_STIM/1160168.bmp_pp53_L2_V1.0_veridical_freeview_isoFalse_fps144_reversed_REAL.mp4",""
"","","","call-function","126","264800","0.0-126.0","xsroldsy","","","","","","","",""
"2483.539999999979","{""judgement"":0}","[0]","survey-likert","127","267285","0.0-127.0","xsroldsy","","","","","","","","0"
"1739.850000000035","{""confidence"":2}","[0]","survey-likert","128","269026","0.0-128.0","xsroldsy","","","","","","","",""
"","","","call-function","129","269027","0.0-129.0","xsroldsy","","","","","","","",""
"null","","","html-keyboard-response","130","270529","0.0-130.0","xsroldsy","","<span style=""color:Black; font-size:50px;"">Agent A","null","","","","",""
"null","","","video-keyboard-response","131","273334","0.0-131.0","xsroldsy","","","null","","Agent A","veridical","FOR_REV_BLOBBY_STIM/1592890.bmp_pp82_L2_V1.0_veridical_freeview_isoFalse_fps144.mp4",""
"null","","","html-keyboard-response","132","274836","0.0-132.0","xsroldsy","","<span style=""color:Black; font-size:50px;"">Agent B","null","","","","",""
"null","","","video-keyboard-response","133","277638","0.0-133.0","xsroldsy","","","null","","Agent B","scrambled","FOR_REV_BLOBBY_STIM/1592890.bmp_pp82_L2_V1.0_veridical_freeview_isoFalse_fps144_reversed_REAL.mp4",""
"","","","call-function","134","277639","0.0-134.0","xsroldsy","","","","","","","",""
"2611.5500000000466","{""judgement"":0}","[0]","survey-likert","135","280252","0.0-135.0","xsroldsy","","","","","","","","0"
"1537.7649999999558","{""confidence"":3}","[0]","survey-likert","136","281791","0.0-136.0","xsroldsy","","","","","","","",""
"","","","call-function","137","281792","0.0-137.0","xsroldsy","","","","","","","",""
"null","","","html-keyboard-response","138","283295","0.0-138.0","xsroldsy","","<span style=""color:Black; font-size:50px;"">Agent A","null","","","","",""
"null","","","video-keyboard-response","139","285801","0.0-139.0","xsroldsy","","","null","","Agent A","scrambled","FOR_REV_BLOBBY_STIM/713513.bmp_pp62_L2_V1.0_veridical_freeview_isoFalse_fps144_reversed_REAL.mp4",""
"null","","","html-keyboard-response","140","287305","0.0-140.0","xsroldsy","","<span style=""color:Black; font-size:50px;"">Agent B","null","","","","",""
"null","","","video-keyboard-response","141","289813","0.0-141.0","xsroldsy","","","null","","Agent B","veridical","FOR_REV_BLOBBY_STIM/713513.bmp_pp62_L2_V1.0_veridical_freeview_isoFalse_fps144.mp4",""
"","","","call-function","142","289814","0.0-142.0","xsroldsy","","","","","","","",""
"3330.0749999999534","{""judgement"":0}","[0]","survey-likert","143","293145","0.0-143.0","xsroldsy","","","","","","","","1"
"874.0249999999651","{""confidence"":1}","[0]","survey-likert","144","294021","0.0-144.0","xsroldsy","","","","","","","",""
"","","","call-function","145","294021","0.0-145.0","xsroldsy","","","","","","","",""
"null","","","html-keyboard-response","146","295523","0.0-146.0","xsroldsy","","<span style=""color:Black; font-size:50px;"">Agent A","null","","","","",""
"null","","","video-keyboard-response","147","298346","0.0-147.0","xsroldsy","","","null","","Agent A","scrambled","FOR_REV_BLOBBY_STIM/1592807.bmp_pp68_L1_V1.0_veridical_freeview_isoFalse_fps144_reversed_REAL.mp4",""
"null","","","html-keyboard-response","148","299847","0.0-148.0","xsroldsy","","<span style=""color:Black; font-size:50px;"">Agent B","null","","","","",""
"null","","","video-keyboard-response","149","302666","0.0-149.0","xsroldsy","","","null","","Agent B","veridical","FOR_REV_BLOBBY_STIM/1592807.bmp_pp68_L1_V1.0_veridical_freeview_isoFalse_fps144.mp4",""
"","","","call-function","150","302667","0.0-150.0","xsroldsy","","","","","","","",""
"1921.030000000028","{""judgement"":1}","[0]","survey-likert","151","304589","0.0-151.0","xsroldsy","","","","","","","","1"
"1462.984999999986","{""confidence"":2}","[0]","survey-likert","152","306053","0.0-152.0","xsroldsy","","","","","","","",""
"","","","call-function","153","306053","0.0-153.0","xsroldsy","","","","","","","",""
"null","","","html-keyboard-response","154","307555","0.0-154.0","xsroldsy","","<span style=""color:Black; font-size:50px;"">Agent A","null","","","","",""
"null","","","video-keyboard-response","155","310310","0.0-155.0","xsroldsy","","","null","","Agent A","veridical","FOR_REV_BLOBBY_STIM/1592619.bmp_pp56_L3_V1.0_veridical_freeview_isoFalse_fps144.mp4",""
"null","","","html-keyboard-response","156","311814","0.0-156.0","xsroldsy","","<span style=""color:Black; font-size:50px;"">Agent B","null","","","","",""
"null","","","video-keyboard-response","157","314566","0.0-157.0","xsroldsy","","","null","","Agent B","scrambled","FOR_REV_BLOBBY_STIM/1592619.bmp_pp56_L3_V1.0_veridical_freeview_isoFalse_fps144_reversed_REAL.mp4",""
"","","","call-function","158","314567","0.0-158.0","xsroldsy","","","","","","","",""
"2746.1100000000442","{""judgement"":0}","[0]","survey-likert","159","317314","0.0-159.0","xsroldsy","","","","","","","","0"
"2839.4799999999814","{""confidence"":1}","[0]","survey-likert","160","320156","0.0-160.0","xsroldsy","","","","","","","",""
"","","","call-function","161","320156","0.0-161.0","xsroldsy","","","","","","","",""
"null","","","html-keyboard-response","162","321657","0.0-162.0","xsroldsy","","<span style=""color:Black; font-size:50px;"">Agent A","null","","","","",""
"null","","","video-keyboard-response","163","324360","0.0-163.0","xsroldsy","","","null","","Agent A","veridical","FOR_REV_BLOBBY_STIM/285994.bmp_pp92_L3_V1.0_veridical_freeview_isoFalse_fps144.mp4",""
"null","","","html-keyboard-response","164","325862","0.0-164.0","xsroldsy","","<span style=""color:Black; font-size:50px;"">Agent B","null","","","","",""
"null","","","video-keyboard-response","165","328566","0.0-165.0","xsroldsy","","","null","","Agent B","scrambled","FOR_REV_BLOBBY_STIM/285994.bmp_pp92_L3_V1.0_veridical_freeview_isoFalse_fps144_reversed_REAL.mp4",""
"","","","call-function","166","328566","0.0-166.0","xsroldsy","","","","","","","",""
"2793.9400000000023","{""judgement"":0}","[0]","survey-likert","167","331361","0.0-167.0","xsroldsy","","","","","","","","0"
"1393.7299999999814","{""confidence"":2}","[0]","survey-likert","168","332756","0.0-168.0","xsroldsy","","","","","","","",""
"1806.9100000000326","","","instructions","169","334564","0.0-169.0","xsroldsy","[{""page_index"":0,""viewing_time"":998.6850000000559},{""page_index"":1,""viewing_time"":395.9749999999767},{""page_index"":2,""viewing_time"":412.09499999997206}]","","","","","","",""
"1146.5199999999604","","","instructions","170","335711","0.0-170.0","xsroldsy","[{""page_index"":0,""viewing_time"":374.375},{""page_index"":1,""viewing_time"":387.3850000000093},{""page_index"":2,""viewing_time"":384.65499999996973}]","","","","","","",""
"","","","call-function","171","335711","0.0-171.0","xsroldsy","","","","","","","",""
"null","","","html-keyboard-response","172","337213","0.0-172.0","xsroldsy","","<span style=""color:Black; font-size:50px;"">Agent A","null","","","","",""
"null","","","video-keyboard-response","173","339986","0.0-173.0","xsroldsy","","","null","","Agent A","veridical","FOR_REV_BLOBBY_STIM/498155.bmp_pp61_L2_V1.0_veridical_freeview_isoFalse_fps144.mp4",""
"null","","","html-keyboard-response","174","341488","0.0-174.0","xsroldsy","","<span style=""color:Black; font-size:50px;"">Agent B","null","","","","",""
"null","","","video-keyboard-response","175","344278","0.0-175.0","xsroldsy","","","null","","Agent B","scrambled","FOR_REV_BLOBBY_STIM/498155.bmp_pp61_L2_V1.0_veridical_freeview_isoFalse_fps144_reversed_REAL.mp4",""
"","","","call-function","176","344278","0.0-176.0","xsroldsy","","","","","","","",""
"2304.0800000000163","{""judgement"":0}","[0]","survey-likert","177","346583","0.0-177.0","xsroldsy","","","","","","","","0"
"3391.8000000000466","{""confidence"":2}","[0]","survey-likert","178","349976","0.0-178.0","xsroldsy","","","","","","","",""
"","","","call-function","179","349976","0.0-179.0","xsroldsy","","","","","","","",""
"null","","","html-keyboard-response","180","351483","0.0-180.0","xsroldsy","","<span style=""color:Black; font-size:50px;"">Agent A","null","","","","",""
"null","","","video-keyboard-response","181","354316","0.0-181.0","xsroldsy","","","null","","Agent A","veridical","FOR_REV_BLOBBY_STIM/1160127.bmp_pp90_L2_V1.0_veridical_freeview_isoFalse_fps144.mp4",""
"null","","","html-keyboard-response","182","355822","0.0-182.0","xsroldsy","","<span style=""color:Black; font-size:50px;"">Agent B","null","","","","",""
"null","","","video-keyboard-response","183","358656","0.0-183.0","xsroldsy","","","null","","Agent B","scrambled","FOR_REV_BLOBBY_STIM/1160127.bmp_pp90_L2_V1.0_veridical_freeview_isoFalse_fps144_reversed_REAL.mp4",""
"","","","call-function","184","358656","0.0-184.0","xsroldsy","","","","","","","",""
"2078.820000000007","{""judgement"":0}","[0]","survey-likert","185","360736","0.0-185.0","xsroldsy","","","","","","","","0"
"4902.510000000009","{""confidence"":2}","[0]","survey-likert","186","365639","0.0-186.0","xsroldsy","","","","","","","",""
"","","","call-function","187","365640","0.0-187.0","xsroldsy","","","","","","","",""
"null","","","html-keyboard-response","188","367145","0.0-188.0","xsroldsy","","<span style=""color:Black; font-size:50px;"">Agent A","null","","","","",""
"null","","","video-keyboard-response","189","369805","0.0-189.0","xsroldsy","","","null","","Agent A","scrambled","FOR_REV_BLOBBY_STIM/713211.bmp_pp100_L3_V1.0_veridical_freeview_isoFalse_fps144_reversed_REAL.mp4",""
"null","","","html-keyboard-response","190","371306","0.0-190.0","xsroldsy","","<span style=""color:Black; font-size:50px;"">Agent B","null","","","","",""
"null","","","video-keyboard-response","191","373965","0.0-191.0","xsroldsy","","","null","","Agent B","veridical","FOR_REV_BLOBBY_STIM/713211.bmp_pp100_L3_V1.0_veridical_freeview_isoFalse_fps144.mp4",""
"","","","call-function","192","373965","0.0-192.0","xsroldsy","","","","","","","",""
"2850.9500000000116","{""judgement"":1}","[0]","survey-likert","193","376817","0.0-193.0","xsroldsy","","","","","","","","1"
"1248.4250000000466","{""confidence"":1}","[0]","survey-likert","194","378066","0.0-194.0","xsroldsy","","","","","","","",""
"","","","call-function","195","378067","0.0-195.0","xsroldsy","","","","","","","",""
"null","","","html-keyboard-response","196","379569","0.0-196.0","xsroldsy","","<span style=""color:Black; font-size:50px;"">Agent A","null","","","","",""
"null","","","video-keyboard-response","197","382183","0.0-197.0","xsroldsy","","","null","","Agent A","veridical","FOR_REV_BLOBBY_STIM/286001.bmp_pp54_L2_V1.0_veridical_freeview_isoFalse_fps144.mp4",""
"null","","","html-keyboard-response","198","383689","0.0-198.0","xsroldsy","","<span style=""color:Black; font-size:50px;"">Agent B","null","","","","",""
"null","","","video-keyboard-response","199","386294","0.0-199.0","xsroldsy","","","null","","Agent B","scrambled","FOR_REV_BLOBBY_STIM/286001.bmp_pp54_L2_V1.0_veridical_freeview_isoFalse_fps144_reversed_REAL.mp4",""
"","","","call-function","200","386295","0.0-200.0","xsroldsy","","","","","","","",""
"4326.22000000003","{""judgement"":0}","[0]","survey-likert","201","390622","0.0-201.0","xsroldsy","","","","","","","","0"
"1397.344999999972","{""confidence"":2}","[0]","survey-likert","202","392020","0.0-202.0","xsroldsy","","","","","","","",""
"","","","call-function","203","392021","0.0-203.0","xsroldsy","","","","","","","",""
"null","","","html-keyboard-response","204","393523","0.0-204.0","xsroldsy","","<span style=""color:Black; font-size:50px;"">Agent A","null","","","","",""
"null","","","video-keyboard-response","205","396114","0.0-205.0","xsroldsy","","","null","","Agent A","veridical","FOR_REV_BLOBBY_STIM/1592397.bmp_pp85_L3_V1.0_veridical_freeview_isoFalse_fps144.mp4",""
"null","","","html-keyboard-response","206","397619","0.0-206.0","xsroldsy","","<span style=""color:Black; font-size:50px;"">Agent B","null","","","","",""
"null","","","video-keyboard-response","207","400208","0.0-207.0","xsroldsy","","","null","","Agent B","scrambled","FOR_REV_BLOBBY_STIM/1592397.bmp_pp85_L3_V1.0_veridical_freeview_isoFalse_fps144_reversed_REAL.mp4",""
"","","","call-function","208","400208","0.0-208.0","xsroldsy","","","","","","","",""
"3095.0100000000093","{""judgement"":0}","[0]","survey-likert","209","403304","0.0-209.0","xsroldsy","","","","","","","","0"
"3771.7700000000186","{""confidence"":2}","[0]","survey-likert","210","407077","0.0-210.0","xsroldsy","","","","","","","",""
"","","","call-function","211","407077","0.0-211.0","xsroldsy","","","","","","","",""
"null","","","html-keyboard-response","212","408582","0.0-212.0","xsroldsy","","<span style=""color:Black; font-size:50px;"">Agent A","null","","","","",""
"null","","","video-keyboard-response","213","411227","0.0-213.0","xsroldsy","","","null","","Agent A","scrambled","FOR_REV_BLOBBY_STIM/713779.bmp_pp152_L2_V1.0_veridical_freeview_isoFalse_fps144_reversed_REAL.mp4",""
"null","","","html-keyboard-response","214","412729","0.0-214.0","xsroldsy","","<span style=""color:Black; font-size:50px;"">Agent B","null","","","","",""
"null","","","video-keyboard-response","215","415370","0.0-215.0","xsroldsy","","","null","","Agent B","veridical","FOR_REV_BLOBBY_STIM/713779.bmp_pp152_L2_V1.0_veridical_freeview_isoFalse_fps144.mp4",""
"","","","call-function","216","415371","0.0-216.0","xsroldsy","","","","","","","",""
"1681.6899999999441","{""judgement"":0}","[0]","survey-likert","217","417055","0.0-217.0","xsroldsy","","","","","","","","1"
"1216.8150000000023","{""confidence"":2}","[0]","survey-likert","218","418273","0.0-218.0","xsroldsy","","","","","","","",""
"","","","call-function","219","418274","0.0-219.0","xsroldsy","","","","","","","",""
"null","","","html-keyboard-response","220","419779","0.0-220.0","xsroldsy","","<span style=""color:Black; font-size:50px;"">Agent A","null","","","","",""
"null","","","video-keyboard-response","221","422535","0.0-221.0","xsroldsy","","","null","","Agent A","veridical","FOR_REV_BLOBBY_STIM/1593041.bmp_pp58_L1_V1.0_veridical_freeview_isoFalse_fps144.mp4",""
"null","","","html-keyboard-response","222","424038","0.0-222.0","xsroldsy","","<span style=""color:Black; font-size:50px;"">Agent B","null","","","","",""
"null","","","video-keyboard-response","223","426797","0.0-223.0","xsroldsy","","","null","","Agent B","scrambled","FOR_REV_BLOBBY_STIM/1593041.bmp_pp58_L1_V1.0_veridical_freeview_isoFalse_fps144_reversed_REAL.mp4",""
"","","","call-function","224","426798","0.0-224.0","xsroldsy","","","","","","","",""
"4355.209999999963","{""judgement"":0}","[0]","survey-likert","225","431155","0.0-225.0","xsroldsy","","","","","","","","0"
"1577.5299999999697","{""confidence"":1}","[0]","survey-likert","226","432733","0.0-226.0","xsroldsy","","","","","","","",""
"","","","call-function","227","432734","0.0-227.0","xsroldsy","","","","","","","",""
"null","","","html-keyboard-response","228","434236","0.0-228.0","xsroldsy","","<span style=""color:Black; font-size:50px;"">Agent A","null","","","","",""
"null","","","video-keyboard-response","229","436861","0.0-229.0","xsroldsy","","","null","","Agent A","veridical","FOR_REV_BLOBBY_STIM/713707.bmp_pp154_L1_V1.0_veridical_freeview_isoFalse_fps144.mp4",""
"null","","","html-keyboard-response","230","438365","0.0-230.0","xsroldsy","","<span style=""color:Black; font-size:50px;"">Agent B","null","","","","",""
"null","","","video-keyboard-response","231","440989","0.0-231.0","xsroldsy","","","null","","Agent B","scrambled","FOR_REV_BLOBBY_STIM/713707.bmp_pp154_L1_V1.0_veridical_freeview_isoFalse_fps144_reversed_REAL.mp4",""
"","","","call-function","232","440990","0.0-232.0","xsroldsy","","","","","","","",""
"6090.48000000004","{""judgement"":0}","[0]","survey-likert","233","447082","0.0-233.0","xsroldsy","","","","","","","","0"
"2092.475000000035","{""confidence"":2}","[0]","survey-likert","234","449175","0.0-234.0","xsroldsy","","","","","","","",""
"","","","call-function","235","449176","0.0-235.0","xsroldsy","","","","","","","",""
"null","","","html-keyboard-response","236","450677","0.0-236.0","xsroldsy","","<span style=""color:Black; font-size:50px;"">Agent A","null","","","","",""
"null","","","video-keyboard-response","237","453248","0.0-237.0","xsroldsy","","","null","","Agent A","veridical","FOR_REV_BLOBBY_STIM/713760.bmp_pp81_L1_V1.0_veridical_freeview_isoFalse_fps144.mp4",""
"null","","","html-keyboard-response","238","454754","0.0-238.0","xsroldsy","","<span style=""color:Black; font-size:50px;"">Agent B","null","","","","",""
"null","","","video-keyboard-response","239","457320","0.0-239.0","xsroldsy","","","null","","Agent B","scrambled","FOR_REV_BLOBBY_STIM/713760.bmp_pp81_L1_V1.0_veridical_freeview_isoFalse_fps144_reversed_REAL.mp4",""
"","","","call-function","240","457320","0.0-240.0","xsroldsy","","","","","","","",""
"3342.3150000000023","{""judgement"":0}","[0]","survey-likert","241","460664","0.0-241.0","xsroldsy","","","","","","","","0"
"1760","{""confidence"":3}","[0]","survey-likert","242","462425","0.0-242.0","xsroldsy","","","","","","","",""
"","","","call-function","243","462426","0.0-243.0","xsroldsy","","","","","","","",""
"null","","","html-keyboard-response","244","463929","0.0-244.0","xsroldsy","","<span style=""color:Black; font-size:50px;"">Agent A","null","","","","",""
"null","","","video-keyboard-response","245","466474","0.0-245.0","xsroldsy","","","null","","Agent A","scrambled","FOR_REV_BLOBBY_STIM/713796.bmp_pp84_L3_V1.0_veridical_freeview_isoFalse_fps144_reversed_REAL.mp4",""
"null","","","html-keyboard-response","246","467978","0.0-246.0","xsroldsy","","<span style=""color:Black; font-size:50px;"">Agent B","null","","","","",""
"null","","","video-keyboard-response","247","470520","0.0-247.0","xsroldsy","","","null","","Agent B","veridical","FOR_REV_BLOBBY_STIM/713796.bmp_pp84_L3_V1.0_veridical_freeview_isoFalse_fps144.mp4",""
"","","","call-function","248","470521","0.0-248.0","xsroldsy","","","","","","","",""
"5540.969999999972","{""judgement"":1}","[0]","survey-likert","249","476063","0.0-249.0","xsroldsy","","","","","","","","1"
"1314.4049999999697","{""confidence"":1}","[0]","survey-likert","250","477378","0.0-250.0","xsroldsy","","","","","","","",""
"1553.2699999999604","","","instructions","251","478932","0.0-251.0","xsroldsy","[{""page_index"":0,""viewing_time"":929.4899999999907},{""page_index"":1,""viewing_time"":369.6849999999977},{""page_index"":2,""viewing_time"":253.94500000000698}]","","","","","","",""
"1579.3150000000023","","","instructions","252","480512","0.0-252.0","xsroldsy","[{""page_index"":0,""viewing_time"":417.04999999998836},{""page_index"":1,""viewing_time"":657.570000000007},{""page_index"":2,""viewing_time"":504.59499999997206}]","","","","","","",""
"","","","call-function","253","480512","0.0-253.0","xsroldsy","","","","","","","",""
"null","","","html-keyboard-response","254","482018","0.0-254.0","xsroldsy","","<span style=""color:Black; font-size:50px;"">Agent A","null","","","","",""
"null","","","video-keyboard-response","255","484836","0.0-255.0","xsroldsy","","","null","","Agent A","veridical","FOR_REV_BLOBBY_STIM/1159440.bmp_pp98_L1_V1.0_veridical_freeview_isoFalse_fps144.mp4",""
"null","","","html-keyboard-response","256","486338","0.0-256.0","xsroldsy","","<span style=""color:Black; font-size:50px;"">Agent B","null","","","","",""
"null","","","video-keyboard-response","257","489122","0.0-257.0","xsroldsy","","","null","","Agent B","scrambled","FOR_REV_BLOBBY_STIM/1159440.bmp_pp98_L1_V1.0_veridical_freeview_isoFalse_fps144_reversed_REAL.mp4",""
"","","","call-function","258","489122","0.0-258.0","xsroldsy","","","","","","","",""
"6560.014999999956","{""judgement"":0}","[0]","survey-likert","259","495683","0.0-259.0","xsroldsy","","","","","","","","0"
"1554.5349999999744","{""confidence"":1}","[0]","survey-likert","260","497239","0.0-260.0","xsroldsy","","","","","","","",""
"","","","call-function","261","497240","0.0-261.0","xsroldsy","","","","","","","",""
"null","","","html-keyboard-response","262","498746","0.0-262.0","xsroldsy","","<span style=""color:Black; font-size:50px;"">Agent A","null","","","","",""
"null","","","video-keyboard-response","263","501473","0.0-263.0","xsroldsy","","","null","","Agent A","scrambled","FOR_REV_BLOBBY_STIM/713749.bmp_pp88_L2_V1.0_veridical_freeview_isoFalse_fps144_reversed_REAL.mp4",""
"null","","","html-keyboard-response","264","502980","0.0-264.0","xsroldsy","","<span style=""color:Black; font-size:50px;"">Agent B","null","","","","",""
"null","","","video-keyboard-response","265","505706","0.0-265.0","xsroldsy","","","null","","Agent B","veridical","FOR_REV_BLOBBY_STIM/713749.bmp_pp88_L2_V1.0_veridical_freeview_isoFalse_fps144.mp4",""
"","","","call-function","266","505707","0.0-266.0","xsroldsy","","","","","","","",""
"1462.179999999993","{""judgement"":1}","[0]","survey-likert","267","507170","0.0-267.0","xsroldsy","","","","","","","","1"
"1517.5449999999837","{""confidence"":3}","[0]","survey-likert","268","508689","0.0-268.0","xsroldsy","","","","","","","",""
"","","","call-function","269","508690","0.0-269.0","xsroldsy","","","","","","","",""
"null","","","html-keyboard-response","270","510195","0.0-270.0","xsroldsy","","<span style=""color:Black; font-size:50px;"">Agent A","null","","","","",""
"null","","","video-keyboard-response","271","512918","0.0-271.0","xsroldsy","","","null","","Agent A","veridical","FOR_REV_BLOBBY_STIM/285933.bmp_pp81_L1_V1.0_veridical_freeview_isoFalse_fps144.mp4",""
"null","","","html-keyboard-response","272","514420","0.0-272.0","xsroldsy","","<span style=""color:Black; font-size:50px;"">Agent B","null","","","","",""
"null","","","video-keyboard-response","273","517169","0.0-273.0","xsroldsy","","","null","","Agent B","scrambled","FOR_REV_BLOBBY_STIM/285933.bmp_pp81_L1_V1.0_veridical_freeview_isoFalse_fps144_reversed_REAL.mp4",""
"","","","call-function","274","517170","0.0-274.0","xsroldsy","","","","","","","",""
"2047.2999999999884","{""judgement"":1}","[0]","survey-likert","275","519218","0.0-275.0","xsroldsy","","","","","","","","0"
"1972.0500000000466","{""confidence"":1}","[0]","survey-likert","276","521191","0.0-276.0","xsroldsy","","","","","","","",""
"","","","call-function","277","521192","0.0-277.0","xsroldsy","","","","","","","",""
"null","","","html-keyboard-response","278","522694","0.0-278.0","xsroldsy","","<span style=""color:Black; font-size:50px;"">Agent A","null","","","","",""
"null","","","video-keyboard-response","279","525543","0.0-279.0","xsroldsy","","","null","","Agent A","scrambled","FOR_REV_BLOBBY_STIM/1592286.bmp_pp52_L1_V1.0_veridical_freeview_isoFalse_fps144_reversed_REAL.mp4",""
"null","","","html-keyboard-response","280","527047","0.0-280.0","xsroldsy","","<span style=""color:Black; font-size:50px;"">Agent B","null","","","","",""
"null","","","video-keyboard-response","281","529900","0.0-281.0","xsroldsy","","","null","","Agent B","veridical","FOR_REV_BLOBBY_STIM/1592286.bmp_pp52_L1_V1.0_veridical_freeview_isoFalse_fps144.mp4",""
"","","","call-function","282","529900","0.0-282.0","xsroldsy","","","","","","","",""
"2414.4700000000885","{""judgement"":1}","[0]","survey-likert","283","532316","0.0-283.0","xsroldsy","","","","","","","","1"
"1376.4550000000745","{""confidence"":3}","[0]","survey-likert","284","533693","0.0-284.0","xsroldsy","","","","","","","",""
"","","","call-function","285","533694","0.0-285.0","xsroldsy","","","","","","","",""
"null","","","html-keyboard-response","286","535196","0.0-286.0","xsroldsy","","<span style=""color:Black; font-size:50px;"">Agent A","null","","","","",""
"null","","","video-keyboard-response","287","538049","0.0-287.0","xsroldsy","","","null","","Agent A","scrambled","FOR_REV_BLOBBY_STIM/1591961.bmp_pp67_L2_V1.0_veridical_freeview_isoFalse_fps144_reversed_REAL.mp4",""
"null","","","html-keyboard-response","288","539555","0.0-288.0","xsroldsy","","<span style=""color:Black; font-size:50px;"">Agent B","null","","","","",""
"null","","","video-keyboard-response","289","542397","0.0-289.0","xsroldsy","","","null","","Agent B","veridical","FOR_REV_BLOBBY_STIM/1591961.bmp_pp67_L2_V1.0_veridical_freeview_isoFalse_fps144.mp4",""
"","","","call-function","290","542397","0.0-290.0","xsroldsy","","","","","","","",""
"7342.224999999977","{""judgement"":1}","[0]","survey-likert","291","549741","0.0-291.0","xsroldsy","","","","","","","","1"
"1285.7999999999302","{""confidence"":0}","[0]","survey-likert","292","551028","0.0-292.0","xsroldsy","","","","","","","",""
"","","","call-function","293","551029","0.0-293.0","xsroldsy","","","","","","","",""
"null","","","html-keyboard-response","294","552532","0.0-294.0","xsroldsy","","<span style=""color:Black; font-size:50px;"">Agent A","null","","","","",""
"null","","","video-keyboard-response","295","555310","0.0-295.0","xsroldsy","","","null","","Agent A","veridical","FOR_REV_BLOBBY_STIM/713620.bmp_pp65_L3_V1.0_veridical_freeview_isoFalse_fps144.mp4",""
"null","","","html-keyboard-response","296","556813","0.0-296.0","xsroldsy","","<span style=""color:Black; font-size:50px;"">Agent B","null","","","","",""
"null","","","video-keyboard-response","297","559639","0.0-297.0","xsroldsy","","","null","","Agent B","scrambled","FOR_REV_BLOBBY_STIM/713620.bmp_pp65_L3_V1.0_veridical_freeview_isoFalse_fps144_reversed_REAL.mp4",""
"","","","call-function","298","559641","0.0-298.0","xsroldsy","","","","","","","",""
"2029.1849999999395","{""judgement"":0}","[0]","survey-likert","299","561671","0.0-299.0","xsroldsy","","","","","","","","0"
"1555.344999999972","{""confidence"":1}","[0]","survey-likert","300","563228","0.0-300.0","xsroldsy","","","","","","","",""
"","","","call-function","301","563229","0.0-301.0","xsroldsy","","","","","","","",""
"null","","","html-keyboard-response","302","564733","0.0-302.0","xsroldsy","","<span style=""color:Black; font-size:50px;"">Agent A","null","","","","",""
"null","","","video-keyboard-response","303","567521","0.0-303.0","xsroldsy","","","null","","Agent A","scrambled","FOR_REV_BLOBBY_STIM/1591994.bmp_pp69_L3_V1.0_veridical_freeview_isoFalse_fps144_reversed_REAL.mp4",""
"null","","","html-keyboard-response","304","569024","0.0-304.0","xsroldsy","","<span style=""color:Black; font-size:50px;"">Agent B","null","","","","",""
"null","","","video-keyboard-response","305","571794","0.0-305.0","xsroldsy","","","null","","Agent B","veridical","FOR_REV_BLOBBY_STIM/1591994.bmp_pp69_L3_V1.0_veridical_freeview_isoFalse_fps144.mp4",""
"","","","call-function","306","571795","0.0-306.0","xsroldsy","","","","","","","",""
"3971.560000000056","{""judgement"":1}","[0]","survey-likert","307","575767","0.0-307.0","xsroldsy","","","","","","","","1"
"1784.594999999972","{""confidence"":2}","[0]","survey-likert","308","577553","0.0-308.0","xsroldsy","","","","","","","",""
"","","","call-function","309","577554","0.0-309.0","xsroldsy","","","","","","","",""
"null","","","html-keyboard-response","310","579058","0.0-310.0","xsroldsy","","<span style=""color:Black; font-size:50px;"">Agent A","null","","","","",""
"null","","","video-keyboard-response","311","581868","0.0-311.0","xsroldsy","","","null","","Agent A","veridical","FOR_REV_BLOBBY_STIM/1159675.bmp_pp77_L3_V1.0_veridical_freeview_isoFalse_fps144.mp4",""
"null","","","html-keyboard-response","312","583371","0.0-312.0","xsroldsy","","<span style=""color:Black; font-size:50px;"">Agent B","null","","","","",""
"null","","","video-keyboard-response","313","586186","0.0-313.0","xsroldsy","","","null","","Agent B","scrambled","FOR_REV_BLOBBY_STIM/1159675.bmp_pp77_L3_V1.0_veridical_freeview_isoFalse_fps144_reversed_REAL.mp4",""
"","","","call-function","314","586187","0.0-314.0","xsroldsy","","","","","","","",""
"2840.685000000056","{""judgement"":1}","[0]","survey-likert","315","589028","0.0-315.0","xsroldsy","","","","","","","","0"
"18644.839999999967","{""confidence"":0}","[0]","survey-likert","316","607674","0.0-316.0","xsroldsy","","","","","","","",""
"","","","call-function","317","607675","0.0-317.0","xsroldsy","","","","","","","",""
"null","","","html-keyboard-response","318","609175","0.0-318.0","xsroldsy","","<span style=""color:Black; font-size:50px;"">Agent A","null","","","","",""
"null","","","video-keyboard-response","319","611990","0.0-319.0","xsroldsy","","","null","","Agent A","scrambled","FOR_REV_BLOBBY_STIM/1159784.bmp_pp73_L3_V1.0_veridical_freeview_isoFalse_fps144_reversed_REAL.mp4",""
"null","","","html-keyboard-response","320","613496","0.0-320.0","xsroldsy","","<span style=""color:Black; font-size:50px;"">Agent B","null","","","","",""
"null","","","video-keyboard-response","321","616309","0.0-321.0","xsroldsy","","","null","","Agent B","veridical","FOR_REV_BLOBBY_STIM/1159784.bmp_pp73_L3_V1.0_veridical_freeview_isoFalse_fps144.mp4",""
"","","","call-function","322","616311","0.0-322.0","xsroldsy","","","","","","","",""
"1509.6749999999302","{""judgement"":1}","[0]","survey-likert","323","617822","0.0-323.0","xsroldsy","","","","","","","","1"
"1405.219999999972","{""confidence"":2}","[0]","survey-likert","324","619228","0.0-324.0","xsroldsy","","","","","","","",""
"","","","call-function","325","619228","0.0-325.0","xsroldsy","","","","","","","",""
"null","","","html-keyboard-response","326","620733","0.0-326.0","xsroldsy","","<span style=""color:Black; font-size:50px;"">Agent A","null","","","","",""
"null","","","video-keyboard-response","327","623533","0.0-327.0","xsroldsy","","","null","","Agent A","scrambled","FOR_REV_BLOBBY_STIM/1159768.bmp_pp89_L1_V1.0_veridical_freeview_isoFalse_fps144_reversed_REAL.mp4",""
"null","","","html-keyboard-response","328","625037","0.0-328.0","xsroldsy","","<span style=""color:Black; font-size:50px;"">Agent B","null","","","","",""
"null","","","video-keyboard-response","329","627840","0.0-329.0","xsroldsy","","","null","","Agent B","veridical","FOR_REV_BLOBBY_STIM/1159768.bmp_pp89_L1_V1.0_veridical_freeview_isoFalse_fps144.mp4",""
"","","","call-function","330","627841","0.0-330.0","xsroldsy","","","","","","","",""
"3329.534999999916","{""judgement"":0}","[0]","survey-likert","331","631171","0.0-331.0","xsroldsy","","","","","","","","1"
"1549.25","{""confidence"":2}","[0]","survey-likert","332","632722","0.0-332.0","xsroldsy","","","","","","","",""
"1770.0100000000093","","","instructions","333","634492","0.0-333.0","xsroldsy","[{""page_index"":0,""viewing_time"":926.0799999999581},{""page_index"":1,""viewing_time"":407.6949999999488},{""page_index"":2,""viewing_time"":436.0800000000745}]","","","","","","",""
"1973.6149999999907","","","instructions","334","636466","0.0-334.0","xsroldsy","[{""page_index"":0,""viewing_time"":440.64000000001397},{""page_index"":1,""viewing_time"":673.6499999999069},{""page_index"":2,""viewing_time"":859.2100000000792}]","","","","","","",""
"","","","call-function","335","636467","0.0-335.0","xsroldsy","","","","","","","",""
"null","","","html-keyboard-response","336","637969","0.0-336.0","xsroldsy","","<span style=""color:Black; font-size:50px;"">Agent A","null","","","","",""
"null","","","video-keyboard-response","337","640770","0.0-337.0","xsroldsy","","","null","","Agent A","veridical","FOR_REV_BLOBBY_STIM/713666.bmp_pp97_L3_V1.0_veridical_freeview_isoFalse_fps144.mp4",""
"null","","","html-keyboard-response","338","642274","0.0-338.0","xsroldsy","","<span style=""color:Black; font-size:50px;"">Agent B","null","","","","",""
"null","","","video-keyboard-response","339","645072","0.0-339.0","xsroldsy","","","null","","Agent B","scrambled","FOR_REV_BLOBBY_STIM/713666.bmp_pp97_L3_V1.0_veridical_freeview_isoFalse_fps144_reversed_REAL.mp4",""
"","","","call-function","340","645073","0.0-340.0","xsroldsy","","","","","","","",""
"3787.0400000000373","{""judgement"":0}","[0]","survey-likert","341","648861","0.0-341.0","xsroldsy","","","","","","","","0"
"2171.0050000000047","{""confidence"":1}","[0]","survey-likert","342","651033","0.0-342.0","xsroldsy","","","","","","","",""
"","","","call-function","343","651033","0.0-343.0","xsroldsy","","","","","","","",""
"null","","","html-keyboard-response","344","652538","0.0-344.0","xsroldsy","","<span style=""color:Black; font-size:50px;"">Agent A","null","","","","",""
"null","","","video-keyboard-response","345","655361","0.0-345.0","xsroldsy","","","null","","Agent A","scrambled","FOR_REV_BLOBBY_STIM/713371.bmp_pp68_L1_V1.0_veridical_freeview_isoFalse_fps144_reversed_REAL.mp4",""
"null","","","html-keyboard-response","346","656864","0.0-346.0","xsroldsy","","<span style=""color:Black; font-size:50px;"">Agent B","null","","","","",""
"null","","","video-keyboard-response","347","659678","0.0-347.0","xsroldsy","","","null","","Agent B","veridical","FOR_REV_BLOBBY_STIM/713371.bmp_pp68_L1_V1.0_veridical_freeview_isoFalse_fps144.mp4",""
"","","","call-function","348","659678","0.0-348.0","xsroldsy","","","","","","","",""
"2008.4250000000466","{""judgement"":1}","[0]","survey-likert","349","661688","0.0-349.0","xsroldsy","","","","","","","","1"
"1327.109999999986","{""confidence"":2}","[0]","survey-likert","350","663016","0.0-350.0","xsroldsy","","","","","","","",""
"","","","call-function","351","663016","0.0-351.0","xsroldsy","","","","","","","",""
"null","","","html-keyboard-response","352","664520","0.0-352.0","xsroldsy","","<span style=""color:Black; font-size:50px;"">Agent A","null","","","","",""
"null","","","video-keyboard-response","353","667260","0.0-353.0","xsroldsy","","","null","","Agent A","scrambled","FOR_REV_BLOBBY_STIM/498170.bmp_pp153_L3_V1.0_veridical_freeview_isoFalse_fps144_reversed_REAL.mp4",""
"null","","","html-keyboard-response","354","668762","0.0-354.0","xsroldsy","","<span style=""color:Black; font-size:50px;"">Agent B","null","","","","",""
"null","","","video-keyboard-response","355","671501","0.0-355.0","xsroldsy","","","null","","Agent B","veridical","FOR_REV_BLOBBY_STIM/498170.bmp_pp153_L3_V1.0_veridical_freeview_isoFalse_fps144.mp4",""
"","","","call-function","356","671503","0.0-356.0","xsroldsy","","","","","","","",""
"4255.475000000093","{""judgement"":0}","[0]","survey-likert","357","675760","0.0-357.0","xsroldsy","","","","","","","","1"
"1725.9099999999162","{""confidence"":2}","[0]","survey-likert","358","677488","0.0-358.0","xsroldsy","","","","","","","",""
"","","","call-function","359","677490","0.0-359.0","xsroldsy","","","","","","","",""
"null","","","html-keyboard-response","360","678992","0.0-360.0","xsroldsy","","<span style=""color:Black; font-size:50px;"">Agent A","null","","","","",""
"null","","","video-keyboard-response","361","681688","0.0-361.0","xsroldsy","","","null","","Agent A","scrambled","FOR_REV_BLOBBY_STIM/1592934.bmp_pp63_L1_V1.0_veridical_freeview_isoFalse_fps144_reversed_REAL.mp4",""
"null","","","html-keyboard-response","362","683195","0.0-362.0","xsroldsy","","<span style=""color:Black; font-size:50px;"">Agent B","null","","","","",""
"null","","","video-keyboard-response","363","685890","0.0-363.0","xsroldsy","","","null","","Agent B","veridical","FOR_REV_BLOBBY_STIM/1592934.bmp_pp63_L1_V1.0_veridical_freeview_isoFalse_fps144.mp4",""
"","","","call-function","364","685890","0.0-364.0","xsroldsy","","","","","","","",""
"5108.425000000047","{""judgement"":0}","[0]","survey-likert","365","691000","0.0-365.0","xsroldsy","","","","","","","","1"
"2045.6450000000186","{""confidence"":2}","[0]","survey-likert","366","693047","0.0-366.0","xsroldsy","","","","","","","",""
"","","","call-function","367","693047","0.0-367.0","xsroldsy","","","","","","","",""
"null","","","html-keyboard-response","368","694550","0.0-368.0","xsroldsy","","<span style=""color:Black; font-size:50px;"">Agent A","null","","","","",""
"null","","","video-keyboard-response","369","697347","0.0-369.0","xsroldsy","","","null","","Agent A","veridical","FOR_REV_BLOBBY_STIM/498175.bmp_pp154_L1_V1.0_veridical_freeview_isoFalse_fps144.mp4",""
"null","","","html-keyboard-response","370","698853","0.0-370.0","xsroldsy","","<span style=""color:Black; font-size:50px;"">Agent B","null","","","","",""
"null","","","video-keyboard-response","371","701650","0.0-371.0","xsroldsy","","","null","","Agent B","scrambled","FOR_REV_BLOBBY_STIM/498175.bmp_pp154_L1_V1.0_veridical_freeview_isoFalse_fps144_reversed_REAL.mp4",""
"","","","call-function","372","701650","0.0-372.0","xsroldsy","","","","","","","",""
"2828.2149999999674","{""judgement"":0}","[0]","survey-likert","373","704479","0.0-373.0","xsroldsy","","","","","","","","0"
"2049.204999999958","{""confidence"":3}","[0]","survey-likert","374","706530","0.0-374.0","xsroldsy","","","","","","","",""
"","","","call-function","375","706530","0.0-375.0","xsroldsy","","","","","","","",""
"null","","","html-keyboard-response","376","708035","0.0-376.0","xsroldsy","","<span style=""color:Black; font-size:50px;"">Agent A","null","","","","",""
"null","","","video-keyboard-response","377","710902","0.0-377.0","xsroldsy","","","null","","Agent A","scrambled","FOR_REV_BLOBBY_STIM/497950.bmp_pp151_L1_V1.0_veridical_freeview_isoFalse_fps144_reversed_REAL.mp4",""
"null","","","html-keyboard-response","378","712406","0.0-378.0","xsroldsy","","<span style=""color:Black; font-size:50px;"">Agent B","null","","","","",""
"null","","","video-keyboard-response","379","715264","0.0-379.0","xsroldsy","","","null","","Agent B","veridical","FOR_REV_BLOBBY_STIM/497950.bmp_pp151_L1_V1.0_veridical_freeview_isoFalse_fps144.mp4",""
"","","","call-function","380","715265","0.0-380.0","xsroldsy","","","","","","","",""
"3476.4400000000605","{""judgement"":1}","[0]","survey-likert","381","718742","0.0-381.0","xsroldsy","","","","","","","","1"
"1225.5549999999348","{""confidence"":3}","[0]","survey-likert","382","719969","0.0-382.0","xsroldsy","","","","","","","",""
"","","","call-function","383","719969","0.0-383.0","xsroldsy","","","","","","","",""
"null","","","html-keyboard-response","384","721471","0.0-384.0","xsroldsy","","<span style=""color:Black; font-size:50px;"">Agent A","null","","","","",""
"null","","","video-keyboard-response","385","724290","0.0-385.0","xsroldsy","","","null","","Agent A","veridical","FOR_REV_BLOBBY_STIM/285751.bmp_pp55_L3_V1.0_veridical_freeview_isoFalse_fps144.mp4",""
"null","","","html-keyboard-response","386","725795","0.0-386.0","xsroldsy","","<span style=""color:Black; font-size:50px;"">Agent B","null","","","","",""
"null","","","video-keyboard-response","387","728617","0.0-387.0","xsroldsy","","","null","","Agent B","scrambled","FOR_REV_BLOBBY_STIM/285751.bmp_pp55_L3_V1.0_veridical_freeview_isoFalse_fps144_reversed_REAL.mp4",""
"","","","call-function","388","728617","0.0-388.0","xsroldsy","","","","","","","",""
"1463.9350000000559","{""judgement"":0}","[0]","survey-likert","389","730082","0.0-389.0","xsroldsy","","","","","","","","0"
"1174.3349999999627","{""confidence"":2}","[0]","survey-likert","390","731257","0.0-390.0","xsroldsy","","","","","","","",""
"","","","call-function","391","731258","0.0-391.0","xsroldsy","","","","","","","",""
"null","","","html-keyboard-response","392","732763","0.0-392.0","xsroldsy","","<span style=""color:Black; font-size:50px;"">Agent A","null","","","","",""
"null","","","video-keyboard-response","393","735585","0.0-393.0","xsroldsy","","","null","","Agent A","scrambled","FOR_REV_BLOBBY_STIM/1592362.bmp_pp95_L2_V1.0_veridical_freeview_isoFalse_fps144_reversed_REAL.mp4",""
"null","","","html-keyboard-response","394","737089","0.0-394.0","xsroldsy","","<span style=""color:Black; font-size:50px;"">Agent B","null","","","","",""
"null","","","video-keyboard-response","395","739908","0.0-395.0","xsroldsy","","","null","","Agent B","veridical","FOR_REV_BLOBBY_STIM/1592362.bmp_pp95_L2_V1.0_veridical_freeview_isoFalse_fps144.mp4",""
"","","","call-function","396","739908","0.0-396.0","xsroldsy","","","","","","","",""
"1344.8349999999627","{""judgement"":1}","[0]","survey-likert","397","741254","0.0-397.0","xsroldsy","","","","","","","","1"
"1241.625","{""confidence"":3}","[0]","survey-likert","398","742497","0.0-398.0","xsroldsy","","","","","","","",""
"","","","call-function","399","742498","0.0-399.0","xsroldsy","","","","","","","",""
"null","","","html-keyboard-response","400","744001","0.0-400.0","xsroldsy","","<span style=""color:Black; font-size:50px;"">Agent A","null","","","","",""
"null","","","video-keyboard-response","401","746812","0.0-401.0","xsroldsy","","","null","","Agent A","veridical","FOR_REV_BLOBBY_STIM/712977.bmp_pp51_L1_V1.0_veridical_freeview_isoFalse_fps144.mp4",""
"null","","","html-keyboard-response","402","748316","0.0-402.0","xsroldsy","","<span style=""color:Black; font-size:50px;"">Agent B","null","","","","",""
"null","","","video-keyboard-response","403","751126","0.0-403.0","xsroldsy","","","null","","Agent B","scrambled","FOR_REV_BLOBBY_STIM/712977.bmp_pp51_L1_V1.0_veridical_freeview_isoFalse_fps144_reversed_REAL.mp4",""
"","","","call-function","404","751127","0.0-404.0","xsroldsy","","","","","","","",""
"6565","{""judgement"":0}","[0]","survey-likert","405","757693","0.0-405.0","xsroldsy","","","","","","","","0"
"1264.875","{""confidence"":2}","[0]","survey-likert","406","758959","0.0-406.0","xsroldsy","","","","","","","",""
"","","","call-function","407","758959","0.0-407.0","xsroldsy","","","","","","","",""
"null","","","html-keyboard-response","408","760465","0.0-408.0","xsroldsy","","<span style=""color:Black; font-size:50px;"">Agent A","null","","","","",""
"null","","","video-keyboard-response","409","763187","0.0-409.0","xsroldsy","","","null","","Agent A","scrambled","FOR_REV_BLOBBY_STIM/1591954.bmp_pp62_L2_V1.0_veridical_freeview_isoFalse_fps144_reversed_REAL.mp4",""
"null","","","html-keyboard-response","410","764691","0.0-410.0","xsroldsy","","<span style=""color:Black; font-size:50px;"">Agent B","null","","","","",""
"null","","","video-keyboard-response","411","767413","0.0-411.0","xsroldsy","","","null","","Agent B","veridical","FOR_REV_BLOBBY_STIM/1591954.bmp_pp62_L2_V1.0_veridical_freeview_isoFalse_fps144.mp4",""
"","","","call-function","412","767414","0.0-412.0","xsroldsy","","","","","","","",""
"1589.6450000000186","{""judgement"":1}","[0]","survey-likert","413","769005","0.0-413.0","xsroldsy","","","","","","","","1"
"1183.7750000000233","{""confidence"":1}","[0]","survey-likert","414","770190","0.0-414.0","xsroldsy","","","","","","","",""
"93341.69499999995","","","instructions","415","863533","0.0-415.0","xsroldsy","[{""page_index"":0,""viewing_time"":92338.0099999999},{""page_index"":1,""viewing_time"":367.5600000000559},{""page_index"":2,""viewing_time"":635.9749999999767}]","","","","","","",""
"2390.454999999958","","","instructions","416","865925","0.0-416.0","xsroldsy","[{""page_index"":0,""viewing_time"":767.4300000000512},{""page_index"":1,""viewing_time"":557.7749999999069},{""page_index"":2,""viewing_time"":1065.1450000000186}]","","","","","","",""
"","","","call-function","417","865926","0.0-417.0","xsroldsy","","","","","","","",""
"null","","","html-keyboard-response","418","867429","0.0-418.0","xsroldsy","","<span style=""color:Black; font-size:50px;"">Agent A","null","","","","",""
"null","","","video-keyboard-response","419","869012","0.0-419.0","xsroldsy","","","null","","Agent A","veridical","FOR_REV_BLOBBY_STIM/713684.bmp_pp85_L3_V1.0_veridical_freeview_isoFalse_fps144.mp4",""
"null","","","html-keyboard-response","420","870515","0.0-420.0","xsroldsy","","<span style=""color:Black; font-size:50px;"">Agent B","null","","","","",""
"null","","","video-keyboard-response","421","872101","0.0-421.0","xsroldsy","","","null","","Agent B","scrambled","FOR_REV_BLOBBY_STIM/713684.bmp_pp85_L3_V1.0_veridical_freeview_isoFalse_fps144_reversed_REAL.mp4",""
"","","","call-function","422","872101","0.0-422.0","xsroldsy","","","","","","","",""
"4945.045000000042","{""judgement"":0}","[0]","survey-likert","423","877047","0.0-423.0","xsroldsy","","","","","","","","0"
"1531.7399999999907","{""confidence"":1}","[0]","survey-likert","424","878580","0.0-424.0","xsroldsy","","","","","","","",""
"","","","call-function","425","878581","0.0-425.0","xsroldsy","","","","","","","",""
"null","","","html-keyboard-response","426","880083","0.0-426.0","xsroldsy","","<span style=""color:Black; font-size:50px;"">Agent A","null","","","","",""
"null","","","video-keyboard-response","427","882611","0.0-427.0","xsroldsy","","","null","","Agent A","veridical","FOR_REV_BLOBBY_STIM/1159515.bmp_pp84_L3_V1.0_veridical_freeview_isoFalse_fps144.mp4",""
"null","","","html-keyboard-response","428","884113","0.0-428.0","xsroldsy","","<span style=""color:Black; font-size:50px;"">Agent B","null","","","","",""
"null","","","video-keyboard-response","429","886641","0.0-429.0","xsroldsy","","","null","","Agent B","scrambled","FOR_REV_BLOBBY_STIM/1159515.bmp_pp84_L3_V1.0_veridical_freeview_isoFalse_fps144_reversed_REAL.mp4",""
"","","","call-function","430","886642","0.0-430.0","xsroldsy","","","","","","","",""
"2434.804999999935","{""judgement"":0}","[0]","survey-likert","431","889078","0.0-431.0","xsroldsy","","","","","","","","0"
"1509.359999999986","{""confidence"":2}","[0]","survey-likert","432","890589","0.0-432.0","xsroldsy","","","","","","","",""
"","","","call-function","433","890589","0.0-433.0","xsroldsy","","","","","","","",""
"null","","","html-keyboard-response","434","892095","0.0-434.0","xsroldsy","","<span style=""color:Black; font-size:50px;"">Agent A","null","","","","",""
"null","","","video-keyboard-response","435","894961","0.0-435.0","xsroldsy","","","null","","Agent A","scrambled","FOR_REV_BLOBBY_STIM/713017.bmp_pp152_L2_V1.0_veridical_freeview_isoFalse_fps144_reversed_REAL.mp4",""
"null","","","html-keyboard-response","436","896469","0.0-436.0","xsroldsy","","<span style=""color:Black; font-size:50px;"">Agent B","null","","","","",""
"null","","","video-keyboard-response","437","899330","0.0-437.0","xsroldsy","","","null","","Agent B","veridical","FOR_REV_BLOBBY_STIM/713017.bmp_pp152_L2_V1.0_veridical_freeview_isoFalse_fps144.mp4",""
"","","","call-function","438","899330","0.0-438.0","xsroldsy","","","","","","","",""
"1832.3549999999814","{""judgement"":1}","[0]","survey-likert","439","901163","0.0-439.0","xsroldsy","","","","","","","","1"
"1094.9799999999814","{""confidence"":2}","[0]","survey-likert","440","902259","0.0-440.0","xsroldsy","","","","","","","",""
"","","","call-function","441","902260","0.0-441.0","xsroldsy","","","","","","","",""
"null","","","html-keyboard-response","442","903764","0.0-442.0","xsroldsy","","<span style=""color:Black; font-size:50px;"">Agent A","null","","","","",""
"null","","","video-keyboard-response","443","906418","0.0-443.0","xsroldsy","","","null","","Agent A","scrambled","FOR_REV_BLOBBY_STIM/498149.bmp_pp99_L2_V1.0_veridical_freeview_isoFalse_fps144_reversed_REAL.mp4",""
"null","","","html-keyboard-response","444","907920","0.0-444.0","xsroldsy","","<span style=""color:Black; font-size:50px;"">Agent B","null","","","","",""
"null","","","video-keyboard-response","445","910586","0.0-445.0","xsroldsy","","","null","","Agent B","veridical","FOR_REV_BLOBBY_STIM/498149.bmp_pp99_L2_V1.0_veridical_freeview_isoFalse_fps144.mp4",""
"","","","call-function","446","910587","0.0-446.0","xsroldsy","","","","","","","",""
"1591.030000000028","{""judgement"":1}","[0]","survey-likert","447","912179","0.0-447.0","xsroldsy","","","","","","","","1"
"1003.4699999999721","{""confidence"":2}","[0]","survey-likert","448","913183","0.0-448.0","xsroldsy","","","","","","","",""
"","","","call-function","449","913184","0.0-449.0","xsroldsy","","","","","","","",""
"null","","","html-keyboard-response","450","914691","0.0-450.0","xsroldsy","","<span style=""color:Black; font-size:50px;"">Agent A","null","","","","",""
"null","","","video-keyboard-response","451","917572","0.0-451.0","xsroldsy","","","null","","Agent A","scrambled","FOR_REV_BLOBBY_STIM/713089.bmp_pp60_L3_V1.0_veridical_freeview_isoFalse_fps144_reversed_REAL.mp4",""
"null","","","html-keyboard-response","452","919076","0.0-452.0","xsroldsy","","<span style=""color:Black; font-size:50px;"">Agent B","null","","","","",""
"null","","","video-keyboard-response","453","921957","0.0-453.0","xsroldsy","","","null","","Agent B","veridical","FOR_REV_BLOBBY_STIM/713089.bmp_pp60_L3_V1.0_veridical_freeview_isoFalse_fps144.mp4",""
"","","","call-function","454","921958","0.0-454.0","xsroldsy","","","","","","","",""
"1566.7550000000047","{""judgement"":0}","[0]","survey-likert","455","923526","0.0-455.0","xsroldsy","","","","","","","","1"
"1942.3000000000466","{""confidence"":2}","[0]","survey-likert","456","925469","0.0-456.0","xsroldsy","","","","","","","",""
"","","","call-function","457","925470","0.0-457.0","xsroldsy","","","","","","","",""
"null","","","html-keyboard-response","458","926975","0.0-458.0","xsroldsy","","<span style=""color:Black; font-size:50px;"">Agent A","null","","","","",""
"null","","","video-keyboard-response","459","929670","0.0-459.0","xsroldsy","","","null","","Agent A","veridical","FOR_REV_BLOBBY_STIM/1592133.bmp_pp75_L1_V1.0_veridical_freeview_isoFalse_fps144.mp4",""
"null","","","html-keyboard-response","460","931176","0.0-460.0","xsroldsy","","<span style=""color:Black; font-size:50px;"">Agent B","null","","","","",""
"null","","","video-keyboard-response","461","933840","0.0-461.0","xsroldsy","","","null","","Agent B","scrambled","FOR_REV_BLOBBY_STIM/1592133.bmp_pp75_L1_V1.0_veridical_freeview_isoFalse_fps144_reversed_REAL.mp4",""
"","","","call-function","462","933841","0.0-462.0","xsroldsy","","","","","","","",""
"2635.7750000000233","{""judgement"":0}","[0]","survey-likert","463","936477","0.0-463.0","xsroldsy","","","","","","","","0"
"924.6500000000233","{""confidence"":1}","[0]","survey-likert","464","937403","0.0-464.0","xsroldsy","","","","","","","",""
"","","","call-function","465","937404","0.0-465.0","xsroldsy","","","","","","","",""
"null","","","html-keyboard-response","466","938910","0.0-466.0","xsroldsy","","<span style=""color:Black; font-size:50px;"">Agent A","null","","","","",""
"null","","","video-keyboard-response","467","941622","0.0-467.0","xsroldsy","","","null","","Agent A","veridical","FOR_REV_BLOBBY_STIM/1592372.bmp_pp76_L1_V1.0_veridical_freeview_isoFalse_fps144.mp4",""
"null","","","html-keyboard-response","468","943127","0.0-468.0","xsroldsy","","<span style=""color:Black; font-size:50px;"">Agent B","null","","","","",""
"null","","","video-keyboard-response","469","945823","0.0-469.0","xsroldsy","","","null","","Agent B","scrambled","FOR_REV_BLOBBY_STIM/1592372.bmp_pp76_L1_V1.0_veridical_freeview_isoFalse_fps144_reversed_REAL.mp4",""
"","","","call-function","470","945824","0.0-470.0","xsroldsy","","","","","","","",""
"5241.430000000051","{""judgement"":0}","[0]","survey-likert","471","951066","0.0-471.0","xsroldsy","","","","","","","","0"
"1532.6650000000373","{""confidence"":2}","[0]","survey-likert","472","952600","0.0-472.0","xsroldsy","","","","","","","",""
"","","","call-function","473","952601","0.0-473.0","xsroldsy","","","","","","","",""
"null","","","html-keyboard-response","474","954102","0.0-474.0","xsroldsy","","<span style=""color:Black; font-size:50px;"">Agent A","null","","","","",""
"null","","","video-keyboard-response","475","956863","0.0-475.0","xsroldsy","","","null","","Agent A","veridical","FOR_REV_BLOBBY_STIM/1592499.bmp_pp96_L2_V1.0_veridical_freeview_isoFalse_fps144.mp4",""
"null","","","html-keyboard-response","476","958369","0.0-476.0","xsroldsy","","<span style=""color:Black; font-size:50px;"">Agent B","null","","","","",""
"null","","","video-keyboard-response","477","961160","0.0-477.0","xsroldsy","","","null","","Agent B","scrambled","FOR_REV_BLOBBY_STIM/1592499.bmp_pp96_L2_V1.0_veridical_freeview_isoFalse_fps144_reversed_REAL.mp4",""
"","","","call-function","478","961161","0.0-478.0","xsroldsy","","","","","","","",""
"7247.385000000009","{""judgement"":0}","[0]","survey-likert","479","968409","0.0-479.0","xsroldsy","","","","","","","","0"
"1649.7299999999814","{""confidence"":0}","[0]","survey-likert","480","970060","0.0-480.0","xsroldsy","","","","","","","",""
"","","","call-function","481","970061","0.0-481.0","xsroldsy","","","","","","","",""
"null","","","html-keyboard-response","482","971563","0.0-482.0","xsroldsy","","<span style=""color:Black; font-size:50px;"">Agent A","null","","","","",""
"null","","","video-keyboard-response","483","974305","0.0-483.0","xsroldsy","","","null","","Agent A","scrambled","FOR_REV_BLOBBY_STIM/1159446.bmp_pp60_L3_V1.0_veridical_freeview_isoFalse_fps144_reversed_REAL.mp4",""
"null","","","html-keyboard-response","484","975810","0.0-484.0","xsroldsy","","<span style=""color:Black; font-size:50px;"">Agent B","null","","","","",""
"null","","","video-keyboard-response","485","978548","0.0-485.0","xsroldsy","","","null","","Agent B","veridical","FOR_REV_BLOBBY_STIM/1159446.bmp_pp60_L3_V1.0_veridical_freeview_isoFalse_fps144.mp4",""
"","","","call-function","486","978549","0.0-486.0","xsroldsy","","","","","","","",""
"1631.6650000000373","{""judgement"":1}","[0]","survey-likert","487","980181","0.0-487.0","xsroldsy","","","","","","","","1"
"1803.7099999999627","{""confidence"":3}","[0]","survey-likert","488","981986","0.0-488.0","xsroldsy","","","","","","","",""
"","","","call-function","489","981987","0.0-489.0","xsroldsy","","","","","","","",""
"null","","","html-keyboard-response","490","983491","0.0-490.0","xsroldsy","","<span style=""color:Black; font-size:50px;"">Agent A","null","","","","",""
"null","","","video-keyboard-response","491","986375","0.0-491.0","xsroldsy","","","null","","Agent A","veridical","FOR_REV_BLOBBY_STIM/1159447.bmp_pp70_L2_V1.0_veridical_freeview_isoFalse_fps144.mp4",""
"null","","","html-keyboard-response","492","987881","0.0-492.0","xsroldsy","","<span style=""color:Black; font-size:50px;"">Agent B","null","","","","",""
"null","","","video-keyboard-response","493","990736","0.0-493.0","xsroldsy","","","null","","Agent B","scrambled","FOR_REV_BLOBBY_STIM/1159447.bmp_pp70_L2_V1.0_veridical_freeview_isoFalse_fps144_reversed_REAL.mp4",""
"","","","call-function","494","990737","0.0-494.0","xsroldsy","","","","","","","",""
"1401.7600000000093","{""judgement"":0}","[0]","survey-likert","495","992140","0.0-495.0","xsroldsy","","","","","","","","0"
"1280.7149999999674","{""confidence"":3}","[0]","survey-likert","496","993422","0.0-496.0","xsroldsy","","","","","","","",""
"1657.7150000000838","","","instructions","497","995081","0.0-497.0","xsroldsy","[{""page_index"":0,""viewing_time"":983.7200000000885},{""page_index"":1,""viewing_time"":380.71999999997206},{""page_index"":2,""viewing_time"":293.125}]","","","","","","",""
"2260.585000000079","","","instructions","498","997342","0.0-498.0","xsroldsy","[{""page_index"":0,""viewing_time"":471.74499999999534},{""page_index"":1,""viewing_time"":1205.6450000000186},{""page_index"":2,""viewing_time"":583.0900000000838}]","","","","","","",""
"","","","call-function","499","997343","0.0-499.0","xsroldsy","","","","","","","",""
"null","","","html-keyboard-response","500","998845","0.0-500.0","xsroldsy","","<span style=""color:Black; font-size:50px;"">Agent A","null","","","","",""
"null","","","video-keyboard-response","501","1001545","0.0-501.0","xsroldsy","","","null","","Agent A","scrambled","FOR_REV_BLOBBY_STIM/1592817.bmp_pp55_L3_V1.0_veridical_freeview_isoFalse_fps144_reversed_REAL.mp4",""
"null","","","html-keyboard-response","502","1003047","0.0-502.0","xsroldsy","","<span style=""color:Black; font-size:50px;"">Agent B","null","","","","",""
"null","","","video-keyboard-response","503","1005748","0.0-503.0","xsroldsy","","","null","","Agent B","veridical","FOR_REV_BLOBBY_STIM/1592817.bmp_pp55_L3_V1.0_veridical_freeview_isoFalse_fps144.mp4",""
"","","","call-function","504","1005749","0.0-504.0","xsroldsy","","","","","","","",""
"2444.5449999999255","{""judgement"":1}","[0]","survey-likert","505","1008194","0.0-505.0","xsroldsy","","","","","","","","1"
"1130.2200000000885","{""confidence"":2}","[0]","survey-likert","506","1009326","0.0-506.0","xsroldsy","","","","","","","",""
"","","","call-function","507","1009326","0.0-507.0","xsroldsy","","","","","","","",""
"null","","","html-keyboard-response","508","1010830","0.0-508.0","xsroldsy","","<span style=""color:Black; font-size:50px;"">Agent A","null","","","","",""
"null","","","video-keyboard-response","509","1013532","0.0-509.0","xsroldsy","","","null","","Agent A","veridical","FOR_REV_BLOBBY_STIM/1592727.bmp_pp59_L3_V1.0_veridical_freeview_isoFalse_fps144.mp4",""
"null","","","html-keyboard-response","510","1015039","0.0-510.0","xsroldsy","","<span style=""color:Black; font-size:50px;"">Agent B","null","","","","",""
"null","","","video-keyboard-response","511","1017739","0.0-511.0","xsroldsy","","","null","","Agent B","scrambled","FOR_REV_BLOBBY_STIM/1592727.bmp_pp59_L3_V1.0_veridical_freeview_isoFalse_fps144_reversed_REAL.mp4",""
"","","","call-function","512","1017739","0.0-512.0","xsroldsy","","","","","","","",""
"1834.4100000000326","{""judgement"":0}","[0]","survey-likert","513","1019575","0.0-513.0","xsroldsy","","","","","","","","0"
"1554.5250000000233","{""confidence"":2}","[0]","survey-likert","514","1021130","0.0-514.0","xsroldsy","","","","","","","",""
"","","","call-function","515","1021131","0.0-515.0","xsroldsy","","","","","","","",""
"null","","","html-keyboard-response","516","1022633","0.0-516.0","xsroldsy","","<span style=""color:Black; font-size:50px;"">Agent A","null","","","","",""
"null","","","video-keyboard-response","517","1025438","0.0-517.0","xsroldsy","","","null","","Agent A","veridical","FOR_REV_BLOBBY_STIM/713135.bmp_pp54_L2_V1.0_veridical_freeview_isoFalse_fps144.mp4",""
"null","","","html-keyboard-response","518","1026940","0.0-518.0","xsroldsy","","<span style=""color:Black; font-size:50px;"">Agent B","null","","","","",""
"null","","","video-keyboard-response","519","1029747","0.0-519.0","xsroldsy","","","null","","Agent B","scrambled","FOR_REV_BLOBBY_STIM/713135.bmp_pp54_L2_V1.0_veridical_freeview_isoFalse_fps144_reversed_REAL.mp4",""
"","","","call-function","520","1029748","0.0-520.0","xsroldsy","","","","","","","",""
"2159.0299999999115","{""judgement"":0}","[0]","survey-likert","521","1031908","0.0-521.0","xsroldsy","","","","","","","","0"
"901.8800000000047","{""confidence"":2}","[0]","survey-likert","522","1032810","0.0-522.0","xsroldsy","","","","","","","",""
"","","","call-function","523","1032811","0.0-523.0","xsroldsy","","","","","","","",""
"null","","","html-keyboard-response","524","1034315","0.0-524.0","xsroldsy","","<span style=""color:Black; font-size:50px;"">Agent A","null","","","","",""
"null","","","video-keyboard-response","525","1037067","0.0-525.0","xsroldsy","","","null","","Agent A","scrambled","FOR_REV_BLOBBY_STIM/498111.bmp_pp88_L2_V1.0_veridical_freeview_isoFalse_fps144_reversed_REAL.mp4",""
"null","","","html-keyboard-response","526","1038571","0.0-526.0","xsroldsy","","<span style=""color:Black; font-size:50px;"">Agent B","null","","","","",""
"null","","","video-keyboard-response","527","1041336","0.0-527.0","xsroldsy","","","null","","Agent B","veridical","FOR_REV_BLOBBY_STIM/498111.bmp_pp88_L2_V1.0_veridical_freeview_isoFalse_fps144.mp4",""
"","","","call-function","528","1041337","0.0-528.0","xsroldsy","","","","","","","",""
"7521.29999999993","{""judgement"":0}","[0]","survey-likert","529","1048859","0.0-529.0","xsroldsy","","","","","","","","1"
"1161.3400000000838","{""confidence"":1}","[0]","survey-likert","530","1050022","0.0-530.0","xsroldsy","","","","","","","",""
"","","","call-function","531","1050023","0.0-531.0","xsroldsy","","","","","","","",""
"null","","","html-keyboard-response","532","1051530","0.0-532.0","xsroldsy","","<span style=""color:Black; font-size:50px;"">Agent A","null","","","","",""
"null","","","video-keyboard-response","533","1054301","0.0-533.0","xsroldsy","","","null","","Agent A","scrambled","FOR_REV_BLOBBY_STIM/1159855.bmp_pp99_L2_V1.0_veridical_freeview_isoFalse_fps144_reversed_REAL.mp4",""
"null","","","html-keyboard-response","534","1055805","0.0-534.0","xsroldsy","","<span style=""color:Black; font-size:50px;"">Agent B","null","","","","",""
"null","","","video-keyboard-response","535","1058601","0.0-535.0","xsroldsy","","","null","","Agent B","veridical","FOR_REV_BLOBBY_STIM/1159855.bmp_pp99_L2_V1.0_veridical_freeview_isoFalse_fps144.mp4",""
"","","","call-function","536","1058602","0.0-536.0","xsroldsy","","","","","","","",""
"4297.905000000028","{""judgement"":1}","[0]","survey-likert","537","1062900","0.0-537.0","xsroldsy","","","","","","","","1"
"1257.8999999999069","{""confidence"":2}","[0]","survey-likert","538","1064160","0.0-538.0","xsroldsy","","","","","","","",""
"","","","call-function","539","1064160","0.0-539.0","xsroldsy","","","","","","","",""
"null","","","html-keyboard-response","540","1065661","0.0-540.0","xsroldsy","","<span style=""color:Black; font-size:50px;"">Agent A","null","","","","",""
"null","","","video-keyboard-response","541","1068245","0.0-541.0","xsroldsy","","","null","","Agent A","scrambled","FOR_REV_BLOBBY_STIM/1593146.bmp_pp93_L1_V1.0_veridical_freeview_isoFalse_fps144_reversed_REAL.mp4",""
"null","","","html-keyboard-response","542","1069751","0.0-542.0","xsroldsy","","<span style=""color:Black; font-size:50px;"">Agent B","null","","","","",""
"null","","","video-keyboard-response","543","1072335","0.0-543.0","xsroldsy","","","null","","Agent B","veridical","FOR_REV_BLOBBY_STIM/1593146.bmp_pp93_L1_V1.0_veridical_freeview_isoFalse_fps144.mp4",""
"","","","call-function","544","1072336","0.0-544.0","xsroldsy","","","","","","","",""
"1911.1999999999534","{""judgement"":1}","[0]","survey-likert","545","1074248","0.0-545.0","xsroldsy","","","","","","","","1"
"1147.3299999998417","{""confidence"":2}","[0]","survey-likert","546","1075396","0.0-546.0","xsroldsy","","","","","","","",""
"","","","call-function","547","1075397","0.0-547.0","xsroldsy","","","","","","","",""
"null","","","html-keyboard-response","548","1076898","0.0-548.0","xsroldsy","","<span style=""color:Black; font-size:50px;"">Agent A","null","","","","",""
"null","","","video-keyboard-response","549","1079681","0.0-549.0","xsroldsy","","","null","","Agent A","veridical","FOR_REV_BLOBBY_STIM/713681.bmp_pp86_L2_V1.0_veridical_freeview_isoFalse_fps144.mp4",""
"null","","","html-keyboard-response","550","1081183","0.0-550.0","xsroldsy","","<span style=""color:Black; font-size:50px;"">Agent B","null","","","","",""
"null","","","video-keyboard-response","551","1083995","0.0-551.0","xsroldsy","","","null","","Agent B","scrambled","FOR_REV_BLOBBY_STIM/713681.bmp_pp86_L2_V1.0_veridical_freeview_isoFalse_fps144_reversed_REAL.mp4",""
"","","","call-function","552","1083996","0.0-552.0","xsroldsy","","","","","","","",""
"1603.2299999999814","{""judgement"":0}","[0]","survey-likert","553","1085601","0.0-553.0","xsroldsy","","","","","","","","0"
"2289.3649999999907","{""confidence"":3}","[0]","survey-likert","554","1087891","0.0-554.0","xsroldsy","","","","","","","",""
"","","","call-function","555","1087892","0.0-555.0","xsroldsy","","","","","","","",""
"null","","","html-keyboard-response","556","1089394","0.0-556.0","xsroldsy","","<span style=""color:Black; font-size:50px;"">Agent A","null","","","","",""
"null","","","video-keyboard-response","557","1092272","0.0-557.0","xsroldsy","","","null","","Agent A","scrambled","FOR_REV_BLOBBY_STIM/1159572.bmp_pp71_L1_V1.0_veridical_freeview_isoFalse_fps144_reversed_REAL.mp4",""
"null","","","html-keyboard-response","558","1093778","0.0-558.0","xsroldsy","","<span style=""color:Black; font-size:50px;"">Agent B","null","","","","",""
"null","","","video-keyboard-response","559","1096652","0.0-559.0","xsroldsy","","","null","","Agent B","veridical","FOR_REV_BLOBBY_STIM/1159572.bmp_pp71_L1_V1.0_veridical_freeview_isoFalse_fps144.mp4",""
"","","","call-function","560","1096652","0.0-560.0","xsroldsy","","","","","","","",""
"1677.9250000000466","{""judgement"":1}","[0]","survey-likert","561","1098331","0.0-561.0","xsroldsy","","","","","","","","1"
"1170.8000000000466","{""confidence"":2}","[0]","survey-likert","562","1099503","0.0-562.0","xsroldsy","","","","","","","",""
"","","","call-function","563","1099504","0.0-563.0","xsroldsy","","","","","","","",""
"null","","","html-keyboard-response","564","1101010","0.0-564.0","xsroldsy","","<span style=""color:Black; font-size:50px;"">Agent A","null","","","","",""
"null","","","video-keyboard-response","565","1103826","0.0-565.0","xsroldsy","","","null","","Agent A","scrambled","FOR_REV_BLOBBY_STIM/1159777.bmp_pp77_L3_V1.0_veridical_freeview_isoFalse_fps144_reversed_REAL.mp4",""
"null","","","html-keyboard-response","566","1105330","0.0-566.0","xsroldsy","","<span style=""color:Black; font-size:50px;"">Agent B","null","","","","",""
"null","","","video-keyboard-response","567","1108144","0.0-567.0","xsroldsy","","","null","","Agent B","veridical","FOR_REV_BLOBBY_STIM/1159777.bmp_pp77_L3_V1.0_veridical_freeview_isoFalse_fps144.mp4",""
"","","","call-function","568","1108145","0.0-568.0","xsroldsy","","","","","","","",""
"1335.1050000002142","{""judgement"":1}","[0]","survey-likert","569","1109481","0.0-569.0","xsroldsy","","","","","","","","1"
"1215.410000000149","{""confidence"":3}","[0]","survey-likert","570","1110697","0.0-570.0","xsroldsy","","","","","","","",""
"","","","call-function","571","1110698","0.0-571.0","xsroldsy","","","","","","","",""
"null","","","html-keyboard-response","572","1112200","0.0-572.0","xsroldsy","","<span style=""color:Black; font-size:50px;"">Agent A","null","","","","",""
"null","","","video-keyboard-response","573","1115040","0.0-573.0","xsroldsy","","","null","","Agent A","veridical","FOR_REV_BLOBBY_STIM/713403.bmp_pp80_L3_V1.0_veridical_freeview_isoFalse_fps144.mp4",""
"null","","","html-keyboard-response","574","1116542","0.0-574.0","xsroldsy","","<span style=""color:Black; font-size:50px;"">Agent B","null","","","","",""
"null","","","video-keyboard-response","575","1119359","0.0-575.0","xsroldsy","","","null","","Agent B","scrambled","FOR_REV_BLOBBY_STIM/713403.bmp_pp80_L3_V1.0_veridical_freeview_isoFalse_fps144_reversed_REAL.mp4",""
"","","","call-function","576","1119360","0.0-576.0","xsroldsy","","","","","","","",""
"1529.464999999851","{""judgement"":0}","[0]","survey-likert","577","1120891","0.0-577.0","xsroldsy","","","","","","","","0"
"2091.8850000000093","{""confidence"":2}","[0]","survey-likert","578","1122984","0.0-578.0","xsroldsy","","","","","","","",""
"1460.7399999999907","","","instructions","579","1124445","0.0-579.0","xsroldsy","[{""page_index"":0,""viewing_time"":1460.6299999998882}]","","","","","","",""
"1392.6650000000373","","","instructions","580","1125838","0.0-580.0","xsroldsy","[{""page_index"":0,""viewing_time"":1392.5649999999441}]","","","","","","",""
"5436.25","{""post-1"":2}","[0]","survey-likert","581","1131276","0.0-581.0","xsroldsy","","","","","","","",""
"2602.6749999998137","{""post-1"":0}","[0]","survey-likert","582","1133881","0.0-582.0","xsroldsy","","","","","","","",""
"5096.965000000084","{""post-2"":2}","[0]","survey-likert","583","1138980","0.0-583.0","xsroldsy","","","","","","","",""
"3935.970000000205","{""post-2"":0}","[0]","survey-likert","584","1142918","0.0-584.0","xsroldsy","","","","","","","",""
"3191.344999999972","{""post-3"":3}","[0]","survey-likert","585","1146111","0.0-585.0","xsroldsy","","","","","","","",""
"4535.545000000158","{""post-3"":1}","[0]","survey-likert","586","1150648","0.0-586.0","xsroldsy","","","","","","","",""
"6035.010000000009","{""post-4"":2}","[0]","survey-likert","587","1156685","0.0-587.0","xsroldsy","","","","","","","",""
"1554.4550000000745","{""post-4"":0}","[0]","survey-likert","588","1158240","0.0-588.0","xsroldsy","","","","","","","",""
"3991.5449999999255","{""post-5"":0}","[0]","survey-likert","589","1162233","0.0-589.0","xsroldsy","","","","","","","",""
"1574.6149999999907","{""post-5"":1}","[0]","survey-likert","590","1163809","0.0-590.0","xsroldsy","","","","","","","",""
"72585.82000000007","{""Q0"":""This seemed much easier than the last one. I felt at times, though, that my attention was being guided by the hotspots, which made it a bit harder to determine what I would have paid attention to and in what order.""}","","survey-text","591","1236401","0.0-591.0","xsroldsy","","","","","","","",""
"135202.6100000001","{""Q0"":""I found this experiment a lot easier than the last one because I actually knew what was being looked at. The strategies I used were to think about what elements of the photo were most interesting (including faces), because those are the ones I would pay attention to first. I would usually not pay too much attention to elements that just appear to be \""background,\"" so whenever a hotspot hovered on a bland part of the image I tended to associate it with an automated response.""}","","survey-text","592","1371608","0.0-592.0","xsroldsy","","","","","","","",""
"85617.3500000001","{""Q0"":""I found it difficult to determine what I would have paid attention to the most because of the hotspots. I also found it pretty hard to determine where a human would pay attention in some of the photos that just included electronics, or were generally pretty symmetrical (as well as in those that had a well-lit part that was not interesting and poorly-lit part that was).""}","","survey-text","593","1457229","0.0-593.0","xsroldsy","","","","","","","",""
"21712.360000000102","","","instructions","594","1478943","0.0-594.0","xsroldsy","[{""page_index"":0,""viewing_time"":21712.225000000093}]","","","","","","",""
"77934.31000000006","{""Experimenter_end"":[""Printed ID# xsroldsy on consent form"",""Given subject SONA credit or payment"",""Given the subject debrief form""]}","[0]","survey-multi-select","595","1556881","0.0-595.0","xsroldsy","","","","","","","",""
