"rt","responses","question_order","trial_type","trial_index","time_elapsed","internal_node_id","ID","view_history","stimulus","key_press","value","agent","condition","image","correct_answer"
"63506.3","{""Experimenter"":[""Confirmed subject's identity (ID card)"",""Confirmed normal or corrected-to-normal vision"",""Obtained consent (signature and date)"",""Checked the test room lighting"",""Checked computer screen lighting"",""Checked distance from screen to chin rest (50cm)"",""Cleaned and adjusted chin rest"",""Counterbalanced the order of the tasks"",""Opened the experiment in Firefox"",""Made the experiment full screen"",""Encouraged subject to silence phone, put away distractors, etc.""]}","[0]","survey-multi-select","0","63515","0.0-0.0","xvd3jtq6","","","","","","","",""
"41133.31","","","instructions","1","104651","0.0-1.0","xvd3jtq6","[{""page_index"":0,""viewing_time"":41133.15000000001}]","","","","","","",""
"14845.570000000007","","","instructions","2","119497","0.0-2.0","xvd3jtq6","[{""page_index"":0,""viewing_time"":987.0099999999948},{""page_index"":1,""viewing_time"":5257.090000000011},{""page_index"":2,""viewing_time"":8601.315000000002}]","","","","","","",""
"4671.360000000001","","","instructions","3","124170","0.0-3.0","xvd3jtq6","[{""page_index"":0,""viewing_time"":4671.25499999999}]","","","","","","",""
"null","","","video-keyboard-response","4","127244","0.0-4.0","xvd3jtq6","","","null","","","","",""
"13959.589999999997","","","instructions","5","141205","0.0-5.0","xvd3jtq6","[{""page_index"":0,""viewing_time"":2325.62999999999},{""page_index"":1,""viewing_time"":2374.1399999999994},{""page_index"":2,""viewing_time"":947.9100000000035},{""page_index"":3,""viewing_time"":4012.9550000000163},{""page_index"":4,""viewing_time"":4298.8249999999825}]","","","","","","",""
"3196.5200000000186","","","instructions","6","144402","0.0-6.0","xvd3jtq6","[{""page_index"":0,""viewing_time"":3196.2700000000186}]","","","","","","",""
"","","","call-function","7","144403","0.0-7.0","xvd3jtq6","","","","","","","",""
"null","","","html-keyboard-response","8","145905","0.0-8.0","xvd3jtq6","","<span style=""color:Black; font-size:50px;"">Agent A","null","","","","",""
"null","","","video-keyboard-response","9","148973","0.0-9.0","xvd3jtq6","","","null","","Agent A","veridical","STIM_SET_1_REAL/713796.bmp_pp84_L3_V1.0_veridical_freeview_isoFalse_fps144.mp4",""
"null","","","html-keyboard-response","10","150477","0.0-10.0","xvd3jtq6","","<span style=""color:Black; font-size:50px;"">Agent B","null","","","","",""
"null","","","video-keyboard-response","11","153555","0.0-11.0","xvd3jtq6","","","null","","Agent B","scrambled","STIM_SET_3/713633.bmp_pp58_L1_V2_veridical_freeview_isoFalsemismatch_713796.bmp_L3_fps90.mp4",""
"","","","call-function","12","153556","0.0-12.0","xvd3jtq6","","","","","","","",""
"5201.755000000005","{""judgement"":1}","[0]","survey-likert","13","158759","0.0-13.0","xvd3jtq6","","","","","","","","0"
"3509.1449999999895","{""confidence"":0}","[0]","survey-likert","14","162270","0.0-14.0","xvd3jtq6","","","","","","","",""
"","","","call-function","15","162270","0.0-15.0","xvd3jtq6","","","","","","","",""
"null","","","html-keyboard-response","16","163771","0.0-16.0","xvd3jtq6","","<span style=""color:Black; font-size:50px;"">Agent A","null","","","","",""
"null","","","video-keyboard-response","17","166847","0.0-17.0","xvd3jtq6","","","null","","Agent A","veridical","STIM_SET_1_REAL/713620.bmp_pp65_L3_V1.0_veridical_freeview_isoFalse_fps144.mp4",""
"null","","","html-keyboard-response","18","168354","0.0-18.0","xvd3jtq6","","<span style=""color:Black; font-size:50px;"">Agent B","null","","","","",""
"null","","","video-keyboard-response","19","171444","0.0-19.0","xvd3jtq6","","","null","","Agent B","scrambled","STIM_SET_3/498398.bmp_pp81_L1_V2_veridical_freeview_isoFalsemismatch_713620.bmp_L3_fps90.mp4",""
"","","","call-function","20","171445","0.0-20.0","xvd3jtq6","","","","","","","",""
"8308.540000000008","{""judgement"":0}","[0]","survey-likert","21","179755","0.0-21.0","xvd3jtq6","","","","","","","","0"
"1451.5","{""confidence"":0}","[0]","survey-likert","22","181208","0.0-22.0","xvd3jtq6","","","","","","","",""
"","","","call-function","23","181209","0.0-23.0","xvd3jtq6","","","","","","","",""
"null","","","html-keyboard-response","24","182710","0.0-24.0","xvd3jtq6","","<span style=""color:Black; font-size:50px;"">Agent A","null","","","","",""
"null","","","video-keyboard-response","25","185808","0.0-25.0","xvd3jtq6","","","null","","Agent A","scrambled","STIM_SET_3/150277.bmp_pp65_L3_V2_veridical_freeview_isoFalsemismatch_1592362.bmp_L2_fps90.mp4",""
"null","","","html-keyboard-response","26","187316","0.0-26.0","xvd3jtq6","","<span style=""color:Black; font-size:50px;"">Agent B","null","","","","",""
"null","","","video-keyboard-response","27","190390","0.0-27.0","xvd3jtq6","","","null","","Agent B","veridical","STIM_SET_1_REAL/1592362.bmp_pp95_L2_V1.0_veridical_freeview_isoFalse_fps144.mp4",""
"","","","call-function","28","190391","0.0-28.0","xvd3jtq6","","","","","","","",""
"2158.8250000000116","{""judgement"":1}","[0]","survey-likert","29","192551","0.0-29.0","xvd3jtq6","","","","","","","","1"
"3314.4100000000035","{""confidence"":2}","[0]","survey-likert","30","195867","0.0-30.0","xvd3jtq6","","","","","","","",""
"","","","call-function","31","195869","0.0-31.0","xvd3jtq6","","","","","","","",""
"null","","","html-keyboard-response","32","197373","0.0-32.0","xvd3jtq6","","<span style=""color:Black; font-size:50px;"">Agent A","null","","","","",""
"null","","","video-keyboard-response","33","200450","0.0-33.0","xvd3jtq6","","","null","","Agent A","veridical","STIM_SET_1_REAL/498155.bmp_pp61_L2_V1.0_veridical_freeview_isoFalse_fps144.mp4",""
"null","","","html-keyboard-response","34","201953","0.0-34.0","xvd3jtq6","","<span style=""color:Black; font-size:50px;"">Agent B","null","","","","",""
"null","","","video-keyboard-response","35","205021","0.0-35.0","xvd3jtq6","","","null","","Agent B","scrambled","STIM_SET_3/498258.bmp_pp51_L1_V2_veridical_freeview_isoFalsemismatch_498155.bmp_L2_fps90.mp4",""
"","","","call-function","36","205022","0.0-36.0","xvd3jtq6","","","","","","","",""
"2366.445000000007","{""judgement"":0}","[0]","survey-likert","37","207391","0.0-37.0","xvd3jtq6","","","","","","","","0"
"2123.6300000000047","{""confidence"":2}","[0]","survey-likert","38","209516","0.0-38.0","xvd3jtq6","","","","","","","",""
"","","","call-function","39","209517","0.0-39.0","xvd3jtq6","","","","","","","",""
"null","","","html-keyboard-response","40","211018","0.0-40.0","xvd3jtq6","","<span style=""color:Black; font-size:50px;"">Agent A","null","","","","",""
"null","","","video-keyboard-response","41","214088","0.0-41.0","xvd3jtq6","","","null","","Agent A","veridical","STIM_SET_1_REAL/1592286.bmp_pp52_L1_V1.0_veridical_freeview_isoFalse_fps144.mp4",""
"null","","","html-keyboard-response","42","215594","0.0-42.0","xvd3jtq6","","<span style=""color:Black; font-size:50px;"">Agent B","null","","","","",""
"null","","","video-keyboard-response","43","218657","0.0-43.0","xvd3jtq6","","","null","","Agent B","scrambled","STIM_SET_3/498326.bmp_pp57_L1_V2_veridical_freeview_isoFalsemismatch_1592286.bmp_L1_fps90.mp4",""
"","","","call-function","44","218657","0.0-44.0","xvd3jtq6","","","","","","","",""
"2848.9400000000023","{""judgement"":1}","[0]","survey-likert","45","221507","0.0-45.0","xvd3jtq6","","","","","","","","0"
"1983.6449999999895","{""confidence"":1}","[0]","survey-likert","46","223492","0.0-46.0","xvd3jtq6","","","","","","","",""
"","","","call-function","47","223493","0.0-47.0","xvd3jtq6","","","","","","","",""
"null","","","html-keyboard-response","48","224996","0.0-48.0","xvd3jtq6","","<span style=""color:Black; font-size:50px;"">Agent A","null","","","","",""
"null","","","video-keyboard-response","49","228087","0.0-49.0","xvd3jtq6","","","null","","Agent A","scrambled","STIM_SET_3/713652.bmp_pp89_L1_V2_veridical_freeview_isoFalsemismatch_1592807.bmp_L1_fps90.mp4",""
"null","","","html-keyboard-response","50","229593","0.0-50.0","xvd3jtq6","","<span style=""color:Black; font-size:50px;"">Agent B","null","","","","",""
"null","","","video-keyboard-response","51","232697","0.0-51.0","xvd3jtq6","","","null","","Agent B","veridical","STIM_SET_1_REAL/1592807.bmp_pp68_L1_V1.0_veridical_freeview_isoFalse_fps144.mp4",""
"","","","call-function","52","232697","0.0-52.0","xvd3jtq6","","","","","","","",""
"2119.9949999999953","{""judgement"":1}","[0]","survey-likert","53","234819","0.0-53.0","xvd3jtq6","","","","","","","","1"
"1548.9249999999884","{""confidence"":2}","[0]","survey-likert","54","236369","0.0-54.0","xvd3jtq6","","","","","","","",""
"","","","call-function","55","236370","0.0-55.0","xvd3jtq6","","","","","","","",""
"null","","","html-keyboard-response","56","237871","0.0-56.0","xvd3jtq6","","<span style=""color:Black; font-size:50px;"">Agent A","null","","","","",""
"null","","","video-keyboard-response","57","240962","0.0-57.0","xvd3jtq6","","","null","","Agent A","veridical","STIM_SET_1_REAL/1159446.bmp_pp60_L3_V1.0_veridical_freeview_isoFalse_fps144.mp4",""
"null","","","html-keyboard-response","58","242469","0.0-58.0","xvd3jtq6","","<span style=""color:Black; font-size:50px;"">Agent B","null","","","","",""
"null","","","video-keyboard-response","59","245555","0.0-59.0","xvd3jtq6","","","null","","Agent B","scrambled","STIM_SET_3/1592044.bmp_pp94_L2_V2_veridical_freeview_isoFalsemismatch_1159446.bmp_L3_fps90.mp4",""
"","","","call-function","60","245556","0.0-60.0","xvd3jtq6","","","","","","","",""
"1577.1050000000105","{""judgement"":0}","[0]","survey-likert","61","247134","0.0-61.0","xvd3jtq6","","","","","","","","0"
"1467.390000000014","{""confidence"":1}","[0]","survey-likert","62","248603","0.0-62.0","xvd3jtq6","","","","","","","",""
"","","","call-function","63","248604","0.0-63.0","xvd3jtq6","","","","","","","",""
"null","","","html-keyboard-response","64","250107","0.0-64.0","xvd3jtq6","","<span style=""color:Black; font-size:50px;"">Agent A","null","","","","",""
"null","","","video-keyboard-response","65","253199","0.0-65.0","xvd3jtq6","","","null","","Agent A","veridical","STIM_SET_1_REAL/713779.bmp_pp152_L2_V1.0_veridical_freeview_isoFalse_fps144.mp4",""
"null","","","html-keyboard-response","66","254704","0.0-66.0","xvd3jtq6","","<span style=""color:Black; font-size:50px;"">Agent B","null","","","","",""
"null","","","video-keyboard-response","67","257825","0.0-67.0","xvd3jtq6","","","null","","Agent B","scrambled","STIM_SET_3/1592305.bmp_pp65_L3_V2_veridical_freeview_isoFalsemismatch_713779.bmp_L2_fps90.mp4",""
"","","","call-function","68","257826","0.0-68.0","xvd3jtq6","","","","","","","",""
"1802.554999999993","{""judgement"":0}","[0]","survey-likert","69","259629","0.0-69.0","xvd3jtq6","","","","","","","","0"
"1369.5950000000012","{""confidence"":0}","[0]","survey-likert","70","261000","0.0-70.0","xvd3jtq6","","","","","","","",""
"","","","call-function","71","261001","0.0-71.0","xvd3jtq6","","","","","","","",""
"null","","","html-keyboard-response","72","262503","0.0-72.0","xvd3jtq6","","<span style=""color:Black; font-size:50px;"">Agent A","null","","","","",""
"null","","","video-keyboard-response","73","265594","0.0-73.0","xvd3jtq6","","","null","","Agent A","scrambled","STIM_SET_3/285959.bmp_pp93_L1_V2_veridical_freeview_isoFalsemismatch_498253.bmp_L2_fps90.mp4",""
"null","","","html-keyboard-response","74","267099","0.0-74.0","xvd3jtq6","","<span style=""color:Black; font-size:50px;"">Agent B","null","","","","",""
"null","","","video-keyboard-response","75","270175","0.0-75.0","xvd3jtq6","","","null","","Agent B","veridical","STIM_SET_1_REAL/498253.bmp_pp67_L2_V1.0_veridical_freeview_isoFalse_fps144.mp4",""
"","","","call-function","76","270176","0.0-76.0","xvd3jtq6","","","","","","","",""
"3294.5499999999884","{""judgement"":0}","[0]","survey-likert","77","273472","0.0-77.0","xvd3jtq6","","","","","","","","1"
"2006.570000000007","{""confidence"":0}","[0]","survey-likert","78","275480","0.0-78.0","xvd3jtq6","","","","","","","",""
"","","","call-function","79","275480","0.0-79.0","xvd3jtq6","","","","","","","",""
"null","","","html-keyboard-response","80","276984","0.0-80.0","xvd3jtq6","","<span style=""color:Black; font-size:50px;"">Agent A","null","","","","",""
"null","","","video-keyboard-response","81","280063","0.0-81.0","xvd3jtq6","","","null","","Agent A","scrambled","STIM_SET_3/285932.bmp_pp64_L1_V2_veridical_freeview_isoFalsemismatch_1159855.bmp_L2_fps90.mp4",""
"null","","","html-keyboard-response","82","281571","0.0-82.0","xvd3jtq6","","<span style=""color:Black; font-size:50px;"">Agent B","null","","","","",""
"null","","","video-keyboard-response","83","284648","0.0-83.0","xvd3jtq6","","","null","","Agent B","veridical","STIM_SET_1_REAL/1159855.bmp_pp99_L2_V1.0_veridical_freeview_isoFalse_fps144.mp4",""
"","","","call-function","84","284649","0.0-84.0","xvd3jtq6","","","","","","","",""
"2122.75","{""judgement"":1}","[0]","survey-likert","85","286773","0.0-85.0","xvd3jtq6","","","","","","","","1"
"3872.3150000000023","{""confidence"":0}","[0]","survey-likert","86","290648","0.0-86.0","xvd3jtq6","","","","","","","",""
"235733.66499999998","","","instructions","87","526383","0.0-87.0","xvd3jtq6","[{""page_index"":0,""viewing_time"":2204.5599999999977},{""page_index"":1,""viewing_time"":232303.15000000002},{""page_index"":2,""viewing_time"":1225.7449999999953}]","","","","","","",""
"3847.2200000000885","","","instructions","88","530231","0.0-88.0","xvd3jtq6","[{""page_index"":0,""viewing_time"":1152.2250000000931},{""page_index"":1,""viewing_time"":2101.064999999944},{""page_index"":2,""viewing_time"":593.8249999999534}]","","","","","","",""
"","","","call-function","89","530232","0.0-89.0","xvd3jtq6","","","","","","","",""
"null","","","html-keyboard-response","90","531734","0.0-90.0","xvd3jtq6","","<span style=""color:Black; font-size:50px;"">Agent A","null","","","","",""
"null","","","video-keyboard-response","91","534809","0.0-91.0","xvd3jtq6","","","null","","Agent A","veridical","STIM_SET_1_REAL/713684.bmp_pp85_L3_V1.0_veridical_freeview_isoFalse_fps144.mp4",""
"null","","","html-keyboard-response","92","536310","0.0-92.0","xvd3jtq6","","<span style=""color:Black; font-size:50px;"">Agent B","null","","","","",""
"null","","","video-keyboard-response","93","539419","0.0-93.0","xvd3jtq6","","","null","","Agent B","scrambled","STIM_SET_3/713920.bmp_pp76_L1_V2_veridical_freeview_isoFalsemismatch_713684.bmp_L3_fps90.mp4",""
"","","","call-function","94","539420","0.0-94.0","xvd3jtq6","","","","","","","",""
"3512.329999999958","{""judgement"":1}","[0]","survey-likert","95","542933","0.0-95.0","xvd3jtq6","","","","","","","","0"
"2169.32500000007","{""confidence"":1}","[0]","survey-likert","96","545104","0.0-96.0","xvd3jtq6","","","","","","","",""
"","","","call-function","97","545105","0.0-97.0","xvd3jtq6","","","","","","","",""
"null","","","html-keyboard-response","98","546606","0.0-98.0","xvd3jtq6","","<span style=""color:Black; font-size:50px;"">Agent A","null","","","","",""
"null","","","video-keyboard-response","99","549687","0.0-99.0","xvd3jtq6","","","null","","Agent A","veridical","STIM_SET_1_REAL/713211.bmp_pp100_L3_V1.0_veridical_freeview_isoFalse_fps144.mp4",""
"null","","","html-keyboard-response","100","551194","0.0-100.0","xvd3jtq6","","<span style=""color:Black; font-size:50px;"">Agent B","null","","","","",""
"null","","","video-keyboard-response","101","554281","0.0-101.0","xvd3jtq6","","","null","","Agent B","scrambled","STIM_SET_3/1592921.bmp_pp69_L3_V2_veridical_freeview_isoFalsemismatch_713211.bmp_L3_fps90.mp4",""
"","","","call-function","102","554282","0.0-102.0","xvd3jtq6","","","","","","","",""
"2228.4000000000233","{""judgement"":0}","[0]","survey-likert","103","556512","0.0-103.0","xvd3jtq6","","","","","","","","0"
"3600.0050000000047","{""confidence"":0}","[0]","survey-likert","104","560114","0.0-104.0","xvd3jtq6","","","","","","","",""
"","","","call-function","105","560115","0.0-105.0","xvd3jtq6","","","","","","","",""
"null","","","html-keyboard-response","106","561616","0.0-106.0","xvd3jtq6","","<span style=""color:Black; font-size:50px;"">Agent A","null","","","","",""
"null","","","video-keyboard-response","107","564723","0.0-107.0","xvd3jtq6","","","null","","Agent A","veridical","STIM_SET_1_REAL/1592372.bmp_pp76_L1_V1.0_veridical_freeview_isoFalse_fps144.mp4",""
"null","","","html-keyboard-response","108","566225","0.0-108.0","xvd3jtq6","","<span style=""color:Black; font-size:50px;"">Agent B","null","","","","",""
"null","","","video-keyboard-response","109","569367","0.0-109.0","xvd3jtq6","","","null","","Agent B","scrambled","STIM_SET_3/107909.bmp_pp95_L2_V2_veridical_freeview_isoFalsemismatch_1592372.bmp_L1_fps90.mp4",""
"","","","call-function","110","569368","0.0-110.0","xvd3jtq6","","","","","","","",""
"2265.07500000007","{""judgement"":0}","[0]","survey-likert","111","571634","0.0-111.0","xvd3jtq6","","","","","","","","0"
"1397.7249999999767","{""confidence"":0}","[0]","survey-likert","112","573033","0.0-112.0","xvd3jtq6","","","","","","","",""
"","","","call-function","113","573034","0.0-113.0","xvd3jtq6","","","","","","","",""
"null","","","html-keyboard-response","114","574536","0.0-114.0","xvd3jtq6","","<span style=""color:Black; font-size:50px;"">Agent A","null","","","","",""
"null","","","video-keyboard-response","115","577639","0.0-115.0","xvd3jtq6","","","null","","Agent A","veridical","STIM_SET_1_REAL/1159777.bmp_pp77_L3_V1.0_veridical_freeview_isoFalse_fps144.mp4",""
"null","","","html-keyboard-response","116","579145","0.0-116.0","xvd3jtq6","","<span style=""color:Black; font-size:50px;"">Agent B","null","","","","",""
"null","","","video-keyboard-response","117","582294","0.0-117.0","xvd3jtq6","","","null","","Agent B","scrambled","STIM_SET_3/1592017.bmp_pp154_L1_V2_veridical_freeview_isoFalsemismatch_1159777.bmp_L3_fps90.mp4",""
"","","","call-function","118","582295","0.0-118.0","xvd3jtq6","","","","","","","",""
"1668.655000000028","{""judgement"":0}","[0]","survey-likert","119","583964","0.0-119.0","xvd3jtq6","","","","","","","","0"
"1867.4299999999348","{""confidence"":2}","[0]","survey-likert","120","585833","0.0-120.0","xvd3jtq6","","","","","","","",""
"","","","call-function","121","585834","0.0-121.0","xvd3jtq6","","","","","","","",""
"null","","","html-keyboard-response","122","587340","0.0-122.0","xvd3jtq6","","<span style=""color:Black; font-size:50px;"">Agent A","null","","","","",""
"null","","","video-keyboard-response","123","590456","0.0-123.0","xvd3jtq6","","","null","","Agent A","scrambled","STIM_SET_3/1592289.bmp_pp92_L3_V2_veridical_freeview_isoFalsemismatch_713666.bmp_L3_fps90.mp4",""
"null","","","html-keyboard-response","124","591962","0.0-124.0","xvd3jtq6","","<span style=""color:Black; font-size:50px;"">Agent B","null","","","","",""
"null","","","video-keyboard-response","125","595069","0.0-125.0","xvd3jtq6","","","null","","Agent B","veridical","STIM_SET_1_REAL/713666.bmp_pp97_L3_V1.0_veridical_freeview_isoFalse_fps144.mp4",""
"","","","call-function","126","595069","0.0-126.0","xvd3jtq6","","","","","","","",""
"3452.689999999944","{""judgement"":1}","[0]","survey-likert","127","598524","0.0-127.0","xvd3jtq6","","","","","","","","1"
"2300.234999999986","{""confidence"":1}","[0]","survey-likert","128","600825","0.0-128.0","xvd3jtq6","","","","","","","",""
"","","","call-function","129","600826","0.0-129.0","xvd3jtq6","","","","","","","",""
"null","","","html-keyboard-response","130","602330","0.0-130.0","xvd3jtq6","","<span style=""color:Black; font-size:50px;"">Agent A","null","","","","",""
"null","","","video-keyboard-response","131","605415","0.0-131.0","xvd3jtq6","","","null","","Agent A","scrambled","STIM_SET_3/1159819.bmp_pp151_L1_V2_veridical_freeview_isoFalsemismatch_1592499.bmp_L2_fps90.mp4",""
"null","","","html-keyboard-response","132","606921","0.0-132.0","xvd3jtq6","","<span style=""color:Black; font-size:50px;"">Agent B","null","","","","",""
"null","","","video-keyboard-response","133","609995","0.0-133.0","xvd3jtq6","","","null","","Agent B","veridical","STIM_SET_1_REAL/1592499.bmp_pp96_L2_V1.0_veridical_freeview_isoFalse_fps144.mp4",""
"","","","call-function","134","609996","0.0-134.0","xvd3jtq6","","","","","","","",""
"2185.57500000007","{""judgement"":1}","[0]","survey-likert","135","612183","0.0-135.0","xvd3jtq6","","","","","","","","1"
"1489.0100000000093","{""confidence"":2}","[0]","survey-likert","136","613674","0.0-136.0","xvd3jtq6","","","","","","","",""
"","","","call-function","137","613675","0.0-137.0","xvd3jtq6","","","","","","","",""
"null","","","html-keyboard-response","138","615177","0.0-138.0","xvd3jtq6","","<span style=""color:Black; font-size:50px;"">Agent A","null","","","","",""
"null","","","video-keyboard-response","139","618274","0.0-139.0","xvd3jtq6","","","null","","Agent A","scrambled","STIM_SET_3/1159592.bmp_pp91_L3_V2_veridical_freeview_isoFalsemismatch_285994.bmp_L3_fps90.mp4",""
"null","","","html-keyboard-response","140","619776","0.0-140.0","xvd3jtq6","","<span style=""color:Black; font-size:50px;"">Agent B","null","","","","",""
"null","","","video-keyboard-response","141","622838","0.0-141.0","xvd3jtq6","","","null","","Agent B","veridical","STIM_SET_1_REAL/285994.bmp_pp92_L3_V1.0_veridical_freeview_isoFalse_fps144.mp4",""
"","","","call-function","142","622839","0.0-142.0","xvd3jtq6","","","","","","","",""
"2227.8800000000047","{""judgement"":1}","[0]","survey-likert","143","625068","0.0-143.0","xvd3jtq6","","","","","","","","1"
"2189.5449999999255","{""confidence"":0}","[0]","survey-likert","144","627259","0.0-144.0","xvd3jtq6","","","","","","","",""
"","","","call-function","145","627260","0.0-145.0","xvd3jtq6","","","","","","","",""
"null","","","html-keyboard-response","146","628762","0.0-146.0","xvd3jtq6","","<span style=""color:Black; font-size:50px;"">Agent A","null","","","","",""
"null","","","video-keyboard-response","147","631834","0.0-147.0","xvd3jtq6","","","null","","Agent A","veridical","STIM_SET_1_REAL/713017.bmp_pp152_L2_V1.0_veridical_freeview_isoFalse_fps144.mp4",""
"null","","","html-keyboard-response","148","633338","0.0-148.0","xvd3jtq6","","<span style=""color:Black; font-size:50px;"">Agent B","null","","","","",""
"null","","","video-keyboard-response","149","636444","0.0-149.0","xvd3jtq6","","","null","","Agent B","scrambled","STIM_SET_3/1591975.bmp_pp88_L2_V2_veridical_freeview_isoFalsemismatch_713017.bmp_L2_fps90.mp4",""
"","","","call-function","150","636445","0.0-150.0","xvd3jtq6","","","","","","","",""
"2150.155000000028","{""judgement"":0}","[0]","survey-likert","151","638596","0.0-151.0","xvd3jtq6","","","","","","","","0"
"2150.930000000051","{""confidence"":0}","[0]","survey-likert","152","640748","0.0-152.0","xvd3jtq6","","","","","","","",""
"","","","call-function","153","640750","0.0-153.0","xvd3jtq6","","","","","","","",""
"null","","","html-keyboard-response","154","642254","0.0-154.0","xvd3jtq6","","<span style=""color:Black; font-size:50px;"">Agent A","null","","","","",""
"null","","","video-keyboard-response","155","645375","0.0-155.0","xvd3jtq6","","","null","","Agent A","scrambled","STIM_SET_3/713742.bmp_pp91_L3_V2_veridical_freeview_isoFalsemismatch_498170.bmp_L3_fps90.mp4",""
"null","","","html-keyboard-response","156","646879","0.0-156.0","xvd3jtq6","","<span style=""color:Black; font-size:50px;"">Agent B","null","","","","",""
"null","","","video-keyboard-response","157","649971","0.0-157.0","xvd3jtq6","","","null","","Agent B","veridical","STIM_SET_1_REAL/498170.bmp_pp153_L3_V1.0_veridical_freeview_isoFalse_fps144.mp4",""
"","","","call-function","158","649972","0.0-158.0","xvd3jtq6","","","","","","","",""
"4916.660000000033","{""judgement"":1}","[0]","survey-likert","159","654889","0.0-159.0","xvd3jtq6","","","","","","","","1"
"2191.305000000051","{""confidence"":0}","[0]","survey-likert","160","657082","0.0-160.0","xvd3jtq6","","","","","","","",""
"","","","call-function","161","657083","0.0-161.0","xvd3jtq6","","","","","","","",""
"null","","","html-keyboard-response","162","658584","0.0-162.0","xvd3jtq6","","<span style=""color:Black; font-size:50px;"">Agent A","null","","","","",""
"null","","","video-keyboard-response","163","661712","0.0-163.0","xvd3jtq6","","","null","","Agent A","scrambled","STIM_SET_3/285684.bmp_pp80_L3_V2_veridical_freeview_isoFalsemismatch_713760.bmp_L1_fps90.mp4",""
"null","","","html-keyboard-response","164","663216","0.0-164.0","xvd3jtq6","","<span style=""color:Black; font-size:50px;"">Agent B","null","","","","",""
"null","","","video-keyboard-response","165","666316","0.0-165.0","xvd3jtq6","","","null","","Agent B","veridical","STIM_SET_1_REAL/713760.bmp_pp81_L1_V1.0_veridical_freeview_isoFalse_fps144.mp4",""
"","","","call-function","166","666317","0.0-166.0","xvd3jtq6","","","","","","","",""
"4894.420000000042","{""judgement"":0}","[0]","survey-likert","167","671212","0.0-167.0","xvd3jtq6","","","","","","","","1"
"2214.0200000000186","{""confidence"":0}","[0]","survey-likert","168","673427","0.0-168.0","xvd3jtq6","","","","","","","",""
"86985.505","","","instructions","169","760414","0.0-169.0","xvd3jtq6","[{""page_index"":0,""viewing_time"":3459.5749999999534},{""page_index"":1,""viewing_time"":82777.55000000005},{""page_index"":2,""viewing_time"":748.1449999999022}]","","","","","","",""
"1392.780000000028","","","instructions","170","761808","0.0-170.0","xvd3jtq6","[{""page_index"":0,""viewing_time"":428.60000000009313},{""page_index"":1,""viewing_time"":467.08499999996275},{""page_index"":2,""viewing_time"":496.9799999999814}]","","","","","","",""
"","","","call-function","171","761808","0.0-171.0","xvd3jtq6","","","","","","","",""
"null","","","html-keyboard-response","172","763311","0.0-172.0","xvd3jtq6","","<span style=""color:Black; font-size:50px;"">Agent A","null","","","","",""
"null","","","video-keyboard-response","173","766401","0.0-173.0","xvd3jtq6","","","null","","Agent A","scrambled","STIM_SET_3/61513.bmp_pp75_L1_V2_veridical_freeview_isoFalsemismatch_1159784.bmp_L3_fps90.mp4",""
"null","","","html-keyboard-response","174","767907","0.0-174.0","xvd3jtq6","","<span style=""color:Black; font-size:50px;"">Agent B","null","","","","",""
"null","","","video-keyboard-response","175","770987","0.0-175.0","xvd3jtq6","","","null","","Agent B","veridical","STIM_SET_1_REAL/1159784.bmp_pp73_L3_V1.0_veridical_freeview_isoFalse_fps144.mp4",""
"","","","call-function","176","770988","0.0-176.0","xvd3jtq6","","","","","","","",""
"1680.2900000000373","{""judgement"":1}","[0]","survey-likert","177","772669","0.0-177.0","xvd3jtq6","","","","","","","","1"
"2031.0900000000838","{""confidence"":0}","[0]","survey-likert","178","774701","0.0-178.0","xvd3jtq6","","","","","","","",""
"","","","call-function","179","774702","0.0-179.0","xvd3jtq6","","","","","","","",""
"null","","","html-keyboard-response","180","776204","0.0-180.0","xvd3jtq6","","<span style=""color:Black; font-size:50px;"">Agent A","null","","","","",""
"null","","","video-keyboard-response","181","779269","0.0-181.0","xvd3jtq6","","","null","","Agent A","veridical","STIM_SET_1_REAL/713089.bmp_pp60_L3_V1.0_veridical_freeview_isoFalse_fps144.mp4",""
"null","","","html-keyboard-response","182","780770","0.0-182.0","xvd3jtq6","","<span style=""color:Black; font-size:50px;"">Agent B","null","","","","",""
"null","","","video-keyboard-response","183","783841","0.0-183.0","xvd3jtq6","","","null","","Agent B","scrambled","STIM_SET_3/1592201.bmp_pp97_L3_V2_veridical_freeview_isoFalsemismatch_713089.bmp_L3_fps90.mp4",""
"","","","call-function","184","783843","0.0-184.0","xvd3jtq6","","","","","","","",""
"1936.734999999986","{""judgement"":0}","[0]","survey-likert","185","785781","0.0-185.0","xvd3jtq6","","","","","","","","0"
"2567.765000000014","{""confidence"":0}","[0]","survey-likert","186","788351","0.0-186.0","xvd3jtq6","","","","","","","",""
"","","","call-function","187","788353","0.0-187.0","xvd3jtq6","","","","","","","",""
"null","","","html-keyboard-response","188","789855","0.0-188.0","xvd3jtq6","","<span style=""color:Black; font-size:50px;"">Agent A","null","","","","",""
"null","","","video-keyboard-response","189","792940","0.0-189.0","xvd3jtq6","","","null","","Agent A","scrambled","STIM_SET_3/1159508.bmp_pp151_L1_V2_veridical_freeview_isoFalsemismatch_1159675.bmp_L3_fps90.mp4",""
"null","","","html-keyboard-response","190","794443","0.0-190.0","xvd3jtq6","","<span style=""color:Black; font-size:50px;"">Agent B","null","","","","",""
"null","","","video-keyboard-response","191","797519","0.0-191.0","xvd3jtq6","","","null","","Agent B","veridical","STIM_SET_1_REAL/1159675.bmp_pp77_L3_V1.0_veridical_freeview_isoFalse_fps144.mp4",""
"","","","call-function","192","797520","0.0-192.0","xvd3jtq6","","","","","","","",""
"2264.640000000014","{""judgement"":0}","[0]","survey-likert","193","799786","0.0-193.0","xvd3jtq6","","","","","","","","1"
"2375.765000000014","{""confidence"":0}","[0]","survey-likert","194","802163","0.0-194.0","xvd3jtq6","","","","","","","",""
"","","","call-function","195","802164","0.0-195.0","xvd3jtq6","","","","","","","",""
"null","","","html-keyboard-response","196","803667","0.0-196.0","xvd3jtq6","","<span style=""color:Black; font-size:50px;"">Agent A","null","","","","",""
"null","","","video-keyboard-response","197","806730","0.0-197.0","xvd3jtq6","","","null","","Agent A","veridical","STIM_SET_1_REAL/498149.bmp_pp99_L2_V1.0_veridical_freeview_isoFalse_fps144.mp4",""
"null","","","html-keyboard-response","198","808235","0.0-198.0","xvd3jtq6","","<span style=""color:Black; font-size:50px;"">Agent B","null","","","","",""
"null","","","video-keyboard-response","199","811338","0.0-199.0","xvd3jtq6","","","null","","Agent B","scrambled","STIM_SET_3/107955.bmp_pp90_L2_V2_veridical_freeview_isoFalsemismatch_498149.bmp_L2_fps90.mp4",""
"","","","call-function","200","811339","0.0-200.0","xvd3jtq6","","","","","","","",""
"2359.75","{""judgement"":0}","[0]","survey-likert","201","813700","0.0-201.0","xvd3jtq6","","","","","","","","0"
"2653.7350000001024","{""confidence"":0}","[0]","survey-likert","202","816355","0.0-202.0","xvd3jtq6","","","","","","","",""
"","","","call-function","203","816356","0.0-203.0","xvd3jtq6","","","","","","","",""
"null","","","html-keyboard-response","204","817862","0.0-204.0","xvd3jtq6","","<span style=""color:Black; font-size:50px;"">Agent A","null","","","","",""
"null","","","video-keyboard-response","205","820963","0.0-205.0","xvd3jtq6","","","null","","Agent A","veridical","STIM_SET_1_REAL/1592890.bmp_pp82_L2_V1.0_veridical_freeview_isoFalse_fps144.mp4",""
"null","","","html-keyboard-response","206","822467","0.0-206.0","xvd3jtq6","","<span style=""color:Black; font-size:50px;"">Agent B","null","","","","",""
"null","","","video-keyboard-response","207","825599","0.0-207.0","xvd3jtq6","","","null","","Agent B","scrambled","STIM_SET_3/1592168.bmp_pp71_L1_V2_veridical_freeview_isoFalsemismatch_1592890.bmp_L2_fps90.mp4",""
"","","","call-function","208","825599","0.0-208.0","xvd3jtq6","","","","","","","",""
"1666.7850000000326","{""judgement"":0}","[0]","survey-likert","209","827267","0.0-209.0","xvd3jtq6","","","","","","","","0"
"1632.155000000028","{""confidence"":0}","[0]","survey-likert","210","828901","0.0-210.0","xvd3jtq6","","","","","","","",""
"","","","call-function","211","828901","0.0-211.0","xvd3jtq6","","","","","","","",""
"null","","","html-keyboard-response","212","830404","0.0-212.0","xvd3jtq6","","<span style=""color:Black; font-size:50px;"">Agent A","null","","","","",""
"null","","","video-keyboard-response","213","833502","0.0-213.0","xvd3jtq6","","","null","","Agent A","veridical","STIM_SET_1_REAL/1592934.bmp_pp63_L1_V1.0_veridical_freeview_isoFalse_fps144.mp4",""
"null","","","html-keyboard-response","214","835008","0.0-214.0","xvd3jtq6","","<span style=""color:Black; font-size:50px;"">Agent B","null","","","","",""
"null","","","video-keyboard-response","215","838111","0.0-215.0","xvd3jtq6","","","null","","Agent B","scrambled","STIM_SET_3/1159392.bmp_pp96_L2_V2_veridical_freeview_isoFalsemismatch_1592934.bmp_L1_fps90.mp4",""
"","","","call-function","216","838112","0.0-216.0","xvd3jtq6","","","","","","","",""
"1813.3100000000559","{""judgement"":1}","[0]","survey-likert","217","839926","0.0-217.0","xvd3jtq6","","","","","","","","0"
"2311.8499999999767","{""confidence"":0}","[0]","survey-likert","218","842239","0.0-218.0","xvd3jtq6","","","","","","","",""
"","","","call-function","219","842240","0.0-219.0","xvd3jtq6","","","","","","","",""
"null","","","html-keyboard-response","220","843742","0.0-220.0","xvd3jtq6","","<span style=""color:Black; font-size:50px;"">Agent A","null","","","","",""
"null","","","video-keyboard-response","221","846860","0.0-221.0","xvd3jtq6","","","null","","Agent A","scrambled","STIM_SET_3/1592530.bmp_pp75_L1_V2_veridical_freeview_isoFalsemismatch_1591961.bmp_L2_fps90.mp4",""
"null","","","html-keyboard-response","222","848361","0.0-222.0","xvd3jtq6","","<span style=""color:Black; font-size:50px;"">Agent B","null","","","","",""
"null","","","video-keyboard-response","223","851463","0.0-223.0","xvd3jtq6","","","null","","Agent B","veridical","STIM_SET_1_REAL/1591961.bmp_pp67_L2_V1.0_veridical_freeview_isoFalse_fps144.mp4",""
"","","","call-function","224","851464","0.0-224.0","xvd3jtq6","","","","","","","",""
"1218.4600000000792","{""judgement"":0}","[0]","survey-likert","225","852684","0.0-225.0","xvd3jtq6","","","","","","","","1"
"1543.5750000000698","{""confidence"":0}","[0]","survey-likert","226","854229","0.0-226.0","xvd3jtq6","","","","","","","",""
"","","","call-function","227","854230","0.0-227.0","xvd3jtq6","","","","","","","",""
"null","","","html-keyboard-response","228","855736","0.0-228.0","xvd3jtq6","","<span style=""color:Black; font-size:50px;"">Agent A","null","","","","",""
"null","","","video-keyboard-response","229","858818","0.0-229.0","xvd3jtq6","","","null","","Agent A","scrambled","STIM_SET_3/1592314.bmp_pp100_L3_V2_veridical_freeview_isoFalsemismatch_713707.bmp_L1_fps90.mp4",""
"null","","","html-keyboard-response","230","860323","0.0-230.0","xvd3jtq6","","<span style=""color:Black; font-size:50px;"">Agent B","null","","","","",""
"null","","","video-keyboard-response","231","863399","0.0-231.0","xvd3jtq6","","","null","","Agent B","veridical","STIM_SET_1_REAL/713707.bmp_pp154_L1_V1.0_veridical_freeview_isoFalse_fps144.mp4",""
"","","","call-function","232","863400","0.0-232.0","xvd3jtq6","","","","","","","",""
"2954.670000000042","{""judgement"":1}","[0]","survey-likert","233","866355","0.0-233.0","xvd3jtq6","","","","","","","","1"
"1313.329999999958","{""confidence"":0}","[0]","survey-likert","234","867670","0.0-234.0","xvd3jtq6","","","","","","","",""
"","","","call-function","235","867671","0.0-235.0","xvd3jtq6","","","","","","","",""
"null","","","html-keyboard-response","236","869177","0.0-236.0","xvd3jtq6","","<span style=""color:Black; font-size:50px;"">Agent A","null","","","","",""
"null","","","video-keyboard-response","237","872254","0.0-237.0","xvd3jtq6","","","null","","Agent A","veridical","STIM_SET_1_REAL/713371.bmp_pp68_L1_V1.0_veridical_freeview_isoFalse_fps144.mp4",""
"null","","","html-keyboard-response","238","873759","0.0-238.0","xvd3jtq6","","<span style=""color:Black; font-size:50px;"">Agent B","null","","","","",""
"null","","","video-keyboard-response","239","876908","0.0-239.0","xvd3jtq6","","","null","","Agent B","scrambled","STIM_SET_3/498396.bmp_pp99_L2_V2_veridical_freeview_isoFalsemismatch_713371.bmp_L1_fps90.mp4",""
"","","","call-function","240","876910","0.0-240.0","xvd3jtq6","","","","","","","",""
"2420.4899999999907","{""judgement"":1}","[0]","survey-likert","241","879332","0.0-241.0","xvd3jtq6","","","","","","","","0"
"1382.6800000000512","{""confidence"":0}","[0]","survey-likert","242","880717","0.0-242.0","xvd3jtq6","","","","","","","",""
"","","","call-function","243","880718","0.0-243.0","xvd3jtq6","","","","","","","",""
"null","","","html-keyboard-response","244","882221","0.0-244.0","xvd3jtq6","","<span style=""color:Black; font-size:50px;"">Agent A","null","","","","",""
"null","","","video-keyboard-response","245","885305","0.0-245.0","xvd3jtq6","","","null","","Agent A","scrambled","STIM_SET_3/1159860.bmp_pp152_L2_V2_veridical_freeview_isoFalsemismatch_1159621.bmp_L3_fps90.mp4",""
"null","","","html-keyboard-response","246","886811","0.0-246.0","xvd3jtq6","","<span style=""color:Black; font-size:50px;"">Agent B","null","","","","",""
"null","","","video-keyboard-response","247","889874","0.0-247.0","xvd3jtq6","","","null","","Agent B","veridical","STIM_SET_1_REAL/1159621.bmp_pp92_L3_V1.0_veridical_freeview_isoFalse_fps144.mp4",""
"","","","call-function","248","889875","0.0-248.0","xvd3jtq6","","","","","","","",""
"2504.2149999999674","{""judgement"":1}","[0]","survey-likert","249","892380","0.0-249.0","xvd3jtq6","","","","","","","","1"
"1673.8649999999907","{""confidence"":0}","[0]","survey-likert","250","894055","0.0-250.0","xvd3jtq6","","","","","","","",""
"162843.89000000013","","","instructions","251","1056901","0.0-251.0","xvd3jtq6","[{""page_index"":0,""viewing_time"":1353.0600000000559},{""page_index"":1,""viewing_time"":160809.86999999988},{""page_index"":2,""viewing_time"":680.75}]","","","","","","",""
"1858.8700000001118","","","instructions","252","1058761","0.0-252.0","xvd3jtq6","[{""page_index"":0,""viewing_time"":579.4900000002235},{""page_index"":1,""viewing_time"":1201.6049999999814},{""page_index"":2,""viewing_time"":77.65499999979511}]","","","","","","",""
"","","","call-function","253","1058762","0.0-253.0","xvd3jtq6","","","","","","","",""
"null","","","html-keyboard-response","254","1060263","0.0-254.0","xvd3jtq6","","<span style=""color:Black; font-size:50px;"">Agent A","null","","","","",""
"null","","","video-keyboard-response","255","1063348","0.0-255.0","xvd3jtq6","","","null","","Agent A","scrambled","STIM_SET_3/1592298.bmp_pp56_L3_V2_veridical_freeview_isoFalsemismatch_1593146.bmp_L1_fps90.mp4",""
"null","","","html-keyboard-response","256","1064851","0.0-256.0","xvd3jtq6","","<span style=""color:Black; font-size:50px;"">Agent B","null","","","","",""
"null","","","video-keyboard-response","257","1067928","0.0-257.0","xvd3jtq6","","","null","","Agent B","veridical","STIM_SET_1_REAL/1593146.bmp_pp93_L1_V1.0_veridical_freeview_isoFalse_fps144.mp4",""
"","","","call-function","258","1067928","0.0-258.0","xvd3jtq6","","","","","","","",""
"2702.9599999999627","{""judgement"":0}","[0]","survey-likert","259","1070632","0.0-259.0","xvd3jtq6","","","","","","","","1"
"1388.7600000000093","{""confidence"":0}","[0]","survey-likert","260","1072023","0.0-260.0","xvd3jtq6","","","","","","","",""
"","","","call-function","261","1072024","0.0-261.0","xvd3jtq6","","","","","","","",""
"null","","","html-keyboard-response","262","1073525","0.0-262.0","xvd3jtq6","","<span style=""color:Black; font-size:50px;"">Agent A","null","","","","",""
"null","","","video-keyboard-response","263","1076627","0.0-263.0","xvd3jtq6","","","null","","Agent A","scrambled","STIM_SET_3/713381.bmp_pp82_L2_V2_veridical_freeview_isoFalsemismatch_1159572.bmp_L1_fps90.mp4",""
"null","","","html-keyboard-response","264","1078131","0.0-264.0","xvd3jtq6","","<span style=""color:Black; font-size:50px;"">Agent B","null","","","","",""
"null","","","video-keyboard-response","265","1081191","0.0-265.0","xvd3jtq6","","","null","","Agent B","veridical","STIM_SET_1_REAL/1159572.bmp_pp71_L1_V1.0_veridical_freeview_isoFalse_fps144.mp4",""
"","","","call-function","266","1081192","0.0-266.0","xvd3jtq6","","","","","","","",""
"1604.5549999999348","{""judgement"":0}","[0]","survey-likert","267","1082797","0.0-267.0","xvd3jtq6","","","","","","","","1"
"40517.48499999987","{""confidence"":0}","[0]","survey-likert","268","1123316","0.0-268.0","xvd3jtq6","","","","","","","",""
"","","","call-function","269","1123318","0.0-269.0","xvd3jtq6","","","","","","","",""
"null","","","html-keyboard-response","270","1124820","0.0-270.0","xvd3jtq6","","<span style=""color:Black; font-size:50px;"">Agent A","null","","","","",""
"null","","","video-keyboard-response","271","1127895","0.0-271.0","xvd3jtq6","","","null","","Agent A","scrambled","STIM_SET_3/1160049.bmp_pp53_L2_V2_veridical_freeview_isoFalsemismatch_1591954.bmp_L2_fps90.mp4",""
"null","","","html-keyboard-response","272","1129403","0.0-272.0","xvd3jtq6","","<span style=""color:Black; font-size:50px;"">Agent B","null","","","","",""
"null","","","video-keyboard-response","273","1132481","0.0-273.0","xvd3jtq6","","","null","","Agent B","veridical","STIM_SET_1_REAL/1591954.bmp_pp62_L2_V1.0_veridical_freeview_isoFalse_fps144.mp4",""
"","","","call-function","274","1132483","0.0-274.0","xvd3jtq6","","","","","","","",""
"2832.25","{""judgement"":0}","[0]","survey-likert","275","1135316","0.0-275.0","xvd3jtq6","","","","","","","","1"
"2105.2349999998696","{""confidence"":0}","[0]","survey-likert","276","1137423","0.0-276.0","xvd3jtq6","","","","","","","",""
"","","","call-function","277","1137424","0.0-277.0","xvd3jtq6","","","","","","","",""
"null","","","html-keyboard-response","278","1138928","0.0-278.0","xvd3jtq6","","<span style=""color:Black; font-size:50px;"">Agent A","null","","","","",""
"null","","","video-keyboard-response","279","1141999","0.0-279.0","xvd3jtq6","","","null","","Agent A","veridical","STIM_SET_1_REAL/285905.bmp_pp57_L1_V1.0_veridical_freeview_isoFalse_fps144.mp4",""
"null","","","html-keyboard-response","280","1143506","0.0-280.0","xvd3jtq6","","<span style=""color:Black; font-size:50px;"">Agent B","null","","","","",""
"null","","","video-keyboard-response","281","1146610","0.0-281.0","xvd3jtq6","","","null","","Agent B","scrambled","STIM_SET_3/1592568.bmp_pp71_L1_V2_veridical_freeview_isoFalsemismatch_285905.bmp_L1_fps90.mp4",""
"","","","call-function","282","1146611","0.0-282.0","xvd3jtq6","","","","","","","",""
"1923.6000000000931","{""judgement"":0}","[0]","survey-likert","283","1148536","0.0-283.0","xvd3jtq6","","","","","","","","0"
"1407.2999999998137","{""confidence"":0}","[0]","survey-likert","284","1149945","0.0-284.0","xvd3jtq6","","","","","","","",""
"","","","call-function","285","1149945","0.0-285.0","xvd3jtq6","","","","","","","",""
"null","","","html-keyboard-response","286","1151449","0.0-286.0","xvd3jtq6","","<span style=""color:Black; font-size:50px;"">Agent A","null","","","","",""
"null","","","video-keyboard-response","287","1154554","0.0-287.0","xvd3jtq6","","","null","","Agent A","scrambled","STIM_SET_3/285715.bmp_pp67_L2_V2_veridical_freeview_isoFalsemismatch_1159882.bmp_L2_fps90.mp4",""
"null","","","html-keyboard-response","288","1156057","0.0-288.0","xvd3jtq6","","<span style=""color:Black; font-size:50px;"">Agent B","null","","","","",""
"null","","","video-keyboard-response","289","1159145","0.0-289.0","xvd3jtq6","","","null","","Agent B","veridical","STIM_SET_1_REAL/1159882.bmp_pp61_L2_V1.0_veridical_freeview_isoFalse_fps144.mp4",""
"","","","call-function","290","1159146","0.0-290.0","xvd3jtq6","","","","","","","",""
"3024.689999999944","{""judgement"":1}","[0]","survey-likert","291","1162172","0.0-291.0","xvd3jtq6","","","","","","","","1"
"1120.5900000000838","{""confidence"":0}","[0]","survey-likert","292","1163294","0.0-292.0","xvd3jtq6","","","","","","","",""
"","","","call-function","293","1163294","0.0-293.0","xvd3jtq6","","","","","","","",""
"null","","","html-keyboard-response","294","1164796","0.0-294.0","xvd3jtq6","","<span style=""color:Black; font-size:50px;"">Agent A","null","","","","",""
"null","","","video-keyboard-response","295","1167898","0.0-295.0","xvd3jtq6","","","null","","Agent A","veridical","STIM_SET_1_REAL/285751.bmp_pp55_L3_V1.0_veridical_freeview_isoFalse_fps144.mp4",""
"null","","","html-keyboard-response","296","1169401","0.0-296.0","xvd3jtq6","","<span style=""color:Black; font-size:50px;"">Agent B","null","","","","",""
"null","","","video-keyboard-response","297","1172525","0.0-297.0","xvd3jtq6","","","null","","Agent B","scrambled","STIM_SET_3/285946.bmp_pp79_L2_V2_veridical_freeview_isoFalsemismatch_285751.bmp_L3_fps90.mp4",""
"","","","call-function","298","1172526","0.0-298.0","xvd3jtq6","","","","","","","",""
"1782.3200000000652","{""judgement"":0}","[0]","survey-likert","299","1174309","0.0-299.0","xvd3jtq6","","","","","","","","0"
"1296.8999999999069","{""confidence"":0}","[0]","survey-likert","300","1175608","0.0-300.0","xvd3jtq6","","","","","","","",""
"","","","call-function","301","1175609","0.0-301.0","xvd3jtq6","","","","","","","",""
"null","","","html-keyboard-response","302","1177114","0.0-302.0","xvd3jtq6","","<span style=""color:Black; font-size:50px;"">Agent A","null","","","","",""
"null","","","video-keyboard-response","303","1180217","0.0-303.0","xvd3jtq6","","","null","","Agent A","veridical","STIM_SET_1_REAL/1592657.bmp_pp98_L1_V1.0_veridical_freeview_isoFalse_fps144.mp4",""
"null","","","html-keyboard-response","304","1181719","0.0-304.0","xvd3jtq6","","<span style=""color:Black; font-size:50px;"">Agent B","null","","","","",""
"null","","","video-keyboard-response","305","1184830","0.0-305.0","xvd3jtq6","","","null","","Agent B","scrambled","STIM_SET_3/498261.bmp_pp84_L3_V2_veridical_freeview_isoFalsemismatch_1592657.bmp_L1_fps90.mp4",""
"","","","call-function","306","1184831","0.0-306.0","xvd3jtq6","","","","","","","",""
"132969.82499999995","{""judgement"":0}","[0]","survey-likert","307","1317802","0.0-307.0","xvd3jtq6","","","","","","","","0"
"2044.7949999999255","{""confidence"":0}","[0]","survey-likert","308","1319848","0.0-308.0","xvd3jtq6","","","","","","","",""
"","","","call-function","309","1319849","0.0-309.0","xvd3jtq6","","","","","","","",""
"null","","","html-keyboard-response","310","1321352","0.0-310.0","xvd3jtq6","","<span style=""color:Black; font-size:50px;"">Agent A","null","","","","",""
"null","","","video-keyboard-response","311","1324434","0.0-311.0","xvd3jtq6","","","null","","Agent A","scrambled","STIM_SET_3/1592951.bmp_pp80_L3_V2_veridical_freeview_isoFalsemismatch_712977.bmp_L1_fps90.mp4",""
"null","","","html-keyboard-response","312","1325937","0.0-312.0","xvd3jtq6","","<span style=""color:Black; font-size:50px;"">Agent B","null","","","","",""
"null","","","video-keyboard-response","313","1329015","0.0-313.0","xvd3jtq6","","","null","","Agent B","veridical","STIM_SET_1_REAL/712977.bmp_pp51_L1_V1.0_veridical_freeview_isoFalse_fps144.mp4",""
"","","","call-function","314","1329017","0.0-314.0","xvd3jtq6","","","","","","","",""
"1995.0149999998976","{""judgement"":0}","[0]","survey-likert","315","1331013","0.0-315.0","xvd3jtq6","","","","","","","","1"
"1599.6899999999441","{""confidence"":0}","[0]","survey-likert","316","1332615","0.0-316.0","xvd3jtq6","","","","","","","",""
"","","","call-function","317","1332616","0.0-317.0","xvd3jtq6","","","","","","","",""
"null","","","html-keyboard-response","318","1334122","0.0-318.0","xvd3jtq6","","<span style=""color:Black; font-size:50px;"">Agent A","null","","","","",""
"null","","","video-keyboard-response","319","1337197","0.0-319.0","xvd3jtq6","","","null","","Agent A","scrambled","STIM_SET_3/1592047.bmp_pp51_L1_V2_veridical_freeview_isoFalsemismatch_713513.bmp_L2_fps90.mp4",""
"null","","","html-keyboard-response","320","1338702","0.0-320.0","xvd3jtq6","","<span style=""color:Black; font-size:50px;"">Agent B","null","","","","",""
"null","","","video-keyboard-response","321","1341773","0.0-321.0","xvd3jtq6","","","null","","Agent B","veridical","STIM_SET_1_REAL/713513.bmp_pp62_L2_V1.0_veridical_freeview_isoFalse_fps144.mp4",""
"","","","call-function","322","1341774","0.0-322.0","xvd3jtq6","","","","","","","",""
"1658.2249999998603","{""judgement"":1}","[0]","survey-likert","323","1343433","0.0-323.0","xvd3jtq6","","","","","","","","1"
"2497.475000000093","{""confidence"":0}","[0]","survey-likert","324","1345933","0.0-324.0","xvd3jtq6","","","","","","","",""
"","","","call-function","325","1345933","0.0-325.0","xvd3jtq6","","","","","","","",""
"null","","","html-keyboard-response","326","1347439","0.0-326.0","xvd3jtq6","","<span style=""color:Black; font-size:50px;"">Agent A","null","","","","",""
"null","","","video-keyboard-response","327","1350517","0.0-327.0","xvd3jtq6","","","null","","Agent A","scrambled","STIM_SET_3/1592567.bmp_pp70_L2_V2_veridical_freeview_isoFalsemismatch_713135.bmp_L2_fps90.mp4",""
"null","","","html-keyboard-response","328","1352023","0.0-328.0","xvd3jtq6","","<span style=""color:Black; font-size:50px;"">Agent B","null","","","","",""
"null","","","video-keyboard-response","329","1355094","0.0-329.0","xvd3jtq6","","","null","","Agent B","veridical","STIM_SET_1_REAL/713135.bmp_pp54_L2_V1.0_veridical_freeview_isoFalse_fps144.mp4",""
"","","","call-function","330","1355095","0.0-330.0","xvd3jtq6","","","","","","","",""
"2835.1299999998882","{""judgement"":1}","[0]","survey-likert","331","1357931","0.0-331.0","xvd3jtq6","","","","","","","","1"
"2600.310000000056","{""confidence"":0}","[0]","survey-likert","332","1360533","0.0-332.0","xvd3jtq6","","","","","","","",""
"263216.69999999995","","","instructions","333","1623751","0.0-333.0","xvd3jtq6","[{""page_index"":0,""viewing_time"":1305.3600000001024},{""page_index"":1,""viewing_time"":261380.83499999996},{""page_index"":2,""viewing_time"":530.2949999999255}]","","","","","","",""
"1653.0649999999441","","","instructions","334","1625405","0.0-334.0","xvd3jtq6","[{""page_index"":0,""viewing_time"":536.8500000000931},{""page_index"":1,""viewing_time"":427.0399999998044},{""page_index"":2,""viewing_time"":688.9050000000279}]","","","","","","",""
"","","","call-function","335","1625406","0.0-335.0","xvd3jtq6","","","","","","","",""
"null","","","html-keyboard-response","336","1626908","0.0-336.0","xvd3jtq6","","<span style=""color:Black; font-size:50px;"">Agent A","null","","","","",""
"null","","","video-keyboard-response","337","1630011","0.0-337.0","xvd3jtq6","","","null","","Agent A","scrambled","STIM_SET_3/713829.bmp_pp60_L3_V2_veridical_freeview_isoFalsemismatch_1159440.bmp_L1_fps90.mp4",""
"null","","","html-keyboard-response","338","1631512","0.0-338.0","xvd3jtq6","","<span style=""color:Black; font-size:50px;"">Agent B","null","","","","",""
"null","","","video-keyboard-response","339","1634586","0.0-339.0","xvd3jtq6","","","null","","Agent B","veridical","STIM_SET_1_REAL/1159440.bmp_pp98_L1_V1.0_veridical_freeview_isoFalse_fps144.mp4",""
"","","","call-function","340","1634587","0.0-340.0","xvd3jtq6","","","","","","","",""
"1847.4150000000373","{""judgement"":1}","[0]","survey-likert","341","1636435","0.0-341.0","xvd3jtq6","","","","","","","","1"
"1160.1649999998044","{""confidence"":0}","[0]","survey-likert","342","1637597","0.0-342.0","xvd3jtq6","","","","","","","",""
"","","","call-function","343","1637598","0.0-343.0","xvd3jtq6","","","","","","","",""
"null","","","html-keyboard-response","344","1639100","0.0-344.0","xvd3jtq6","","<span style=""color:Black; font-size:50px;"">Agent A","null","","","","",""
"null","","","video-keyboard-response","345","1642168","0.0-345.0","xvd3jtq6","","","null","","Agent A","veridical","STIM_SET_1_REAL/1593035.bmp_pp94_L2_V1.0_veridical_freeview_isoFalse_fps144.mp4",""
"null","","","html-keyboard-response","346","1643671","0.0-346.0","xvd3jtq6","","<span style=""color:Black; font-size:50px;"">Agent B","null","","","","",""
"null","","","video-keyboard-response","347","1646750","0.0-347.0","xvd3jtq6","","","null","","Agent B","scrambled","STIM_SET_3/1159325.bmp_pp67_L2_V2_veridical_freeview_isoFalsemismatch_1593035.bmp_L2_fps90.mp4",""
"","","","call-function","348","1646751","0.0-348.0","xvd3jtq6","","","","","","","",""
"3432.5400000000373","{""judgement"":1}","[0]","survey-likert","349","1650184","0.0-349.0","xvd3jtq6","","","","","","","","0"
"1087.5100000000093","{""confidence"":0}","[0]","survey-likert","350","1651273","0.0-350.0","xvd3jtq6","","","","","","","",""
"","","","call-function","351","1651274","0.0-351.0","xvd3jtq6","","","","","","","",""
"null","","","html-keyboard-response","352","1652775","0.0-352.0","xvd3jtq6","","<span style=""color:Black; font-size:50px;"">Agent A","null","","","","",""
"null","","","video-keyboard-response","353","1655873","0.0-353.0","xvd3jtq6","","","null","","Agent A","veridical","STIM_SET_1_REAL/285933.bmp_pp81_L1_V1.0_veridical_freeview_isoFalse_fps144.mp4",""
"null","","","html-keyboard-response","354","1657374","0.0-354.0","xvd3jtq6","","<span style=""color:Black; font-size:50px;"">Agent B","null","","","","",""
"null","","","video-keyboard-response","355","1660483","0.0-355.0","xvd3jtq6","","","null","","Agent B","scrambled","STIM_SET_3/1159973.bmp_pp98_L1_V2_veridical_freeview_isoFalsemismatch_285933.bmp_L1_fps90.mp4",""
"","","","call-function","356","1660484","0.0-356.0","xvd3jtq6","","","","","","","",""
"2077.3700000001118","{""judgement"":0}","[0]","survey-likert","357","1662562","0.0-357.0","xvd3jtq6","","","","","","","","0"
"1104.4249999998137","{""confidence"":0}","[0]","survey-likert","358","1663668","0.0-358.0","xvd3jtq6","","","","","","","",""
"","","","call-function","359","1663669","0.0-359.0","xvd3jtq6","","","","","","","",""
"null","","","html-keyboard-response","360","1665170","0.0-360.0","xvd3jtq6","","<span style=""color:Black; font-size:50px;"">Agent A","null","","","","",""
"null","","","video-keyboard-response","361","1668279","0.0-361.0","xvd3jtq6","","","null","","Agent A","scrambled","STIM_SET_3/1160204.bmp_pp54_L2_V2_veridical_freeview_isoFalsemismatch_286001.bmp_L2_fps90.mp4",""
"null","","","html-keyboard-response","362","1669780","0.0-362.0","xvd3jtq6","","<span style=""color:Black; font-size:50px;"">Agent B","null","","","","",""
"null","","","video-keyboard-response","363","1672868","0.0-363.0","xvd3jtq6","","","null","","Agent B","veridical","STIM_SET_1_REAL/286001.bmp_pp54_L2_V1.0_veridical_freeview_isoFalse_fps144.mp4",""
"","","","call-function","364","1672869","0.0-364.0","xvd3jtq6","","","","","","","",""
"2931.809999999823","{""judgement"":1}","[0]","survey-likert","365","1675802","0.0-365.0","xvd3jtq6","","","","","","","","1"
"1240.6999999999534","{""confidence"":0}","[0]","survey-likert","366","1677046","0.0-366.0","xvd3jtq6","","","","","","","",""
"","","","call-function","367","1677047","0.0-367.0","xvd3jtq6","","","","","","","",""
"null","","","html-keyboard-response","368","1678553","0.0-368.0","xvd3jtq6","","<span style=""color:Black; font-size:50px;"">Agent A","null","","","","",""
"null","","","video-keyboard-response","369","1681640","0.0-369.0","xvd3jtq6","","","null","","Agent A","scrambled","STIM_SET_3/1592025.bmp_pp68_L1_V2_veridical_freeview_isoFalsemismatch_1592351.bmp_L1_fps90.mp4",""
"null","","","html-keyboard-response","370","1683143","0.0-370.0","xvd3jtq6","","<span style=""color:Black; font-size:50px;"">Agent B","null","","","","",""
"null","","","video-keyboard-response","371","1686207","0.0-371.0","xvd3jtq6","","","null","","Agent B","veridical","STIM_SET_1_REAL/1592351.bmp_pp51_L1_V1.0_veridical_freeview_isoFalse_fps144.mp4",""
"","","","call-function","372","1686208","0.0-372.0","xvd3jtq6","","","","","","","",""
"2224.394999999786","{""judgement"":1}","[0]","survey-likert","373","1688434","0.0-373.0","xvd3jtq6","","","","","","","","1"
"1428.3049999999348","{""confidence"":0}","[0]","survey-likert","374","1689864","0.0-374.0","xvd3jtq6","","","","","","","",""
"","","","call-function","375","1689865","0.0-375.0","xvd3jtq6","","","","","","","",""
"null","","","html-keyboard-response","376","1691366","0.0-376.0","xvd3jtq6","","<span style=""color:Black; font-size:50px;"">Agent A","null","","","","",""
"null","","","video-keyboard-response","377","1694443","0.0-377.0","xvd3jtq6","","","null","","Agent A","veridical","STIM_SET_1_REAL/498175.bmp_pp154_L1_V1.0_veridical_freeview_isoFalse_fps144.mp4",""
"null","","","html-keyboard-response","378","1695945","0.0-378.0","xvd3jtq6","","<span style=""color:Black; font-size:50px;"">Agent B","null","","","","",""
"null","","","video-keyboard-response","379","1699028","0.0-379.0","xvd3jtq6","","","null","","Agent B","scrambled","STIM_SET_3/713689.bmp_pp153_L3_V2_veridical_freeview_isoFalsemismatch_498175.bmp_L1_fps90.mp4",""
"","","","call-function","380","1699029","0.0-380.0","xvd3jtq6","","","","","","","",""
"23345.350000000093","{""judgement"":0}","[0]","survey-likert","381","1722375","0.0-381.0","xvd3jtq6","","","","","","","","0"
"11046.90000000014","{""confidence"":0}","[0]","survey-likert","382","1733424","0.0-382.0","xvd3jtq6","","","","","","","",""
"","","","call-function","383","1733424","0.0-383.0","xvd3jtq6","","","","","","","",""
"null","","","html-keyboard-response","384","1734928","0.0-384.0","xvd3jtq6","","<span style=""color:Black; font-size:50px;"">Agent A","null","","","","",""
"null","","","video-keyboard-response","385","1738037","0.0-385.0","xvd3jtq6","","","null","","Agent A","scrambled","STIM_SET_3/1591920.bmp_pp97_L3_V2_veridical_freeview_isoFalsemismatch_1592804.bmp_L3_fps90.mp4",""
"null","","","html-keyboard-response","386","1739544","0.0-386.0","xvd3jtq6","","<span style=""color:Black; font-size:50px;"">Agent B","null","","","","",""
"null","","","video-keyboard-response","387","1742649","0.0-387.0","xvd3jtq6","","","null","","Agent B","veridical","STIM_SET_1_REAL/1592804.bmp_pp91_L3_V1.0_veridical_freeview_isoFalse_fps144.mp4",""
"","","","call-function","388","1742650","0.0-388.0","xvd3jtq6","","","","","","","",""
"4788.875","{""judgement"":0}","[0]","survey-likert","389","1747439","0.0-389.0","xvd3jtq6","","","","","","","","1"
"1341.6000000000931","{""confidence"":0}","[0]","survey-likert","390","1748783","0.0-390.0","xvd3jtq6","","","","","","","",""
"","","","call-function","391","1748783","0.0-391.0","xvd3jtq6","","","","","","","",""
"null","","","html-keyboard-response","392","1750288","0.0-392.0","xvd3jtq6","","<span style=""color:Black; font-size:50px;"">Agent A","null","","","","",""
"null","","","video-keyboard-response","393","1753382","0.0-393.0","xvd3jtq6","","","null","","Agent A","scrambled","STIM_SET_3/1159874.bmp_pp96_L2_V2_veridical_freeview_isoFalsemismatch_1159515.bmp_L3_fps90.mp4",""
"null","","","html-keyboard-response","394","1754883","0.0-394.0","xvd3jtq6","","<span style=""color:Black; font-size:50px;"">Agent B","null","","","","",""
"null","","","video-keyboard-response","395","1757953","0.0-395.0","xvd3jtq6","","","null","","Agent B","veridical","STIM_SET_1_REAL/1159515.bmp_pp84_L3_V1.0_veridical_freeview_isoFalse_fps144.mp4",""
"","","","call-function","396","1757953","0.0-396.0","xvd3jtq6","","","","","","","",""
"2603.3349999999627","{""judgement"":1}","[0]","survey-likert","397","1760558","0.0-397.0","xvd3jtq6","","","","","","","","1"
"2291.535000000149","{""confidence"":0}","[0]","survey-likert","398","1762852","0.0-398.0","xvd3jtq6","","","","","","","",""
"","","","call-function","399","1762853","0.0-399.0","xvd3jtq6","","","","","","","",""
"null","","","html-keyboard-response","400","1764354","0.0-400.0","xvd3jtq6","","<span style=""color:Black; font-size:50px;"">Agent A","null","","","","",""
"null","","","video-keyboard-response","401","1767429","0.0-401.0","xvd3jtq6","","","null","","Agent A","veridical","STIM_SET_1_REAL/1160127.bmp_pp90_L2_V1.0_veridical_freeview_isoFalse_fps144.mp4",""
"null","","","html-keyboard-response","402","1768933","0.0-402.0","xvd3jtq6","","<span style=""color:Black; font-size:50px;"">Agent B","null","","","","",""
"null","","","video-keyboard-response","403","1772026","0.0-403.0","xvd3jtq6","","","null","","Agent B","scrambled","STIM_SET_3/498372.bmp_pp95_L2_V2_veridical_freeview_isoFalsemismatch_1160127.bmp_L2_fps90.mp4",""
"","","","call-function","404","1772026","0.0-404.0","xvd3jtq6","","","","","","","",""
"1783.130000000121","{""judgement"":0}","[0]","survey-likert","405","1773810","0.0-405.0","xvd3jtq6","","","","","","","","0"
"1064.9299999999348","{""confidence"":0}","[0]","survey-likert","406","1774877","0.0-406.0","xvd3jtq6","","","","","","","",""
"","","","call-function","407","1774878","0.0-407.0","xvd3jtq6","","","","","","","",""
"null","","","html-keyboard-response","408","1776380","0.0-408.0","xvd3jtq6","","<span style=""color:Black; font-size:50px;"">Agent A","null","","","","",""
"null","","","video-keyboard-response","409","1779479","0.0-409.0","xvd3jtq6","","","null","","Agent A","veridical","STIM_SET_1_REAL/1592581.bmp_pp100_L3_V1.0_veridical_freeview_isoFalse_fps144.mp4",""
"null","","","html-keyboard-response","410","1780984","0.0-410.0","xvd3jtq6","","<span style=""color:Black; font-size:50px;"">Agent B","null","","","","",""
"null","","","video-keyboard-response","411","1784095","0.0-411.0","xvd3jtq6","","","null","","Agent B","scrambled","STIM_SET_3/1160189.bmp_pp64_L1_V2_veridical_freeview_isoFalsemismatch_1592581.bmp_L3_fps90.mp4",""
"","","","call-function","412","1784097","0.0-412.0","xvd3jtq6","","","","","","","",""
"1931.0699999998324","{""judgement"":0}","[0]","survey-likert","413","1786030","0.0-413.0","xvd3jtq6","","","","","","","","0"
"2990.054999999935","{""confidence"":1}","[0]","survey-likert","414","1789022","0.0-414.0","xvd3jtq6","","","","","","","",""
"141662.82499999995","","","instructions","415","1930686","0.0-415.0","xvd3jtq6","[{""page_index"":0,""viewing_time"":1319.4650000000838},{""page_index"":1,""viewing_time"":139659.20499999984},{""page_index"":2,""viewing_time"":683.940000000177}]","","","","","","",""
"2157.8899999998976","","","instructions","416","1932845","0.0-416.0","xvd3jtq6","[{""page_index"":0,""viewing_time"":456.7050000000745},{""page_index"":1,""viewing_time"":1352.2099999999627},{""page_index"":2,""viewing_time"":348.8649999999907}]","","","","","","",""
"","","","call-function","417","1932846","0.0-417.0","xvd3jtq6","","","","","","","",""
"null","","","html-keyboard-response","418","1934348","0.0-418.0","xvd3jtq6","","<span style=""color:Black; font-size:50px;"">Agent A","null","","","","",""
"null","","","video-keyboard-response","419","1937442","0.0-419.0","xvd3jtq6","","","null","","Agent A","scrambled","STIM_SET_3/1592038.bmp_pp79_L2_V2_veridical_freeview_isoFalsemismatch_1592727.bmp_L3_fps90.mp4",""
"null","","","html-keyboard-response","420","1938945","0.0-420.0","xvd3jtq6","","<span style=""color:Black; font-size:50px;"">Agent B","null","","","","",""
"null","","","video-keyboard-response","421","1942019","0.0-421.0","xvd3jtq6","","","null","","Agent B","veridical","STIM_SET_1_REAL/1592727.bmp_pp59_L3_V1.0_veridical_freeview_isoFalse_fps144.mp4",""
"","","","call-function","422","1942020","0.0-422.0","xvd3jtq6","","","","","","","",""
"1744.6100000001024","{""judgement"":1}","[0]","survey-likert","423","1943766","0.0-423.0","xvd3jtq6","","","","","","","","1"
"1331.2900000000373","{""confidence"":0}","[0]","survey-likert","424","1945099","0.0-424.0","xvd3jtq6","","","","","","","",""
"","","","call-function","425","1945100","0.0-425.0","xvd3jtq6","","","","","","","",""
"null","","","html-keyboard-response","426","1946601","0.0-426.0","xvd3jtq6","","<span style=""color:Black; font-size:50px;"">Agent A","null","","","","",""
"null","","","video-keyboard-response","427","1949679","0.0-427.0","xvd3jtq6","","","null","","Agent A","scrambled","STIM_SET_3/1592150.bmp_pp77_L3_V2_veridical_freeview_isoFalsemismatch_1159447.bmp_L2_fps90.mp4",""
"null","","","html-keyboard-response","428","1951185","0.0-428.0","xvd3jtq6","","<span style=""color:Black; font-size:50px;"">Agent B","null","","","","",""
"null","","","video-keyboard-response","429","1954248","0.0-429.0","xvd3jtq6","","","null","","Agent B","veridical","STIM_SET_1_REAL/1159447.bmp_pp70_L2_V1.0_veridical_freeview_isoFalse_fps144.mp4",""
"","","","call-function","430","1954249","0.0-430.0","xvd3jtq6","","","","","","","",""
"3252.6099999998696","{""judgement"":0}","[0]","survey-likert","431","1957502","0.0-431.0","xvd3jtq6","","","","","","","","1"
"1494.969999999972","{""confidence"":0}","[0]","survey-likert","432","1958999","0.0-432.0","xvd3jtq6","","","","","","","",""
"","","","call-function","433","1959000","0.0-433.0","xvd3jtq6","","","","","","","",""
"null","","","html-keyboard-response","434","1960502","0.0-434.0","xvd3jtq6","","<span style=""color:Black; font-size:50px;"">Agent A","null","","","","",""
"null","","","video-keyboard-response","435","1963603","0.0-435.0","xvd3jtq6","","","null","","Agent A","veridical","STIM_SET_1_REAL/1159768.bmp_pp89_L1_V1.0_veridical_freeview_isoFalse_fps144.mp4",""
"null","","","html-keyboard-response","436","1965109","0.0-436.0","xvd3jtq6","","<span style=""color:Black; font-size:50px;"">Agent B","null","","","","",""
"null","","","video-keyboard-response","437","1968220","0.0-437.0","xvd3jtq6","","","null","","Agent B","scrambled","STIM_SET_3/713788.bmp_pp52_L1_V2_veridical_freeview_isoFalsemismatch_1159768.bmp_L1_fps90.mp4",""
"","","","call-function","438","1968221","0.0-438.0","xvd3jtq6","","","","","","","",""
"1540.6350000000093","{""judgement"":1}","[0]","survey-likert","439","1969762","0.0-439.0","xvd3jtq6","","","","","","","","0"
"1638.244999999879","{""confidence"":0}","[0]","survey-likert","440","1971402","0.0-440.0","xvd3jtq6","","","","","","","",""
"","","","call-function","441","1971403","0.0-441.0","xvd3jtq6","","","","","","","",""
"null","","","html-keyboard-response","442","1972907","0.0-442.0","xvd3jtq6","","<span style=""color:Black; font-size:50px;"">Agent A","null","","","","",""
"null","","","video-keyboard-response","443","1976005","0.0-443.0","xvd3jtq6","","","null","","Agent A","veridical","STIM_SET_1_REAL/61537.bmp_pp73_L3_V1.0_veridical_freeview_isoFalse_fps144.mp4",""
"null","","","html-keyboard-response","444","1977512","0.0-444.0","xvd3jtq6","","<span style=""color:Black; font-size:50px;"">Agent B","null","","","","",""
"null","","","video-keyboard-response","445","1980631","0.0-445.0","xvd3jtq6","","","null","","Agent B","scrambled","STIM_SET_3/713770.bmp_pp89_L1_V2_veridical_freeview_isoFalsemismatch_61537.bmp_L3_fps90.mp4",""
"","","","call-function","446","1980632","0.0-446.0","xvd3jtq6","","","","","","","",""
"2822.714999999851","{""judgement"":0}","[0]","survey-likert","447","1983457","0.0-447.0","xvd3jtq6","","","","","","","","0"
"1967.6450000000186","{""confidence"":0}","[0]","survey-likert","448","1985427","0.0-448.0","xvd3jtq6","","","","","","","",""
"","","","call-function","449","1985429","0.0-449.0","xvd3jtq6","","","","","","","",""
"null","","","html-keyboard-response","450","1986932","0.0-450.0","xvd3jtq6","","<span style=""color:Black; font-size:50px;"">Agent A","null","","","","",""
"null","","","video-keyboard-response","451","1990004","0.0-451.0","xvd3jtq6","","","null","","Agent A","veridical","STIM_SET_1_REAL/1160168.bmp_pp53_L2_V1.0_veridical_freeview_isoFalse_fps144.mp4",""
"null","","","html-keyboard-response","452","1991506","0.0-452.0","xvd3jtq6","","<span style=""color:Black; font-size:50px;"">Agent B","null","","","","",""
"null","","","video-keyboard-response","453","1994590","0.0-453.0","xvd3jtq6","","","null","","Agent B","scrambled","STIM_SET_3/1592857.bmp_pp52_L1_V2_veridical_freeview_isoFalsemismatch_1160168.bmp_L2_fps90.mp4",""
"","","","call-function","454","1994591","0.0-454.0","xvd3jtq6","","","","","","","",""
"5029.84999999986","{""judgement"":0}","[0]","survey-likert","455","1999622","0.0-455.0","xvd3jtq6","","","","","","","","0"
"1740.9150000000373","{""confidence"":0}","[0]","survey-likert","456","2001365","0.0-456.0","xvd3jtq6","","","","","","","",""
"","","","call-function","457","2001366","0.0-457.0","xvd3jtq6","","","","","","","",""
"null","","","html-keyboard-response","458","2002868","0.0-458.0","xvd3jtq6","","<span style=""color:Black; font-size:50px;"">Agent A","null","","","","",""
"null","","","video-keyboard-response","459","2005941","0.0-459.0","xvd3jtq6","","","null","","Agent A","veridical","STIM_SET_1_REAL/1592397.bmp_pp85_L3_V1.0_veridical_freeview_isoFalse_fps144.mp4",""
"null","","","html-keyboard-response","460","2007442","0.0-460.0","xvd3jtq6","","<span style=""color:Black; font-size:50px;"">Agent B","null","","","","",""
"null","","","video-keyboard-response","461","2010537","0.0-461.0","xvd3jtq6","","","null","","Agent B","scrambled","STIM_SET_3/713790.bmp_pp100_L3_V2_veridical_freeview_isoFalsemismatch_1592397.bmp_L3_fps90.mp4",""
"","","","call-function","462","2010538","0.0-462.0","xvd3jtq6","","","","","","","",""
"1800.25","{""judgement"":1}","[0]","survey-likert","463","2012339","0.0-463.0","xvd3jtq6","","","","","","","","0"
"1381.5999999998603","{""confidence"":0}","[0]","survey-likert","464","2013722","0.0-464.0","xvd3jtq6","","","","","","","",""
"","","","call-function","465","2013723","0.0-465.0","xvd3jtq6","","","","","","","",""
"null","","","html-keyboard-response","466","2015228","0.0-466.0","xvd3jtq6","","<span style=""color:Black; font-size:50px;"">Agent A","null","","","","",""
"null","","","video-keyboard-response","467","2018321","0.0-467.0","xvd3jtq6","","","null","","Agent A","veridical","STIM_SET_1_REAL/497950.bmp_pp151_L1_V1.0_veridical_freeview_isoFalse_fps144.mp4",""
"null","","","html-keyboard-response","468","2019824","0.0-468.0","xvd3jtq6","","<span style=""color:Black; font-size:50px;"">Agent B","null","","","","",""
"null","","","video-keyboard-response","469","2022936","0.0-469.0","xvd3jtq6","","","null","","Agent B","scrambled","STIM_SET_3/713274.bmp_pp73_L3_V2_veridical_freeview_isoFalsemismatch_497950.bmp_L1_fps90.mp4",""
"","","","call-function","470","2022937","0.0-470.0","xvd3jtq6","","","","","","","",""
"36158.62000000011","{""judgement"":0}","[0]","survey-likert","471","2059097","0.0-471.0","xvd3jtq6","","","","","","","","0"
"1149.1500000001397","{""confidence"":0}","[0]","survey-likert","472","2060247","0.0-472.0","xvd3jtq6","","","","","","","",""
"","","","call-function","473","2060248","0.0-473.0","xvd3jtq6","","","","","","","",""
"null","","","html-keyboard-response","474","2061750","0.0-474.0","xvd3jtq6","","<span style=""color:Black; font-size:50px;"">Agent A","null","","","","",""
"null","","","video-keyboard-response","475","2064838","0.0-475.0","xvd3jtq6","","","null","","Agent A","scrambled","STIM_SET_3/713858.bmp_pp57_L1_V2_veridical_freeview_isoFalsemismatch_713749.bmp_L2_fps90.mp4",""
"null","","","html-keyboard-response","476","2066340","0.0-476.0","xvd3jtq6","","<span style=""color:Black; font-size:50px;"">Agent B","null","","","","",""
"null","","","video-keyboard-response","477","2069417","0.0-477.0","xvd3jtq6","","","null","","Agent B","veridical","STIM_SET_1_REAL/713749.bmp_pp88_L2_V1.0_veridical_freeview_isoFalse_fps144.mp4",""
"","","","call-function","478","2069418","0.0-478.0","xvd3jtq6","","","","","","","",""
"1680.2050000000745","{""judgement"":0}","[0]","survey-likert","479","2071099","0.0-479.0","xvd3jtq6","","","","","","","","1"
"1221.0749999999534","{""confidence"":0}","[0]","survey-likert","480","2072321","0.0-480.0","xvd3jtq6","","","","","","","",""
"","","","call-function","481","2072322","0.0-481.0","xvd3jtq6","","","","","","","",""
"null","","","html-keyboard-response","482","2073824","0.0-482.0","xvd3jtq6","","<span style=""color:Black; font-size:50px;"">Agent A","null","","","","",""
"null","","","video-keyboard-response","483","2076901","0.0-483.0","xvd3jtq6","","","null","","Agent A","scrambled","STIM_SET_3/1592129.bmp_pp153_L3_V2_veridical_freeview_isoFalsemismatch_1159813.bmp_L2_fps90.mp4",""
"null","","","html-keyboard-response","484","2078403","0.0-484.0","xvd3jtq6","","<span style=""color:Black; font-size:50px;"">Agent B","null","","","","",""
"null","","","video-keyboard-response","485","2081495","0.0-485.0","xvd3jtq6","","","null","","Agent B","veridical","STIM_SET_1_REAL/1159813.bmp_pp79_L2_V1.0_veridical_freeview_isoFalse_fps144.mp4",""
"","","","call-function","486","2081496","0.0-486.0","xvd3jtq6","","","","","","","",""
"4094.659999999916","{""judgement"":0}","[0]","survey-likert","487","2085593","0.0-487.0","xvd3jtq6","","","","","","","","1"
"196599.44000000018","{""confidence"":0}","[0]","survey-likert","488","2282195","0.0-488.0","xvd3jtq6","","","","","","","",""
"","","","call-function","489","2282196","0.0-489.0","xvd3jtq6","","","","","","","",""
"null","","","html-keyboard-response","490","2283699","0.0-490.0","xvd3jtq6","","<span style=""color:Black; font-size:50px;"">Agent A","null","","","","",""
"null","","","video-keyboard-response","491","2286778","0.0-491.0","xvd3jtq6","","","null","","Agent A","veridical","STIM_SET_1_REAL/713593.bmp_pp64_L1_V1.0_veridical_freeview_isoFalse_fps144.mp4",""
"null","","","html-keyboard-response","492","2288280","0.0-492.0","xvd3jtq6","","<span style=""color:Black; font-size:50px;"">Agent B","null","","","","",""
"null","","","video-keyboard-response","493","2291385","0.0-493.0","xvd3jtq6","","","null","","Agent B","scrambled","STIM_SET_3/1592747.bmp_pp53_L2_V2_veridical_freeview_isoFalsemismatch_713593.bmp_L1_fps90.mp4",""
"","","","call-function","494","2291386","0.0-494.0","xvd3jtq6","","","","","","","",""
"1722.5900000003166","{""judgement"":1}","[0]","survey-likert","495","2293110","0.0-495.0","xvd3jtq6","","","","","","","","0"
"1475.8950000000186","{""confidence"":0}","[0]","survey-likert","496","2294587","0.0-496.0","xvd3jtq6","","","","","","","",""
"2031.2400000002235","","","instructions","497","2296619","0.0-497.0","xvd3jtq6","[{""page_index"":0,""viewing_time"":1057.2299999999814},{""page_index"":1,""viewing_time"":579.0200000000186},{""page_index"":2,""viewing_time"":394.8300000000745}]","","","","","","",""
"1416.785000000149","","","instructions","498","2298037","0.0-498.0","xvd3jtq6","[{""page_index"":0,""viewing_time"":447.52499999990687},{""page_index"":1,""viewing_time"":520.910000000149},{""page_index"":2,""viewing_time"":448.22500000009313}]","","","","","","",""
"","","","call-function","499","2298038","0.0-499.0","xvd3jtq6","","","","","","","",""
"null","","","html-keyboard-response","500","2299543","0.0-500.0","xvd3jtq6","","<span style=""color:Black; font-size:50px;"">Agent A","null","","","","",""
"null","","","video-keyboard-response","501","2302613","0.0-501.0","xvd3jtq6","","","null","","Agent A","veridical","STIM_SET_1_REAL/1159829.bmp_pp91_L3_V1.0_veridical_freeview_isoFalse_fps144.mp4",""
"null","","","html-keyboard-response","502","2304117","0.0-502.0","xvd3jtq6","","<span style=""color:Black; font-size:50px;"">Agent B","null","","","","",""
"null","","","video-keyboard-response","503","2307205","0.0-503.0","xvd3jtq6","","","null","","Agent B","scrambled","STIM_SET_3/1159956.bmp_pp59_L3_V2_veridical_freeview_isoFalsemismatch_1159829.bmp_L3_fps90.mp4",""
"","","","call-function","504","2307206","0.0-504.0","xvd3jtq6","","","","","","","",""
"4110.3849999997765","{""judgement"":0}","[0]","survey-likert","505","2311317","0.0-505.0","xvd3jtq6","","","","","","","","0"
"1339.5049999998882","{""confidence"":0}","[0]","survey-likert","506","2312658","0.0-506.0","xvd3jtq6","","","","","","","",""
"","","","call-function","507","2312659","0.0-507.0","xvd3jtq6","","","","","","","",""
"null","","","html-keyboard-response","508","2314162","0.0-508.0","xvd3jtq6","","<span style=""color:Black; font-size:50px;"">Agent A","null","","","","",""
"null","","","video-keyboard-response","509","2317269","0.0-509.0","xvd3jtq6","","","null","","Agent A","scrambled","STIM_SET_3/150463.bmp_pp55_L3_V2_veridical_freeview_isoFalsemismatch_1592619.bmp_L3_fps90.mp4",""
"null","","","html-keyboard-response","510","2318772","0.0-510.0","xvd3jtq6","","<span style=""color:Black; font-size:50px;"">Agent B","null","","","","",""
"null","","","video-keyboard-response","511","2321862","0.0-511.0","xvd3jtq6","","","null","","Agent B","veridical","STIM_SET_1_REAL/1592619.bmp_pp56_L3_V1.0_veridical_freeview_isoFalse_fps144.mp4",""
"","","","call-function","512","2321863","0.0-512.0","xvd3jtq6","","","","","","","",""
"1986.179999999702","{""judgement"":0}","[0]","survey-likert","513","2323850","0.0-513.0","xvd3jtq6","","","","","","","","1"
"1389.3849999997765","{""confidence"":0}","[0]","survey-likert","514","2325241","0.0-514.0","xvd3jtq6","","","","","","","",""
"","","","call-function","515","2325241","0.0-515.0","xvd3jtq6","","","","","","","",""
"null","","","html-keyboard-response","516","2326743","0.0-516.0","xvd3jtq6","","<span style=""color:Black; font-size:50px;"">Agent A","null","","","","",""
"null","","","video-keyboard-response","517","2329831","0.0-517.0","xvd3jtq6","","","null","","Agent A","veridical","STIM_SET_1_REAL/713403.bmp_pp80_L3_V1.0_veridical_freeview_isoFalse_fps144.mp4",""
"null","","","html-keyboard-response","518","2331333","0.0-518.0","xvd3jtq6","","<span style=""color:Black; font-size:50px;"">Agent B","null","","","","",""
"null","","","video-keyboard-response","519","2334439","0.0-519.0","xvd3jtq6","","","null","","Agent B","scrambled","STIM_SET_3/286034.bmp_pp69_L3_V2_veridical_freeview_isoFalsemismatch_713403.bmp_L3_fps90.mp4",""
"","","","call-function","520","2334440","0.0-520.0","xvd3jtq6","","","","","","","",""
"3387.875","{""judgement"":1}","[0]","survey-likert","521","2337829","0.0-521.0","xvd3jtq6","","","","","","","","0"
"1187.5200000000186","{""confidence"":0}","[0]","survey-likert","522","2339018","0.0-522.0","xvd3jtq6","","","","","","","",""
"","","","call-function","523","2339019","0.0-523.0","xvd3jtq6","","","","","","","",""
"null","","","html-keyboard-response","524","2340522","0.0-524.0","xvd3jtq6","","<span style=""color:Black; font-size:50px;"">Agent A","null","","","","",""
"null","","","video-keyboard-response","525","2343635","0.0-525.0","xvd3jtq6","","","null","","Agent A","veridical","STIM_SET_1_REAL/1593041.bmp_pp58_L1_V1.0_veridical_freeview_isoFalse_fps144.mp4",""
"null","","","html-keyboard-response","526","2345137","0.0-526.0","xvd3jtq6","","<span style=""color:Black; font-size:50px;"">Agent B","null","","","","",""
"null","","","video-keyboard-response","527","2348255","0.0-527.0","xvd3jtq6","","","null","","Agent B","scrambled","STIM_SET_3/1591781.bmp_pp63_L1_V2_veridical_freeview_isoFalsemismatch_1593041.bmp_L1_fps90.mp4",""
"","","","call-function","528","2348257","0.0-528.0","xvd3jtq6","","","","","","","",""
"3148.8250000001863","{""judgement"":0}","[0]","survey-likert","529","2351408","0.0-529.0","xvd3jtq6","","","","","","","","0"
"2687.725000000093","{""confidence"":0}","[0]","survey-likert","530","2354098","0.0-530.0","xvd3jtq6","","","","","","","",""
"","","","call-function","531","2354100","0.0-531.0","xvd3jtq6","","","","","","","",""
"null","","","html-keyboard-response","532","2355603","0.0-532.0","xvd3jtq6","","<span style=""color:Black; font-size:50px;"">Agent A","null","","","","",""
"null","","","video-keyboard-response","533","2358671","0.0-533.0","xvd3jtq6","","","null","","Agent A","veridical","STIM_SET_1_REAL/1592817.bmp_pp55_L3_V1.0_veridical_freeview_isoFalse_fps144.mp4",""
"null","","","html-keyboard-response","534","2360173","0.0-534.0","xvd3jtq6","","<span style=""color:Black; font-size:50px;"">Agent B","null","","","","",""
"null","","","video-keyboard-response","535","2363260","0.0-535.0","xvd3jtq6","","","null","","Agent B","scrambled","STIM_SET_3/1159329.bmp_pp61_L2_V2_veridical_freeview_isoFalsemismatch_1592817.bmp_L3_fps90.mp4",""
"","","","call-function","536","2363261","0.0-536.0","xvd3jtq6","","","","","","","",""
"9198.729999999981","{""judgement"":0}","[0]","survey-likert","537","2372462","0.0-537.0","xvd3jtq6","","","","","","","","0"
"1200.2400000002235","{""confidence"":0}","[0]","survey-likert","538","2373665","0.0-538.0","xvd3jtq6","","","","","","","",""
"","","","call-function","539","2373666","0.0-539.0","xvd3jtq6","","","","","","","",""
"null","","","html-keyboard-response","540","2375172","0.0-540.0","xvd3jtq6","","<span style=""color:Black; font-size:50px;"">Agent A","null","","","","",""
"null","","","video-keyboard-response","541","2378238","0.0-541.0","xvd3jtq6","","","null","","Agent A","veridical","STIM_SET_1_REAL/713681.bmp_pp86_L2_V1.0_veridical_freeview_isoFalse_fps144.mp4",""
"null","","","html-keyboard-response","542","2379742","0.0-542.0","xvd3jtq6","","<span style=""color:Black; font-size:50px;"">Agent B","null","","","","",""
"null","","","video-keyboard-response","543","2382902","0.0-543.0","xvd3jtq6","","","null","","Agent B","scrambled","STIM_SET_3/498025.bmp_pp81_L1_V2_veridical_freeview_isoFalsemismatch_713681.bmp_L2_fps90.mp4",""
"","","","call-function","544","2382903","0.0-544.0","xvd3jtq6","","","","","","","",""
"2966.149999999907","{""judgement"":1}","[0]","survey-likert","545","2385871","0.0-545.0","xvd3jtq6","","","","","","","","0"
"1686.779999999795","{""confidence"":0}","[0]","survey-likert","546","2387559","0.0-546.0","xvd3jtq6","","","","","","","",""
"","","","call-function","547","2387560","0.0-547.0","xvd3jtq6","","","","","","","",""
"null","","","html-keyboard-response","548","2389065","0.0-548.0","xvd3jtq6","","<span style=""color:Black; font-size:50px;"">Agent A","null","","","","",""
"null","","","video-keyboard-response","549","2392170","0.0-549.0","xvd3jtq6","","","null","","Agent A","veridical","STIM_SET_1_REAL/498111.bmp_pp88_L2_V1.0_veridical_freeview_isoFalse_fps144.mp4",""
"null","","","html-keyboard-response","550","2393675","0.0-550.0","xvd3jtq6","","<span style=""color:Black; font-size:50px;"">Agent B","null","","","","",""
"null","","","video-keyboard-response","551","2396790","0.0-551.0","xvd3jtq6","","","null","","Agent B","scrambled","STIM_SET_3/1592350.bmp_pp55_L3_V2_veridical_freeview_isoFalsemismatch_498111.bmp_L2_fps90.mp4",""
"","","","call-function","552","2396791","0.0-552.0","xvd3jtq6","","","","","","","",""
"3582.4799999999814","{""judgement"":1}","[0]","survey-likert","553","2400374","0.0-553.0","xvd3jtq6","","","","","","","","0"
"1184.3899999996647","{""confidence"":0}","[0]","survey-likert","554","2401560","0.0-554.0","xvd3jtq6","","","","","","","",""
"","","","call-function","555","2401561","0.0-555.0","xvd3jtq6","","","","","","","",""
"null","","","html-keyboard-response","556","2403064","0.0-556.0","xvd3jtq6","","<span style=""color:Black; font-size:50px;"">Agent A","null","","","","",""
"null","","","video-keyboard-response","557","2406178","0.0-557.0","xvd3jtq6","","","null","","Agent A","scrambled","STIM_SET_3/713328.bmp_pp86_L2_V2_veridical_freeview_isoFalsemismatch_1591994.bmp_L3_fps90.mp4",""
"null","","","html-keyboard-response","558","2407682","0.0-558.0","xvd3jtq6","","<span style=""color:Black; font-size:50px;"">Agent B","null","","","","",""
"null","","","video-keyboard-response","559","2410788","0.0-559.0","xvd3jtq6","","","null","","Agent B","veridical","STIM_SET_1_REAL/1591994.bmp_pp69_L3_V1.0_veridical_freeview_isoFalse_fps144.mp4",""
"","","","call-function","560","2410789","0.0-560.0","xvd3jtq6","","","","","","","",""
"3377.5550000001676","{""judgement"":0}","[0]","survey-likert","561","2414168","0.0-561.0","xvd3jtq6","","","","","","","","1"
"1526.8600000003353","{""confidence"":0}","[0]","survey-likert","562","2415696","0.0-562.0","xvd3jtq6","","","","","","","",""
"","","","call-function","563","2415697","0.0-563.0","xvd3jtq6","","","","","","","",""
"null","","","html-keyboard-response","564","2417204","0.0-564.0","xvd3jtq6","","<span style=""color:Black; font-size:50px;"">Agent A","null","","","","",""
"null","","","video-keyboard-response","565","2420297","0.0-565.0","xvd3jtq6","","","null","","Agent A","veridical","STIM_SET_1_REAL/1592133.bmp_pp75_L1_V1.0_veridical_freeview_isoFalse_fps144.mp4",""
"null","","","html-keyboard-response","566","2421800","0.0-566.0","xvd3jtq6","","<span style=""color:Black; font-size:50px;"">Agent B","null","","","","",""
"null","","","video-keyboard-response","567","2424896","0.0-567.0","xvd3jtq6","","","null","","Agent B","scrambled","STIM_SET_3/1160247.bmp_pp54_L2_V2_veridical_freeview_isoFalsemismatch_1592133.bmp_L1_fps90.mp4",""
"","","","call-function","568","2424897","0.0-568.0","xvd3jtq6","","","","","","","",""
"1665.369999999646","{""judgement"":0}","[0]","survey-likert","569","2426563","0.0-569.0","xvd3jtq6","","","","","","","","0"
"1114.5249999999069","{""confidence"":0}","[0]","survey-likert","570","2427679","0.0-570.0","xvd3jtq6","","","","","","","",""
"","","","call-function","571","2427680","0.0-571.0","xvd3jtq6","","","","","","","",""
"null","","","html-keyboard-response","572","2429184","0.0-572.0","xvd3jtq6","","<span style=""color:Black; font-size:50px;"">Agent A","null","","","","",""
"null","","","video-keyboard-response","573","2432263","0.0-573.0","xvd3jtq6","","","null","","Agent A","veridical","STIM_SET_1_REAL/1591876.bmp_pp63_L1_V1.0_veridical_freeview_isoFalse_fps144.mp4",""
"null","","","html-keyboard-response","574","2433765","0.0-574.0","xvd3jtq6","","<span style=""color:Black; font-size:50px;"">Agent B","null","","","","",""
"null","","","video-keyboard-response","575","2436870","0.0-575.0","xvd3jtq6","","","null","","Agent B","scrambled","STIM_SET_3/1159427.bmp_pp98_L1_V2_veridical_freeview_isoFalsemismatch_1591876.bmp_L1_fps90.mp4",""
"","","","call-function","576","2436871","0.0-576.0","xvd3jtq6","","","","","","","",""
"2228.19000000041","{""judgement"":0}","[0]","survey-likert","577","2439100","0.0-577.0","xvd3jtq6","","","","","","","","0"
"2080.429999999702","{""confidence"":0}","[0]","survey-likert","578","2441182","0.0-578.0","xvd3jtq6","","","","","","","",""
"2263.220000000205","","","instructions","579","2443447","0.0-579.0","xvd3jtq6","[{""page_index"":0,""viewing_time"":2263.0750000001863}]","","","","","","",""
"2379.7700000000186","","","instructions","580","2445827","0.0-580.0","xvd3jtq6","[{""page_index"":0,""viewing_time"":2379.6599999996834}]","","","","","","",""
"10742.805000000168","{""post-1"":1}","[0]","survey-likert","581","2456572","0.0-581.0","xvd3jtq6","","","","","","","",""
"11477.329999999609","{""post-1"":0}","[0]","survey-likert","582","2468052","0.0-582.0","xvd3jtq6","","","","","","","",""
"6400.504999999888","{""post-2"":1}","[0]","survey-likert","583","2474455","0.0-583.0","xvd3jtq6","","","","","","","",""
"2047.8250000001863","{""post-2"":1}","[0]","survey-likert","584","2476505","0.0-584.0","xvd3jtq6","","","","","","","",""
"4658.805000000168","{""post-3"":1}","[0]","survey-likert","585","2481166","0.0-585.0","xvd3jtq6","","","","","","","",""
"4813.774999999907","{""post-3"":0}","[0]","survey-likert","586","2485981","0.0-586.0","xvd3jtq6","","","","","","","",""
"4836.405000000261","{""post-4"":2}","[0]","survey-likert","587","2490820","0.0-587.0","xvd3jtq6","","","","","","","",""
"1492.4350000000559","{""post-4"":0}","[0]","survey-likert","588","2492315","0.0-588.0","xvd3jtq6","","","","","","","",""
"6280.770000000019","{""post-5"":0}","[0]","survey-likert","589","2498597","0.0-589.0","xvd3jtq6","","","","","","","",""
"2242.7099999999627","{""post-5"":2}","[0]","survey-likert","590","2500843","0.0-590.0","xvd3jtq6","","","","","","","",""
"52811.19000000041","{""Q0"":""wording of the initial instructions were a bit confusing to me, and I had to read them twice""}","","survey-text","591","2553659","0.0-591.0","xvd3jtq6","","","","","","","",""
"30913.64000000013","{""Q0"":""i said the attention was human if there was a lot of focus on words or faces or if it felt natural""}","","survey-text","592","2584578","0.0-592.0","xvd3jtq6","","","","","","","",""
"9403.819999999832","{""Q0"":""some of the pairs looked similar""}","","survey-text","593","2593986","0.0-593.0","xvd3jtq6","","","","","","","",""
"1803.130000000354","","","instructions","594","2595790","0.0-594.0","xvd3jtq6","[{""page_index"":0,""viewing_time"":1802.970000000205}]","","","","","","",""
"89117.38499999978","{""Experimenter_end"":[""Printed ID# xvd3jtq6 on consent form"",""Given subject SONA credit or payment"",""Given the subject debrief form""]}","[0]","survey-multi-select","595","2684910","0.0-595.0","xvd3jtq6","","","","","","","",""
