"rt","responses","question_order","trial_type","trial_index","time_elapsed","internal_node_id","ID","view_history","stimulus","key_press","value","agent","condition","image","correct_answer"
"8984.470000000001","{""Experimenter"":[""Confirmed subject's identity"",""Confirmed normal or corrected-to-normal vision"",""Obtained consent (signature and date)"",""Checked the test room lighting"",""Checked computer screen lighting"",""Checked distance from screen to chin rest (50cm)"",""Cleaned and adjusted chin rest"",""Counterbalanced the order of the tasks"",""Opened the experiment in Firefox"",""Made the experiment full screen"",""Encouraged subject to silence phone, put away distractors, etc.""]}","[0]","survey-multi-select","0","8993","0.0-0.0","y3bp5sq0","","","","","","","",""
"19066.15","","","instructions","1","28060","0.0-1.0","y3bp5sq0","[{""page_index"":0,""viewing_time"":19065.589999999997}]","","","","","","",""
"9011.779999999999","","","instructions","2","37073","0.0-2.0","y3bp5sq0","[{""page_index"":0,""viewing_time"":4157.100000000002},{""page_index"":1,""viewing_time"":1126.4699999999975},{""page_index"":2,""viewing_time"":3728.090000000004}]","","","","","","",""
"2409.814999999995","","","instructions","3","39484","0.0-3.0","y3bp5sq0","[{""page_index"":0,""viewing_time"":2409.709999999999}]","","","","","","",""
"null","","","video-keyboard-response","4","42556","0.0-4.0","y3bp5sq0","","","null","","","","",""
"9692.735","","","instructions","5","52249","0.0-5.0","y3bp5sq0","[{""page_index"":0,""viewing_time"":1924.6549999999988},{""page_index"":1,""viewing_time"":2386.909999999996},{""page_index"":2,""viewing_time"":5381.065000000002}]","","","","","","",""
"2129.4749999999985","","","instructions","6","54379","0.0-6.0","y3bp5sq0","[{""page_index"":0,""viewing_time"":2129.3700000000026}]","","","","","","",""
"1064.739999999998","","","instructions","7","55444","0.0-7.0","y3bp5sq0","[{""page_index"":0,""viewing_time"":1064.5199999999968}]","","","","","","",""
"null","","","video-keyboard-response","8","58517","0.0-8.0","y3bp5sq0","","","null","","","","",""
"19270.694999999992","","","instructions","9","77788","0.0-9.0","y3bp5sq0","[{""page_index"":0,""viewing_time"":1360.979999999996},{""page_index"":1,""viewing_time"":5678.430000000008},{""page_index"":2,""viewing_time"":12231.149999999994}]","","","","","","",""
"2570.5050000000047","","","instructions","10","80359","0.0-10.0","y3bp5sq0","[{""page_index"":0,""viewing_time"":2570.395000000004}]","","","","","","",""
"","","","call-function","11","80360","0.0-11.0","y3bp5sq0","","","","","","","",""
"null","","","html-keyboard-response","12","81862","0.0-12.0","y3bp5sq0","","<span style=""color:Black; font-size:50px;"">Agent A","null","","","","",""
"null","","","video-keyboard-response","13","84929","0.0-13.0","y3bp5sq0","","","null","","Agent A","scrambled","STIM_SET_2/285932.bmp_pp64_L1_V1.0_scrambled_freeview_isoTrue.mp4",""
"null","","","html-keyboard-response","14","86432","0.0-14.0","y3bp5sq0","","<span style=""color:Black; font-size:50px;"">Agent B","null","","","","",""
"null","","","video-keyboard-response","15","89499","0.0-15.0","y3bp5sq0","","","null","","Agent B","veridical","STIM_SET_2/285932.bmp_pp64_L1_V1.0_veridical_freeview_isoTrue.mp4",""
"","","","call-function","16","89499","0.0-16.0","y3bp5sq0","","","","","","","",""
"3908.5449999999983","{""judgement"":0}","[0]","survey-likert","17","93409","0.0-17.0","y3bp5sq0","","","","","","","","1"
"1696.7049999999872","{""confidence"":1}","[0]","survey-likert","18","95107","0.0-18.0","y3bp5sq0","","","","","","","",""
"","","","call-function","19","95107","0.0-19.0","y3bp5sq0","","","","","","","",""
"null","","","html-keyboard-response","20","96610","0.0-20.0","y3bp5sq0","","<span style=""color:Black; font-size:50px;"">Agent A","null","","","","",""
"null","","","video-keyboard-response","21","99705","0.0-21.0","y3bp5sq0","","","null","","Agent A","veridical","STIM_SET_2/1592567.bmp_pp70_L2_V1.0_veridical_freeview_isoTrue.mp4",""
"null","","","html-keyboard-response","22","101208","0.0-22.0","y3bp5sq0","","<span style=""color:Black; font-size:50px;"">Agent B","null","","","","",""
"null","","","video-keyboard-response","23","104296","0.0-23.0","y3bp5sq0","","","null","","Agent B","scrambled","STIM_SET_2/1592567.bmp_pp70_L2_V1.0_scrambled_freeview_isoTrue.mp4",""
"","","","call-function","24","104296","0.0-24.0","y3bp5sq0","","","","","","","",""
"5829.225000000006","{""judgement"":1}","[0]","survey-likert","25","110126","0.0-25.0","y3bp5sq0","","","","","","","","0"
"1349.340000000011","{""confidence"":0}","[0]","survey-likert","26","111477","0.0-26.0","y3bp5sq0","","","","","","","",""
"","","","call-function","27","111477","0.0-27.0","y3bp5sq0","","","","","","","",""
"null","","","html-keyboard-response","28","112979","0.0-28.0","y3bp5sq0","","<span style=""color:Black; font-size:50px;"">Agent A","null","","","","",""
"null","","","video-keyboard-response","29","116044","0.0-29.0","y3bp5sq0","","","null","","Agent A","veridical","STIM_SET_2/713829.bmp_pp60_L3_V1.0_veridical_freeview_isoTrue.mp4",""
"null","","","html-keyboard-response","30","117548","0.0-30.0","y3bp5sq0","","<span style=""color:Black; font-size:50px;"">Agent B","null","","","","",""
"null","","","video-keyboard-response","31","120641","0.0-31.0","y3bp5sq0","","","null","","Agent B","scrambled","STIM_SET_2/713829.bmp_pp60_L3_V1.0_scrambled_freeview_isoTrue.mp4",""
"","","","call-function","32","120642","0.0-32.0","y3bp5sq0","","","","","","","",""
"1649.99500000001","{""judgement"":0}","[0]","survey-likert","33","122293","0.0-33.0","y3bp5sq0","","","","","","","","0"
"1371.215000000011","{""confidence"":0}","[0]","survey-likert","34","123665","0.0-34.0","y3bp5sq0","","","","","","","",""
"","","","call-function","35","123665","0.0-35.0","y3bp5sq0","","","","","","","",""
"null","","","html-keyboard-response","36","125167","0.0-36.0","y3bp5sq0","","<span style=""color:Black; font-size:50px;"">Agent A","null","","","","",""
"null","","","video-keyboard-response","37","128245","0.0-37.0","y3bp5sq0","","","null","","Agent A","scrambled","STIM_SET_2/1159592.bmp_pp91_L3_V1.0_scrambled_freeview_isoTrue.mp4",""
"null","","","html-keyboard-response","38","129747","0.0-38.0","y3bp5sq0","","<span style=""color:Black; font-size:50px;"">Agent B","null","","","","",""
"null","","","video-keyboard-response","39","132852","0.0-39.0","y3bp5sq0","","","null","","Agent B","veridical","STIM_SET_2/1159592.bmp_pp91_L3_V1.0_veridical_freeview_isoTrue.mp4",""
"","","","call-function","40","132852","0.0-40.0","y3bp5sq0","","","","","","","",""
"1432.4599999999919","{""judgement"":1}","[0]","survey-likert","41","134286","0.0-41.0","y3bp5sq0","","","","","","","","1"
"938.8999999999942","{""confidence"":0}","[0]","survey-likert","42","135226","0.0-42.0","y3bp5sq0","","","","","","","",""
"","","","call-function","43","135226","0.0-43.0","y3bp5sq0","","","","","","","",""
"null","","","html-keyboard-response","44","136730","0.0-44.0","y3bp5sq0","","<span style=""color:Black; font-size:50px;"">Agent A","null","","","","",""
"null","","","video-keyboard-response","45","139837","0.0-45.0","y3bp5sq0","","","null","","Agent A","veridical","STIM_SET_2/498396.bmp_pp99_L2_V1.0_veridical_freeview_isoTrue.mp4",""
"null","","","html-keyboard-response","46","141341","0.0-46.0","y3bp5sq0","","<span style=""color:Black; font-size:50px;"">Agent B","null","","","","",""
"null","","","video-keyboard-response","47","144442","0.0-47.0","y3bp5sq0","","","null","","Agent B","scrambled","STIM_SET_2/498396.bmp_pp99_L2_V1.0_scrambled_freeview_isoTrue.mp4",""
"","","","call-function","48","144442","0.0-48.0","y3bp5sq0","","","","","","","",""
"1590.3949999999895","{""judgement"":0}","[0]","survey-likert","49","146034","0.0-49.0","y3bp5sq0","","","","","","","","0"
"1186.5350000000035","{""confidence"":1}","[0]","survey-likert","50","147221","0.0-50.0","y3bp5sq0","","","","","","","",""
"","","","call-function","51","147222","0.0-51.0","y3bp5sq0","","","","","","","",""
"null","","","html-keyboard-response","52","148723","0.0-52.0","y3bp5sq0","","<span style=""color:Black; font-size:50px;"">Agent A","null","","","","",""
"null","","","video-keyboard-response","53","151799","0.0-53.0","y3bp5sq0","","","null","","Agent A","veridical","STIM_SET_2/498025.bmp_pp81_L1_V1.0_veridical_freeview_isoTrue.mp4",""
"null","","","html-keyboard-response","54","153303","0.0-54.0","y3bp5sq0","","<span style=""color:Black; font-size:50px;"">Agent B","null","","","","",""
"null","","","video-keyboard-response","55","156384","0.0-55.0","y3bp5sq0","","","null","","Agent B","scrambled","STIM_SET_2/498025.bmp_pp81_L1_V1.0_scrambled_freeview_isoTrue.mp4",""
"","","","call-function","56","156385","0.0-56.0","y3bp5sq0","","","","","","","",""
"1569.2749999999942","{""judgement"":0}","[0]","survey-likert","57","157956","0.0-57.0","y3bp5sq0","","","","","","","","0"
"931.8349999999919","{""confidence"":2}","[0]","survey-likert","58","158889","0.0-58.0","y3bp5sq0","","","","","","","",""
"","","","call-function","59","158889","0.0-59.0","y3bp5sq0","","","","","","","",""
"null","","","html-keyboard-response","60","160393","0.0-60.0","y3bp5sq0","","<span style=""color:Black; font-size:50px;"">Agent A","null","","","","",""
"null","","","video-keyboard-response","61","163473","0.0-61.0","y3bp5sq0","","","null","","Agent A","scrambled","STIM_SET_2/713633.bmp_pp58_L1_V1.0_scrambled_freeview_isoTrue.mp4",""
"null","","","html-keyboard-response","62","164979","0.0-62.0","y3bp5sq0","","<span style=""color:Black; font-size:50px;"">Agent B","null","","","","",""
"null","","","video-keyboard-response","63","168057","0.0-63.0","y3bp5sq0","","","null","","Agent B","veridical","STIM_SET_2/713633.bmp_pp58_L1_V1.0_veridical_freeview_isoTrue.mp4",""
"","","","call-function","64","168058","0.0-64.0","y3bp5sq0","","","","","","","",""
"1574.9500000000116","{""judgement"":0}","[0]","survey-likert","65","169634","0.0-65.0","y3bp5sq0","","","","","","","","1"
"1893.3349999999919","{""confidence"":0}","[0]","survey-likert","66","171529","0.0-66.0","y3bp5sq0","","","","","","","",""
"","","","call-function","67","171530","0.0-67.0","y3bp5sq0","","","","","","","",""
"null","","","html-keyboard-response","68","173030","0.0-68.0","y3bp5sq0","","<span style=""color:Black; font-size:50px;"">Agent A","null","","","","",""
"null","","","video-keyboard-response","69","176100","0.0-69.0","y3bp5sq0","","","null","","Agent A","scrambled","STIM_SET_2/1159427.bmp_pp98_L1_V1.0_scrambled_freeview_isoTrue.mp4",""
"null","","","html-keyboard-response","70","177603","0.0-70.0","y3bp5sq0","","<span style=""color:Black; font-size:50px;"">Agent B","null","","","","",""
"null","","","video-keyboard-response","71","180673","0.0-71.0","y3bp5sq0","","","null","","Agent B","veridical","STIM_SET_2/1159427.bmp_pp98_L1_V1.0_veridical_freeview_isoTrue.mp4",""
"","","","call-function","72","180673","0.0-72.0","y3bp5sq0","","","","","","","",""
"6047.835000000021","{""judgement"":1}","[0]","survey-likert","73","186722","0.0-73.0","y3bp5sq0","","","","","","","","1"
"1230.1049999999814","{""confidence"":0}","[0]","survey-likert","74","187953","0.0-74.0","y3bp5sq0","","","","","","","",""
"","","","call-function","75","187954","0.0-75.0","y3bp5sq0","","","","","","","",""
"null","","","html-keyboard-response","76","189460","0.0-76.0","y3bp5sq0","","<span style=""color:Black; font-size:50px;"">Agent A","null","","","","",""
"null","","","video-keyboard-response","77","192524","0.0-77.0","y3bp5sq0","","","null","","Agent A","scrambled","STIM_SET_2/61513.bmp_pp75_L1_V1.0_scrambled_freeview_isoTrue.mp4",""
"null","","","html-keyboard-response","78","194026","0.0-78.0","y3bp5sq0","","<span style=""color:Black; font-size:50px;"">Agent B","null","","","","",""
"null","","","video-keyboard-response","79","197089","0.0-79.0","y3bp5sq0","","","null","","Agent B","veridical","STIM_SET_2/61513.bmp_pp75_L1_V1.0_veridical_freeview_isoTrue.mp4",""
"","","","call-function","80","197090","0.0-80.0","y3bp5sq0","","","","","","","",""
"1185.1549999999988","{""judgement"":0}","[0]","survey-likert","81","198276","0.0-81.0","y3bp5sq0","","","","","","","","1"
"2444.7449999999953","{""confidence"":1}","[0]","survey-likert","82","200722","0.0-82.0","y3bp5sq0","","","","","","","",""
"","","","call-function","83","200723","0.0-83.0","y3bp5sq0","","","","","","","",""
"null","","","html-keyboard-response","84","202223","0.0-84.0","y3bp5sq0","","<span style=""color:Black; font-size:50px;"">Agent A","null","","","","",""
"null","","","video-keyboard-response","85","205323","0.0-85.0","y3bp5sq0","","","null","","Agent A","scrambled","STIM_SET_2/713920.bmp_pp76_L1_V1.0_scrambled_freeview_isoTrue.mp4",""
"null","","","html-keyboard-response","86","206828","0.0-86.0","y3bp5sq0","","<span style=""color:Black; font-size:50px;"">Agent B","null","","","","",""
"null","","","video-keyboard-response","87","209930","0.0-87.0","y3bp5sq0","","","null","","Agent B","veridical","STIM_SET_2/713920.bmp_pp76_L1_V1.0_veridical_freeview_isoTrue.mp4",""
"","","","call-function","88","209930","0.0-88.0","y3bp5sq0","","","","","","","",""
"3160.9799999999814","{""judgement"":1}","[0]","survey-likert","89","213092","0.0-89.0","y3bp5sq0","","","","","","","","1"
"1791.0299999999988","{""confidence"":1}","[0]","survey-likert","90","214884","0.0-90.0","y3bp5sq0","","","","","","","",""
"15655.214999999997","","","instructions","91","230540","0.0-91.0","y3bp5sq0","[{""page_index"":0,""viewing_time"":1423.1849999999977},{""page_index"":1,""viewing_time"":13451.940000000002},{""page_index"":2,""viewing_time"":779.8850000000093}]","","","","","","",""
"2181.625","","","instructions","92","232722","0.0-92.0","y3bp5sq0","[{""page_index"":0,""viewing_time"":588.5400000000081},{""page_index"":1,""viewing_time"":1038.0449999999837},{""page_index"":2,""viewing_time"":554.9349999999977}]","","","","","","",""
"","","","call-function","93","232722","0.0-93.0","y3bp5sq0","","","","","","","",""
"null","","","html-keyboard-response","94","234224","0.0-94.0","y3bp5sq0","","<span style=""color:Black; font-size:50px;"">Agent A","null","","","","",""
"null","","","video-keyboard-response","95","237298","0.0-95.0","y3bp5sq0","","","null","","Agent A","scrambled","STIM_SET_2/1592305.bmp_pp65_L3_V1.0_scrambled_freeview_isoTrue.mp4",""
"null","","","html-keyboard-response","96","238803","0.0-96.0","y3bp5sq0","","<span style=""color:Black; font-size:50px;"">Agent B","null","","","","",""
"null","","","video-keyboard-response","97","241878","0.0-97.0","y3bp5sq0","","","null","","Agent B","veridical","STIM_SET_2/1592305.bmp_pp65_L3_V1.0_veridical_freeview_isoTrue.mp4",""
"","","","call-function","98","241879","0.0-98.0","y3bp5sq0","","","","","","","",""
"3143.5499999999884","{""judgement"":0}","[0]","survey-likert","99","245023","0.0-99.0","y3bp5sq0","","","","","","","","1"
"1741.8849999999802","{""confidence"":2}","[0]","survey-likert","100","246766","0.0-100.0","y3bp5sq0","","","","","","","",""
"","","","call-function","101","246767","0.0-101.0","y3bp5sq0","","","","","","","",""
"null","","","html-keyboard-response","102","248269","0.0-102.0","y3bp5sq0","","<span style=""color:Black; font-size:50px;"">Agent A","null","","","","",""
"null","","","video-keyboard-response","103","251338","0.0-103.0","y3bp5sq0","","","null","","Agent A","veridical","STIM_SET_2/713328.bmp_pp86_L2_V1.0_veridical_freeview_isoTrue.mp4",""
"null","","","html-keyboard-response","104","252841","0.0-104.0","y3bp5sq0","","<span style=""color:Black; font-size:50px;"">Agent B","null","","","","",""
"null","","","video-keyboard-response","105","255911","0.0-105.0","y3bp5sq0","","","null","","Agent B","scrambled","STIM_SET_2/713328.bmp_pp86_L2_V1.0_scrambled_freeview_isoTrue.mp4",""
"","","","call-function","106","255911","0.0-106.0","y3bp5sq0","","","","","","","",""
"2328.350000000006","{""judgement"":0}","[0]","survey-likert","107","258240","0.0-107.0","y3bp5sq0","","","","","","","","0"
"1548.2999999999884","{""confidence"":1}","[0]","survey-likert","108","259790","0.0-108.0","y3bp5sq0","","","","","","","",""
"","","","call-function","109","259790","0.0-109.0","y3bp5sq0","","","","","","","",""
"null","","","html-keyboard-response","110","261297","0.0-110.0","y3bp5sq0","","<span style=""color:Black; font-size:50px;"">Agent A","null","","","","",""
"null","","","video-keyboard-response","111","264397","0.0-111.0","y3bp5sq0","","","null","","Agent A","scrambled","STIM_SET_2/1591975.bmp_pp88_L2_V1.0_scrambled_freeview_isoTrue.mp4",""
"null","","","html-keyboard-response","112","265902","0.0-112.0","y3bp5sq0","","<span style=""color:Black; font-size:50px;"">Agent B","null","","","","",""
"null","","","video-keyboard-response","113","268969","0.0-113.0","y3bp5sq0","","","null","","Agent B","veridical","STIM_SET_2/1591975.bmp_pp88_L2_V1.0_veridical_freeview_isoTrue.mp4",""
"","","","call-function","114","268970","0.0-114.0","y3bp5sq0","","","","","","","",""
"2936.210000000021","{""judgement"":0}","[0]","survey-likert","115","271908","0.0-115.0","y3bp5sq0","","","","","","","","1"
"1711.5049999999464","{""confidence"":1}","[0]","survey-likert","116","273621","0.0-116.0","y3bp5sq0","","","","","","","",""
"","","","call-function","117","273621","0.0-117.0","y3bp5sq0","","","","","","","",""
"null","","","html-keyboard-response","118","275126","0.0-118.0","y3bp5sq0","","<span style=""color:Black; font-size:50px;"">Agent A","null","","","","",""
"null","","","video-keyboard-response","119","278199","0.0-119.0","y3bp5sq0","","","null","","Agent A","scrambled","STIM_SET_2/1159860.bmp_pp152_L2_V1.0_scrambled_freeview_isoTrue.mp4",""
"null","","","html-keyboard-response","120","279705","0.0-120.0","y3bp5sq0","","<span style=""color:Black; font-size:50px;"">Agent B","null","","","","",""
"null","","","video-keyboard-response","121","282775","0.0-121.0","y3bp5sq0","","","null","","Agent B","veridical","STIM_SET_2/1159860.bmp_pp152_L2_V1.0_veridical_freeview_isoTrue.mp4",""
"","","","call-function","122","282776","0.0-122.0","y3bp5sq0","","","","","","","",""
"3684.734999999986","{""judgement"":0}","[0]","survey-likert","123","286461","0.0-123.0","y3bp5sq0","","","","","","","","1"
"1618.6849999999977","{""confidence"":0}","[0]","survey-likert","124","288081","0.0-124.0","y3bp5sq0","","","","","","","",""
"","","","call-function","125","288082","0.0-125.0","y3bp5sq0","","","","","","","",""
"null","","","html-keyboard-response","126","289588","0.0-126.0","y3bp5sq0","","<span style=""color:Black; font-size:50px;"">Agent A","null","","","","",""
"null","","","video-keyboard-response","127","292661","0.0-127.0","y3bp5sq0","","","null","","Agent A","scrambled","STIM_SET_2/498258.bmp_pp51_L1_V1.0_scrambled_freeview_isoTrue.mp4",""
"null","","","html-keyboard-response","128","294167","0.0-128.0","y3bp5sq0","","<span style=""color:Black; font-size:50px;"">Agent B","null","","","","",""
"null","","","video-keyboard-response","129","297267","0.0-129.0","y3bp5sq0","","","null","","Agent B","veridical","STIM_SET_2/498258.bmp_pp51_L1_V1.0_veridical_freeview_isoTrue.mp4",""
"","","","call-function","130","297268","0.0-130.0","y3bp5sq0","","","","","","","",""
"2881.4250000000466","{""judgement"":1}","[0]","survey-likert","131","300150","0.0-131.0","y3bp5sq0","","","","","","","","1"
"1639.829999999958","{""confidence"":0}","[0]","survey-likert","132","301791","0.0-132.0","y3bp5sq0","","","","","","","",""
"","","","call-function","133","301793","0.0-133.0","y3bp5sq0","","","","","","","",""
"null","","","html-keyboard-response","134","303295","0.0-134.0","y3bp5sq0","","<span style=""color:Black; font-size:50px;"">Agent A","null","","","","",""
"null","","","video-keyboard-response","135","306377","0.0-135.0","y3bp5sq0","","","null","","Agent A","veridical","STIM_SET_2/498398.bmp_pp81_L1_V1.0_veridical_freeview_isoTrue.mp4",""
"null","","","html-keyboard-response","136","307881","0.0-136.0","y3bp5sq0","","<span style=""color:Black; font-size:50px;"">Agent B","null","","","","",""
"null","","","video-keyboard-response","137","310961","0.0-137.0","y3bp5sq0","","","null","","Agent B","scrambled","STIM_SET_2/498398.bmp_pp81_L1_V1.0_scrambled_freeview_isoTrue.mp4",""
"","","","call-function","138","310961","0.0-138.0","y3bp5sq0","","","","","","","",""
"2206.914999999979","{""judgement"":0}","[0]","survey-likert","139","313169","0.0-139.0","y3bp5sq0","","","","","","","","0"
"1071.9949999999953","{""confidence"":0}","[0]","survey-likert","140","314242","0.0-140.0","y3bp5sq0","","","","","","","",""
"","","","call-function","141","314243","0.0-141.0","y3bp5sq0","","","","","","","",""
"null","","","html-keyboard-response","142","315748","0.0-142.0","y3bp5sq0","","<span style=""color:Black; font-size:50px;"">Agent A","null","","","","",""
"null","","","video-keyboard-response","143","318850","0.0-143.0","y3bp5sq0","","","null","","Agent A","veridical","STIM_SET_2/713858.bmp_pp57_L1_V1.0_veridical_freeview_isoTrue.mp4",""
"null","","","html-keyboard-response","144","320355","0.0-144.0","y3bp5sq0","","<span style=""color:Black; font-size:50px;"">Agent B","null","","","","",""
"null","","","video-keyboard-response","145","323458","0.0-145.0","y3bp5sq0","","","null","","Agent B","scrambled","STIM_SET_2/713858.bmp_pp57_L1_V1.0_scrambled_freeview_isoTrue.mp4",""
"","","","call-function","146","323458","0.0-146.0","y3bp5sq0","","","","","","","",""
"1582.320000000007","{""judgement"":1}","[0]","survey-likert","147","325041","0.0-147.0","y3bp5sq0","","","","","","","","0"
"1459.039999999979","{""confidence"":0}","[0]","survey-likert","148","326501","0.0-148.0","y3bp5sq0","","","","","","","",""
"","","","call-function","149","326502","0.0-149.0","y3bp5sq0","","","","","","","",""
"null","","","html-keyboard-response","150","328006","0.0-150.0","y3bp5sq0","","<span style=""color:Black; font-size:50px;"">Agent A","null","","","","",""
"null","","","video-keyboard-response","151","331106","0.0-151.0","y3bp5sq0","","","null","","Agent A","scrambled","STIM_SET_2/1159508.bmp_pp151_L1_V1.0_scrambled_freeview_isoTrue.mp4",""
"null","","","html-keyboard-response","152","332613","0.0-152.0","y3bp5sq0","","<span style=""color:Black; font-size:50px;"">Agent B","null","","","","",""
"null","","","video-keyboard-response","153","335685","0.0-153.0","y3bp5sq0","","","null","","Agent B","veridical","STIM_SET_2/1159508.bmp_pp151_L1_V1.0_veridical_freeview_isoTrue.mp4",""
"","","","call-function","154","335685","0.0-154.0","y3bp5sq0","","","","","","","",""
"2045.054999999993","{""judgement"":1}","[0]","survey-likert","155","337731","0.0-155.0","y3bp5sq0","","","","","","","","1"
"1115.9850000000442","{""confidence"":3}","[0]","survey-likert","156","338848","0.0-156.0","y3bp5sq0","","","","","","","",""
"","","","call-function","157","338849","0.0-157.0","y3bp5sq0","","","","","","","",""
"null","","","html-keyboard-response","158","340356","0.0-158.0","y3bp5sq0","","<span style=""color:Black; font-size:50px;"">Agent A","null","","","","",""
"null","","","video-keyboard-response","159","343422","0.0-159.0","y3bp5sq0","","","null","","Agent A","scrambled","STIM_SET_2/1160049.bmp_pp53_L2_V1.0_scrambled_freeview_isoTrue.mp4",""
"null","","","html-keyboard-response","160","344928","0.0-160.0","y3bp5sq0","","<span style=""color:Black; font-size:50px;"">Agent B","null","","","","",""
"null","","","video-keyboard-response","161","347997","0.0-161.0","y3bp5sq0","","","null","","Agent B","veridical","STIM_SET_2/1160049.bmp_pp53_L2_V1.0_veridical_freeview_isoTrue.mp4",""
"","","","call-function","162","347998","0.0-162.0","y3bp5sq0","","","","","","","",""
"1487.734999999986","{""judgement"":1}","[0]","survey-likert","163","349486","0.0-163.0","y3bp5sq0","","","","","","","","1"
"1890.0100000000093","{""confidence"":2}","[0]","survey-likert","164","351377","0.0-164.0","y3bp5sq0","","","","","","","",""
"","","","call-function","165","351378","0.0-165.0","y3bp5sq0","","","","","","","",""
"null","","","html-keyboard-response","166","352881","0.0-166.0","y3bp5sq0","","<span style=""color:Black; font-size:50px;"">Agent A","null","","","","",""
"null","","","video-keyboard-response","167","355959","0.0-167.0","y3bp5sq0","","","null","","Agent A","veridical","STIM_SET_2/1159874.bmp_pp96_L2_V1.0_veridical_freeview_isoTrue.mp4",""
"null","","","html-keyboard-response","168","357463","0.0-168.0","y3bp5sq0","","<span style=""color:Black; font-size:50px;"">Agent B","null","","","","",""
"null","","","video-keyboard-response","169","360566","0.0-169.0","y3bp5sq0","","","null","","Agent B","scrambled","STIM_SET_2/1159874.bmp_pp96_L2_V1.0_scrambled_freeview_isoTrue.mp4",""
"","","","call-function","170","360567","0.0-170.0","y3bp5sq0","","","","","","","",""
"1995.0349999999744","{""judgement"":0}","[0]","survey-likert","171","362563","0.0-171.0","y3bp5sq0","","","","","","","","0"
"1281.8400000000256","{""confidence"":0}","[0]","survey-likert","172","363846","0.0-172.0","y3bp5sq0","","","","","","","",""
"1773.390000000014","","","instructions","173","365620","0.0-173.0","y3bp5sq0","[{""page_index"":0,""viewing_time"":836.9650000000256},{""page_index"":1,""viewing_time"":486.179999999993},{""page_index"":2,""viewing_time"":449.99499999999534}]","","","","","","",""
"1397.4199999999837","","","instructions","174","367018","0.0-174.0","y3bp5sq0","[{""page_index"":0,""viewing_time"":484.3400000000256},{""page_index"":1,""viewing_time"":477.1149999999907},{""page_index"":2,""viewing_time"":435.8549999999814}]","","","","","","",""
"","","","call-function","175","367019","0.0-175.0","y3bp5sq0","","","","","","","",""
"null","","","html-keyboard-response","176","368521","0.0-176.0","y3bp5sq0","","<span style=""color:Black; font-size:50px;"">Agent A","null","","","","",""
"null","","","video-keyboard-response","177","371631","0.0-177.0","y3bp5sq0","","","null","","Agent A","veridical","STIM_SET_2/1592298.bmp_pp56_L3_V1.0_veridical_freeview_isoTrue.mp4",""
"null","","","html-keyboard-response","178","373135","0.0-178.0","y3bp5sq0","","<span style=""color:Black; font-size:50px;"">Agent B","null","","","","",""
"null","","","video-keyboard-response","179","376208","0.0-179.0","y3bp5sq0","","","null","","Agent B","scrambled","STIM_SET_2/1592298.bmp_pp56_L3_V1.0_scrambled_freeview_isoTrue.mp4",""
"","","","call-function","180","376208","0.0-180.0","y3bp5sq0","","","","","","","",""
"1339.6299999999464","{""judgement"":1}","[0]","survey-likert","181","377549","0.0-181.0","y3bp5sq0","","","","","","","","0"
"1059.8400000000256","{""confidence"":0}","[0]","survey-likert","182","378611","0.0-182.0","y3bp5sq0","","","","","","","",""
"","","","call-function","183","378612","0.0-183.0","y3bp5sq0","","","","","","","",""
"null","","","html-keyboard-response","184","380116","0.0-184.0","y3bp5sq0","","<span style=""color:Black; font-size:50px;"">Agent A","null","","","","",""
"null","","","video-keyboard-response","185","383187","0.0-185.0","y3bp5sq0","","","null","","Agent A","veridical","STIM_SET_2/150463.bmp_pp55_L3_V1.0_veridical_freeview_isoTrue.mp4",""
"null","","","html-keyboard-response","186","384693","0.0-186.0","y3bp5sq0","","<span style=""color:Black; font-size:50px;"">Agent B","null","","","","",""
"null","","","video-keyboard-response","187","387765","0.0-187.0","y3bp5sq0","","","null","","Agent B","scrambled","STIM_SET_2/150463.bmp_pp55_L3_V1.0_scrambled_freeview_isoTrue.mp4",""
"","","","call-function","188","387766","0.0-188.0","y3bp5sq0","","","","","","","",""
"8554.325000000012","{""judgement"":1}","[0]","survey-likert","189","396321","0.0-189.0","y3bp5sq0","","","","","","","","0"
"2073.054999999993","{""confidence"":1}","[0]","survey-likert","190","398396","0.0-190.0","y3bp5sq0","","","","","","","",""
"","","","call-function","191","398396","0.0-191.0","y3bp5sq0","","","","","","","",""
"null","","","html-keyboard-response","192","399898","0.0-192.0","y3bp5sq0","","<span style=""color:Black; font-size:50px;"">Agent A","null","","","","",""
"null","","","video-keyboard-response","193","402981","0.0-193.0","y3bp5sq0","","","null","","Agent A","veridical","STIM_SET_2/107909.bmp_pp95_L2_V1.0_veridical_freeview_isoTrue.mp4",""
"null","","","html-keyboard-response","194","404482","0.0-194.0","y3bp5sq0","","<span style=""color:Black; font-size:50px;"">Agent B","null","","","","",""
"null","","","video-keyboard-response","195","407562","0.0-195.0","y3bp5sq0","","","null","","Agent B","scrambled","STIM_SET_2/107909.bmp_pp95_L2_V1.0_scrambled_freeview_isoTrue.mp4",""
"","","","call-function","196","407563","0.0-196.0","y3bp5sq0","","","","","","","",""
"3503.7700000000186","{""judgement"":1}","[0]","survey-likert","197","411067","0.0-197.0","y3bp5sq0","","","","","","","","0"
"1155.359999999986","{""confidence"":0}","[0]","survey-likert","198","412224","0.0-198.0","y3bp5sq0","","","","","","","",""
"","","","call-function","199","412224","0.0-199.0","y3bp5sq0","","","","","","","",""
"null","","","html-keyboard-response","200","413727","0.0-200.0","y3bp5sq0","","<span style=""color:Black; font-size:50px;"">Agent A","null","","","","",""
"null","","","video-keyboard-response","201","416810","0.0-201.0","y3bp5sq0","","","null","","Agent A","veridical","STIM_SET_2/285715.bmp_pp67_L2_V1.0_veridical_freeview_isoTrue.mp4",""
"null","","","html-keyboard-response","202","418317","0.0-202.0","y3bp5sq0","","<span style=""color:Black; font-size:50px;"">Agent B","null","","","","",""
"null","","","video-keyboard-response","203","421398","0.0-203.0","y3bp5sq0","","","null","","Agent B","scrambled","STIM_SET_2/285715.bmp_pp67_L2_V1.0_scrambled_freeview_isoTrue.mp4",""
"","","","call-function","204","421398","0.0-204.0","y3bp5sq0","","","","","","","",""
"1416","{""judgement"":0}","[0]","survey-likert","205","422815","0.0-205.0","y3bp5sq0","","","","","","","","0"
"1576.5499999999884","{""confidence"":0}","[0]","survey-likert","206","424393","0.0-206.0","y3bp5sq0","","","","","","","",""
"","","","call-function","207","424393","0.0-207.0","y3bp5sq0","","","","","","","",""
"null","","","html-keyboard-response","208","425899","0.0-208.0","y3bp5sq0","","<span style=""color:Black; font-size:50px;"">Agent A","null","","","","",""
"null","","","video-keyboard-response","209","429000","0.0-209.0","y3bp5sq0","","","null","","Agent A","scrambled","STIM_SET_2/498372.bmp_pp95_L2_V1_scrambled_freeview_isoTrue.mp4",""
"null","","","html-keyboard-response","210","430503","0.0-210.0","y3bp5sq0","","<span style=""color:Black; font-size:50px;"">Agent B","null","","","","",""
"null","","","video-keyboard-response","211","433606","0.0-211.0","y3bp5sq0","","","null","","Agent B","veridical","STIM_SET_2/498372.bmp_pp95_L2_V1_veridical_freeview_isoTrue.mp4",""
"","","","call-function","212","433606","0.0-212.0","y3bp5sq0","","","","","","","",""
"4113.535000000033","{""judgement"":1}","[0]","survey-likert","213","437721","0.0-213.0","y3bp5sq0","","","","","","","","1"
"2401.7900000000373","{""confidence"":0}","[0]","survey-likert","214","440124","0.0-214.0","y3bp5sq0","","","","","","","",""
"","","","call-function","215","440124","0.0-215.0","y3bp5sq0","","","","","","","",""
"null","","","html-keyboard-response","216","441629","0.0-216.0","y3bp5sq0","","<span style=""color:Black; font-size:50px;"">Agent A","null","","","","",""
"null","","","video-keyboard-response","217","444724","0.0-217.0","y3bp5sq0","","","null","","Agent A","scrambled","STIM_SET_2/713652.bmp_pp89_L1_V1_scrambled_freeview_isoTrue.mp4",""
"null","","","html-keyboard-response","218","446225","0.0-218.0","y3bp5sq0","","<span style=""color:Black; font-size:50px;"">Agent B","null","","","","",""
"null","","","video-keyboard-response","219","449292","0.0-219.0","y3bp5sq0","","","null","","Agent B","veridical","STIM_SET_2/713652.bmp_pp89_L1_V1_veridical_freeview_isoTrue.mp4",""
"","","","call-function","220","449293","0.0-220.0","y3bp5sq0","","","","","","","",""
"2077.3950000000186","{""judgement"":1}","[0]","survey-likert","221","451371","0.0-221.0","y3bp5sq0","","","","","","","","1"
"1457.125","{""confidence"":0}","[0]","survey-likert","222","452829","0.0-222.0","y3bp5sq0","","","","","","","",""
"","","","call-function","223","452830","0.0-223.0","y3bp5sq0","","","","","","","",""
"null","","","html-keyboard-response","224","454332","0.0-224.0","y3bp5sq0","","<span style=""color:Black; font-size:50px;"">Agent A","null","","","","",""
"null","","","video-keyboard-response","225","457407","0.0-225.0","y3bp5sq0","","","null","","Agent A","veridical","STIM_SET_2/1592025.bmp_pp68_L1_V1.0_veridical_freeview_isoTrue.mp4",""
"null","","","html-keyboard-response","226","458910","0.0-226.0","y3bp5sq0","","<span style=""color:Black; font-size:50px;"">Agent B","null","","","","",""
"null","","","video-keyboard-response","227","462009","0.0-227.0","y3bp5sq0","","","null","","Agent B","scrambled","STIM_SET_2/1592025.bmp_pp68_L1_V1.0_scrambled_freeview_isoTrue.mp4",""
"","","","call-function","228","462009","0.0-228.0","y3bp5sq0","","","","","","","",""
"1377.7849999999744","{""judgement"":1}","[0]","survey-likert","229","463388","0.0-229.0","y3bp5sq0","","","","","","","","0"
"1865.475000000035","{""confidence"":0}","[0]","survey-likert","230","465254","0.0-230.0","y3bp5sq0","","","","","","","",""
"","","","call-function","231","465255","0.0-231.0","y3bp5sq0","","","","","","","",""
"null","","","html-keyboard-response","232","466758","0.0-232.0","y3bp5sq0","","<span style=""color:Black; font-size:50px;"">Agent A","null","","","","",""
"null","","","video-keyboard-response","233","469827","0.0-233.0","y3bp5sq0","","","null","","Agent A","veridical","STIM_SET_2/1591920.bmp_pp97_L3_V1_veridical_freeview_isoTrue.mp4",""
"null","","","html-keyboard-response","234","471332","0.0-234.0","y3bp5sq0","","<span style=""color:Black; font-size:50px;"">Agent B","null","","","","",""
"null","","","video-keyboard-response","235","474402","0.0-235.0","y3bp5sq0","","","null","","Agent B","scrambled","STIM_SET_2/1591920.bmp_pp97_L3_V1_scrambled_freeview_isoTrue.mp4",""
"","","","call-function","236","474402","0.0-236.0","y3bp5sq0","","","","","","","",""
"2573.8800000000047","{""judgement"":0}","[0]","survey-likert","237","476978","0.0-237.0","y3bp5sq0","","","","","","","","0"
"1996.234999999986","{""confidence"":0}","[0]","survey-likert","238","478975","0.0-238.0","y3bp5sq0","","","","","","","",""
"","","","call-function","239","478976","0.0-239.0","y3bp5sq0","","","","","","","",""
"null","","","html-keyboard-response","240","480481","0.0-240.0","y3bp5sq0","","<span style=""color:Black; font-size:50px;"">Agent A","null","","","","",""
"null","","","video-keyboard-response","241","483588","0.0-241.0","y3bp5sq0","","","null","","Agent A","veridical","STIM_SET_2/713742.bmp_pp91_L3_V1.0_veridical_freeview_isoTrue.mp4",""
"null","","","html-keyboard-response","242","485090","0.0-242.0","y3bp5sq0","","<span style=""color:Black; font-size:50px;"">Agent B","null","","","","",""
"null","","","video-keyboard-response","243","488166","0.0-243.0","y3bp5sq0","","","null","","Agent B","scrambled","STIM_SET_2/713742.bmp_pp91_L3_V1.0_scrambled_freeview_isoTrue.mp4",""
"","","","call-function","244","488167","0.0-244.0","y3bp5sq0","","","","","","","",""
"1428.4850000000442","{""judgement"":0}","[0]","survey-likert","245","489597","0.0-245.0","y3bp5sq0","","","","","","","","0"
"1308.1450000000186","{""confidence"":2}","[0]","survey-likert","246","490907","0.0-246.0","y3bp5sq0","","","","","","","",""
"","","","call-function","247","490908","0.0-247.0","y3bp5sq0","","","","","","","",""
"null","","","html-keyboard-response","248","492410","0.0-248.0","y3bp5sq0","","<span style=""color:Black; font-size:50px;"">Agent A","null","","","","",""
"null","","","video-keyboard-response","249","495489","0.0-249.0","y3bp5sq0","","","null","","Agent A","veridical","STIM_SET_2/713381.bmp_pp82_L2_V1.0_veridical_freeview_isoTrue.mp4",""
"null","","","html-keyboard-response","250","496994","0.0-250.0","y3bp5sq0","","<span style=""color:Black; font-size:50px;"">Agent B","null","","","","",""
"null","","","video-keyboard-response","251","500075","0.0-251.0","y3bp5sq0","","","null","","Agent B","scrambled","STIM_SET_2/713381.bmp_pp82_L2_V1.0_scrambled_freeview_isoTrue.mp4",""
"","","","call-function","252","500075","0.0-252.0","y3bp5sq0","","","","","","","",""
"1795.859999999986","{""judgement"":0}","[0]","survey-likert","253","501872","0.0-253.0","y3bp5sq0","","","","","","","","0"
"1774.9949999999953","{""confidence"":2}","[0]","survey-likert","254","503649","0.0-254.0","y3bp5sq0","","","","","","","",""
"1297.5999999999767","","","instructions","255","504947","0.0-255.0","y3bp5sq0","[{""page_index"":0,""viewing_time"":730.9899999999907},{""page_index"":1,""viewing_time"":333.9349999999977},{""page_index"":2,""viewing_time"":232.4550000000163}]","","","","","","",""
"1157.8850000000093","","","instructions","256","506105","0.0-256.0","y3bp5sq0","[{""page_index"":0,""viewing_time"":353.90500000002794},{""page_index"":1,""viewing_time"":393.86999999999534},{""page_index"":2,""viewing_time"":410.00500000000466}]","","","","","","",""
"","","","call-function","257","506106","0.0-257.0","y3bp5sq0","","","","","","","",""
"null","","","html-keyboard-response","258","507607","0.0-258.0","y3bp5sq0","","<span style=""color:Black; font-size:50px;"">Agent A","null","","","","",""
"null","","","video-keyboard-response","259","510682","0.0-259.0","y3bp5sq0","","","null","","Agent A","veridical","STIM_SET_2/150277.bmp_pp65_L3_V1.0_veridical_freeview_isoTrue.mp4",""
"null","","","html-keyboard-response","260","512185","0.0-260.0","y3bp5sq0","","<span style=""color:Black; font-size:50px;"">Agent B","null","","","","",""
"null","","","video-keyboard-response","261","515283","0.0-261.0","y3bp5sq0","","","null","","Agent B","scrambled","STIM_SET_2/150277.bmp_pp65_L3_V1.0_scrambled_freeview_isoTrue.mp4",""
"","","","call-function","262","515284","0.0-262.0","y3bp5sq0","","","","","","","",""
"1074.3700000000536","{""judgement"":0}","[0]","survey-likert","263","516359","0.0-263.0","y3bp5sq0","","","","","","","","0"
"1768.1149999999907","{""confidence"":2}","[0]","survey-likert","264","518128","0.0-264.0","y3bp5sq0","","","","","","","",""
"","","","call-function","265","518129","0.0-265.0","y3bp5sq0","","","","","","","",""
"null","","","html-keyboard-response","266","519630","0.0-266.0","y3bp5sq0","","<span style=""color:Black; font-size:50px;"">Agent A","null","","","","",""
"null","","","video-keyboard-response","267","522729","0.0-267.0","y3bp5sq0","","","null","","Agent A","veridical","STIM_SET_2/713788.bmp_pp52_L1_V1.0_veridical_freeview_isoTrue.mp4",""
"null","","","html-keyboard-response","268","524231","0.0-268.0","y3bp5sq0","","<span style=""color:Black; font-size:50px;"">Agent B","null","","","","",""
"null","","","video-keyboard-response","269","527334","0.0-269.0","y3bp5sq0","","","null","","Agent B","scrambled","STIM_SET_2/713788.bmp_pp52_L1_V1.0_scrambled_freeview_isoTrue.mp4",""
"","","","call-function","270","527334","0.0-270.0","y3bp5sq0","","","","","","","",""
"1799.6650000000373","{""judgement"":0}","[0]","survey-likert","271","529136","0.0-271.0","y3bp5sq0","","","","","","","","0"
"1162.9799999999814","{""confidence"":2}","[0]","survey-likert","272","530300","0.0-272.0","y3bp5sq0","","","","","","","",""
"","","","call-function","273","530300","0.0-273.0","y3bp5sq0","","","","","","","",""
"null","","","html-keyboard-response","274","531804","0.0-274.0","y3bp5sq0","","<span style=""color:Black; font-size:50px;"">Agent A","null","","","","",""
"null","","","video-keyboard-response","275","534908","0.0-275.0","y3bp5sq0","","","null","","Agent A","veridical","STIM_SET_2/1592350.bmp_pp55_L3_V1.0_veridical_freeview_isoTrue.mp4",""
"null","","","html-keyboard-response","276","536415","0.0-276.0","y3bp5sq0","","<span style=""color:Black; font-size:50px;"">Agent B","null","","","","",""
"null","","","video-keyboard-response","277","539517","0.0-277.0","y3bp5sq0","","","null","","Agent B","scrambled","STIM_SET_2/1592350.bmp_pp55_L3_V1.0_scrambled_freeview_isoTrue.mp4",""
"","","","call-function","278","539518","0.0-278.0","y3bp5sq0","","","","","","","",""
"1730.454999999958","{""judgement"":0}","[0]","survey-likert","279","541250","0.0-279.0","y3bp5sq0","","","","","","","","0"
"1478.359999999986","{""confidence"":2}","[0]","survey-likert","280","542729","0.0-280.0","y3bp5sq0","","","","","","","",""
"","","","call-function","281","542729","0.0-281.0","y3bp5sq0","","","","","","","",""
"null","","","html-keyboard-response","282","544233","0.0-282.0","y3bp5sq0","","<span style=""color:Black; font-size:50px;"">Agent A","null","","","","",""
"null","","","video-keyboard-response","283","547331","0.0-283.0","y3bp5sq0","","","null","","Agent A","veridical","STIM_SET_2/1592038.bmp_pp79_L2_V1.0_veridical_freeview_isoTrue.mp4",""
"null","","","html-keyboard-response","284","548836","0.0-284.0","y3bp5sq0","","<span style=""color:Black; font-size:50px;"">Agent B","null","","","","",""
"null","","","video-keyboard-response","285","551910","0.0-285.0","y3bp5sq0","","","null","","Agent B","scrambled","STIM_SET_2/1592038.bmp_pp79_L2_V1.0_scrambled_freeview_isoTrue.mp4",""
"","","","call-function","286","551911","0.0-286.0","y3bp5sq0","","","","","","","",""
"1245.3499999999767","{""judgement"":0}","[0]","survey-likert","287","553157","0.0-287.0","y3bp5sq0","","","","","","","","0"
"4173.140000000014","{""confidence"":2}","[0]","survey-likert","288","557331","0.0-288.0","y3bp5sq0","","","","","","","",""
"","","","call-function","289","557332","0.0-289.0","y3bp5sq0","","","","","","","",""
"null","","","html-keyboard-response","290","558835","0.0-290.0","y3bp5sq0","","<span style=""color:Black; font-size:50px;"">Agent A","null","","","","",""
"null","","","video-keyboard-response","291","561907","0.0-291.0","y3bp5sq0","","","null","","Agent A","scrambled","STIM_SET_2/1159819.bmp_pp151_L1_V1.0_scrambled_freeview_isoTrue.mp4",""
"null","","","html-keyboard-response","292","563414","0.0-292.0","y3bp5sq0","","<span style=""color:Black; font-size:50px;"">Agent B","null","","","","",""
"null","","","video-keyboard-response","293","566492","0.0-293.0","y3bp5sq0","","","null","","Agent B","veridical","STIM_SET_2/1159819.bmp_pp151_L1_V1.0_veridical_freeview_isoTrue.mp4",""
"","","","call-function","294","566493","0.0-294.0","y3bp5sq0","","","","","","","",""
"1887.1500000000233","{""judgement"":1}","[0]","survey-likert","295","568381","0.0-295.0","y3bp5sq0","","","","","","","","1"
"1382.9799999999814","{""confidence"":2}","[0]","survey-likert","296","569765","0.0-296.0","y3bp5sq0","","","","","","","",""
"","","","call-function","297","569765","0.0-297.0","y3bp5sq0","","","","","","","",""
"null","","","html-keyboard-response","298","571267","0.0-298.0","y3bp5sq0","","<span style=""color:Black; font-size:50px;"">Agent A","null","","","","",""
"null","","","video-keyboard-response","299","574349","0.0-299.0","y3bp5sq0","","","null","","Agent A","scrambled","STIM_SET_2/713790.bmp_pp100_L3_V1_scrambled_freeview_isoTrue.mp4",""
"null","","","html-keyboard-response","300","575853","0.0-300.0","y3bp5sq0","","<span style=""color:Black; font-size:50px;"">Agent B","null","","","","",""
"null","","","video-keyboard-response","301","578961","0.0-301.0","y3bp5sq0","","","null","","Agent B","veridical","STIM_SET_2/713790.bmp_pp100_L3_V1_veridical_freeview_isoTrue.mp4",""
"","","","call-function","302","578962","0.0-302.0","y3bp5sq0","","","","","","","",""
"1501.405000000028","{""judgement"":1}","[0]","survey-likert","303","580464","0.0-303.0","y3bp5sq0","","","","","","","","1"
"1091.5500000000466","{""confidence"":1}","[0]","survey-likert","304","581557","0.0-304.0","y3bp5sq0","","","","","","","",""
"","","","call-function","305","581557","0.0-305.0","y3bp5sq0","","","","","","","",""
"null","","","html-keyboard-response","306","583059","0.0-306.0","y3bp5sq0","","<span style=""color:Black; font-size:50px;"">Agent A","null","","","","",""
"null","","","video-keyboard-response","307","586164","0.0-307.0","y3bp5sq0","","","null","","Agent A","scrambled","STIM_SET_2/713274.bmp_pp73_L3_V1.0_scrambled_freeview_isoTrue.mp4",""
"null","","","html-keyboard-response","308","587667","0.0-308.0","y3bp5sq0","","<span style=""color:Black; font-size:50px;"">Agent B","null","","","","",""
"null","","","video-keyboard-response","309","590776","0.0-309.0","y3bp5sq0","","","null","","Agent B","veridical","STIM_SET_2/713274.bmp_pp73_L3_V1.0_veridical_freeview_isoTrue.mp4",""
"","","","call-function","310","590777","0.0-310.0","y3bp5sq0","","","","","","","",""
"2403.4250000000466","{""judgement"":1}","[0]","survey-likert","311","593181","0.0-311.0","y3bp5sq0","","","","","","","","1"
"2163.4799999999814","{""confidence"":1}","[0]","survey-likert","312","595346","0.0-312.0","y3bp5sq0","","","","","","","",""
"","","","call-function","313","595346","0.0-313.0","y3bp5sq0","","","","","","","",""
"null","","","html-keyboard-response","314","596848","0.0-314.0","y3bp5sq0","","<span style=""color:Black; font-size:50px;"">Agent A","null","","","","",""
"null","","","video-keyboard-response","315","599946","0.0-315.0","y3bp5sq0","","","null","","Agent A","scrambled","STIM_SET_2/1159973.bmp_pp98_L1_V1.0_scrambled_freeview_isoTrue.mp4",""
"null","","","html-keyboard-response","316","601451","0.0-316.0","y3bp5sq0","","<span style=""color:Black; font-size:50px;"">Agent B","null","","","","",""
"null","","","video-keyboard-response","317","604547","0.0-317.0","y3bp5sq0","","","null","","Agent B","veridical","STIM_SET_2/1159973.bmp_pp98_L1_V1.0_veridical_freeview_isoTrue.mp4",""
"","","","call-function","318","604548","0.0-318.0","y3bp5sq0","","","","","","","",""
"1398.3699999999953","{""judgement"":1}","[0]","survey-likert","319","605947","0.0-319.0","y3bp5sq0","","","","","","","","1"
"1890.8100000000559","{""confidence"":1}","[0]","survey-likert","320","607839","0.0-320.0","y3bp5sq0","","","","","","","",""
"","","","call-function","321","607840","0.0-321.0","y3bp5sq0","","","","","","","",""
"null","","","html-keyboard-response","322","609342","0.0-322.0","y3bp5sq0","","<span style=""color:Black; font-size:50px;"">Agent A","null","","","","",""
"null","","","video-keyboard-response","323","612415","0.0-323.0","y3bp5sq0","","","null","","Agent A","veridical","STIM_SET_2/1592289.bmp_pp92_L3_V1.0_veridical_freeview_isoTrue.mp4",""
"null","","","html-keyboard-response","324","613918","0.0-324.0","y3bp5sq0","","<span style=""color:Black; font-size:50px;"">Agent B","null","","","","",""
"null","","","video-keyboard-response","325","616999","0.0-325.0","y3bp5sq0","","","null","","Agent B","scrambled","STIM_SET_2/1592289.bmp_pp92_L3_V1.0_scrambled_freeview_isoTrue.mp4",""
"","","","call-function","326","617000","0.0-326.0","y3bp5sq0","","","","","","","",""
"2071.804999999935","{""judgement"":1}","[0]","survey-likert","327","619073","0.0-327.0","y3bp5sq0","","","","","","","","0"
"1588.2399999999907","{""confidence"":0}","[0]","survey-likert","328","620663","0.0-328.0","y3bp5sq0","","","","","","","",""
"","","","call-function","329","620663","0.0-329.0","y3bp5sq0","","","","","","","",""
"null","","","html-keyboard-response","330","622168","0.0-330.0","y3bp5sq0","","<span style=""color:Black; font-size:50px;"">Agent A","null","","","","",""
"null","","","video-keyboard-response","331","625244","0.0-331.0","y3bp5sq0","","","null","","Agent A","scrambled","STIM_SET_2/285946.bmp_pp79_L2_V1.0_scrambled_freeview_isoTrue.mp4",""
"null","","","html-keyboard-response","332","626747","0.0-332.0","y3bp5sq0","","<span style=""color:Black; font-size:50px;"">Agent B","null","","","","",""
"null","","","video-keyboard-response","333","629823","0.0-333.0","y3bp5sq0","","","null","","Agent B","veridical","STIM_SET_2/285946.bmp_pp79_L2_V1.0_veridical_freeview_isoTrue.mp4",""
"","","","call-function","334","629824","0.0-334.0","y3bp5sq0","","","","","","","",""
"9538.770000000019","{""judgement"":0}","[0]","survey-likert","335","639364","0.0-335.0","y3bp5sq0","","","","","","","","1"
"1598.204999999958","{""confidence"":0}","[0]","survey-likert","336","640963","0.0-336.0","y3bp5sq0","","","","","","","",""
"1454.1350000000093","","","instructions","337","642418","0.0-337.0","y3bp5sq0","[{""page_index"":0,""viewing_time"":935.375},{""page_index"":1,""viewing_time"":289.1600000000326},{""page_index"":2,""viewing_time"":229.3850000000093}]","","","","","","",""
"1283.0550000000512","","","instructions","338","643702","0.0-338.0","y3bp5sq0","[{""page_index"":0,""viewing_time"":340.8199999999488},{""page_index"":1,""viewing_time"":367.13000000000466},{""page_index"":2,""viewing_time"":575}]","","","","","","",""
"","","","call-function","339","643702","0.0-339.0","y3bp5sq0","","","","","","","",""
"null","","","html-keyboard-response","340","645206","0.0-340.0","y3bp5sq0","","<span style=""color:Black; font-size:50px;"">Agent A","null","","","","",""
"null","","","video-keyboard-response","341","648305","0.0-341.0","y3bp5sq0","","","null","","Agent A","scrambled","STIM_SET_2/1592201.bmp_pp97_L3_V1.0_scrambled_freeview_isoTrue.mp4",""
"null","","","html-keyboard-response","342","649808","0.0-342.0","y3bp5sq0","","<span style=""color:Black; font-size:50px;"">Agent B","null","","","","",""
"null","","","video-keyboard-response","343","652907","0.0-343.0","y3bp5sq0","","","null","","Agent B","veridical","STIM_SET_2/1592201.bmp_pp97_L3_V1.0_veridical_freeview_isoTrue.mp4",""
"","","","call-function","344","652907","0.0-344.0","y3bp5sq0","","","","","","","",""
"1738.5399999999208","{""judgement"":0}","[0]","survey-likert","345","654647","0.0-345.0","y3bp5sq0","","","","","","","","1"
"2606.32500000007","{""confidence"":2}","[0]","survey-likert","346","657254","0.0-346.0","y3bp5sq0","","","","","","","",""
"","","","call-function","347","657255","0.0-347.0","y3bp5sq0","","","","","","","",""
"null","","","html-keyboard-response","348","658761","0.0-348.0","y3bp5sq0","","<span style=""color:Black; font-size:50px;"">Agent A","null","","","","",""
"null","","","video-keyboard-response","349","661860","0.0-349.0","y3bp5sq0","","","null","","Agent A","veridical","STIM_SET_2/498326.bmp_pp57_L1_V1.0_veridical_freeview_isoTrue.mp4",""
"null","","","html-keyboard-response","350","663366","0.0-350.0","y3bp5sq0","","<span style=""color:Black; font-size:50px;"">Agent B","null","","","","",""
"null","","","video-keyboard-response","351","666464","0.0-351.0","y3bp5sq0","","","null","","Agent B","scrambled","STIM_SET_2/498326.bmp_pp57_L1_V1.0_scrambled_freeview_isoTrue.mp4",""
"","","","call-function","352","666464","0.0-352.0","y3bp5sq0","","","","","","","",""
"3715.5250000000233","{""judgement"":0}","[0]","survey-likert","353","670181","0.0-353.0","y3bp5sq0","","","","","","","","0"
"1668.2249999999767","{""confidence"":2}","[0]","survey-likert","354","671850","0.0-354.0","y3bp5sq0","","","","","","","",""
"","","","call-function","355","671851","0.0-355.0","y3bp5sq0","","","","","","","",""
"null","","","html-keyboard-response","356","673352","0.0-356.0","y3bp5sq0","","<span style=""color:Black; font-size:50px;"">Agent A","null","","","","",""
"null","","","video-keyboard-response","357","676418","0.0-357.0","y3bp5sq0","","","null","","Agent A","scrambled","STIM_SET_2/286034.bmp_pp69_L3_V1.0_scrambled_freeview_isoTrue.mp4",""
"null","","","html-keyboard-response","358","677922","0.0-358.0","y3bp5sq0","","<span style=""color:Black; font-size:50px;"">Agent B","null","","","","",""
"null","","","video-keyboard-response","359","680991","0.0-359.0","y3bp5sq0","","","null","","Agent B","veridical","STIM_SET_2/286034.bmp_pp69_L3_V1.0_veridical_freeview_isoTrue.mp4",""
"","","","call-function","360","680991","0.0-360.0","y3bp5sq0","","","","","","","",""
"2045.5","{""judgement"":0}","[0]","survey-likert","361","683038","0.0-361.0","y3bp5sq0","","","","","","","","1"
"1150.1450000000186","{""confidence"":2}","[0]","survey-likert","362","684189","0.0-362.0","y3bp5sq0","","","","","","","",""
"","","","call-function","363","684190","0.0-363.0","y3bp5sq0","","","","","","","",""
"null","","","html-keyboard-response","364","685691","0.0-364.0","y3bp5sq0","","<span style=""color:Black; font-size:50px;"">Agent A","null","","","","",""
"null","","","video-keyboard-response","365","688759","0.0-365.0","y3bp5sq0","","","null","","Agent A","scrambled","STIM_SET_2/713689.bmp_pp153_L3_V1.0_scrambled_freeview_isoTrue.mp4",""
"null","","","html-keyboard-response","366","690262","0.0-366.0","y3bp5sq0","","<span style=""color:Black; font-size:50px;"">Agent B","null","","","","",""
"null","","","video-keyboard-response","367","693330","0.0-367.0","y3bp5sq0","","","null","","Agent B","veridical","STIM_SET_2/713689.bmp_pp153_L3_V1.0_veridical_freeview_isoTrue.mp4",""
"","","","call-function","368","693330","0.0-368.0","y3bp5sq0","","","","","","","",""
"2225.795000000042","{""judgement"":1}","[0]","survey-likert","369","695557","0.0-369.0","y3bp5sq0","","","","","","","","1"
"1189.9499999999534","{""confidence"":1}","[0]","survey-likert","370","696748","0.0-370.0","y3bp5sq0","","","","","","","",""
"","","","call-function","371","696748","0.0-371.0","y3bp5sq0","","","","","","","",""
"null","","","html-keyboard-response","372","698254","0.0-372.0","y3bp5sq0","","<span style=""color:Black; font-size:50px;"">Agent A","null","","","","",""
"null","","","video-keyboard-response","373","701357","0.0-373.0","y3bp5sq0","","","null","","Agent A","scrambled","STIM_SET_2/1592921.bmp_pp69_L3_V1.0_scrambled_freeview_isoTrue.mp4",""
"null","","","html-keyboard-response","374","702864","0.0-374.0","y3bp5sq0","","<span style=""color:Black; font-size:50px;"">Agent B","null","","","","",""
"null","","","video-keyboard-response","375","705967","0.0-375.0","y3bp5sq0","","","null","","Agent B","veridical","STIM_SET_2/1592921.bmp_pp69_L3_V1.0_veridical_freeview_isoTrue.mp4",""
"","","","call-function","376","705968","0.0-376.0","y3bp5sq0","","","","","","","",""
"1914.9349999999395","{""judgement"":1}","[0]","survey-likert","377","707884","0.0-377.0","y3bp5sq0","","","","","","","","1"
"1011.2700000000186","{""confidence"":2}","[0]","survey-likert","378","708896","0.0-378.0","y3bp5sq0","","","","","","","",""
"","","","call-function","379","708897","0.0-379.0","y3bp5sq0","","","","","","","",""
"null","","","html-keyboard-response","380","710403","0.0-380.0","y3bp5sq0","","<span style=""color:Black; font-size:50px;"">Agent A","null","","","","",""
"null","","","video-keyboard-response","381","713510","0.0-381.0","y3bp5sq0","","","null","","Agent A","veridical","STIM_SET_2/498261.bmp_pp84_L3_V1.0_veridical_freeview_isoTrue.mp4",""
"null","","","html-keyboard-response","382","715017","0.0-382.0","y3bp5sq0","","<span style=""color:Black; font-size:50px;"">Agent B","null","","","","",""
"null","","","video-keyboard-response","383","718120","0.0-383.0","y3bp5sq0","","","null","","Agent B","scrambled","STIM_SET_2/498261.bmp_pp84_L3_V1.0_scrambled_freeview_isoTrue.mp4",""
"","","","call-function","384","718121","0.0-384.0","y3bp5sq0","","","","","","","",""
"1724.204999999958","{""judgement"":0}","[0]","survey-likert","385","719846","0.0-385.0","y3bp5sq0","","","","","","","","0"
"1156.9100000000326","{""confidence"":0}","[0]","survey-likert","386","721004","0.0-386.0","y3bp5sq0","","","","","","","",""
"","","","call-function","387","721004","0.0-387.0","y3bp5sq0","","","","","","","",""
"null","","","html-keyboard-response","388","722510","0.0-388.0","y3bp5sq0","","<span style=""color:Black; font-size:50px;"">Agent A","null","","","","",""
"null","","","video-keyboard-response","389","725599","0.0-389.0","y3bp5sq0","","","null","","Agent A","scrambled","STIM_SET_2/1592951.bmp_pp80_L3_V1.0_scrambled_freeview_isoTrue.mp4",""
"null","","","html-keyboard-response","390","727106","0.0-390.0","y3bp5sq0","","<span style=""color:Black; font-size:50px;"">Agent B","null","","","","",""
"null","","","video-keyboard-response","391","730198","0.0-391.0","y3bp5sq0","","","null","","Agent B","veridical","STIM_SET_2/1592951.bmp_pp80_L3_V1.0_veridical_freeview_isoTrue.mp4",""
"","","","call-function","392","730198","0.0-392.0","y3bp5sq0","","","","","","","",""
"1855.9250000000466","{""judgement"":0}","[0]","survey-likert","393","732055","0.0-393.0","y3bp5sq0","","","","","","","","1"
"1105.75","{""confidence"":0}","[0]","survey-likert","394","733162","0.0-394.0","y3bp5sq0","","","","","","","",""
"","","","call-function","395","733163","0.0-395.0","y3bp5sq0","","","","","","","",""
"null","","","html-keyboard-response","396","734665","0.0-396.0","y3bp5sq0","","<span style=""color:Black; font-size:50px;"">Agent A","null","","","","",""
"null","","","video-keyboard-response","397","737760","0.0-397.0","y3bp5sq0","","","null","","Agent A","scrambled","STIM_SET_2/1592314.bmp_pp100_L3_V1.0_scrambled_freeview_isoTrue.mp4",""
"null","","","html-keyboard-response","398","739265","0.0-398.0","y3bp5sq0","","<span style=""color:Black; font-size:50px;"">Agent B","null","","","","",""
"null","","","video-keyboard-response","399","742333","0.0-399.0","y3bp5sq0","","","null","","Agent B","veridical","STIM_SET_2/1592314.bmp_pp100_L3_V1.0_veridical_freeview_isoTrue.mp4",""
"","","","call-function","400","742333","0.0-400.0","y3bp5sq0","","","","","","","",""
"2614.29999999993","{""judgement"":1}","[0]","survey-likert","401","744949","0.0-401.0","y3bp5sq0","","","","","","","","1"
"1386.6350000000093","{""confidence"":0}","[0]","survey-likert","402","746338","0.0-402.0","y3bp5sq0","","","","","","","",""
"","","","call-function","403","746339","0.0-403.0","y3bp5sq0","","","","","","","",""
"null","","","html-keyboard-response","404","747842","0.0-404.0","y3bp5sq0","","<span style=""color:Black; font-size:50px;"">Agent A","null","","","","",""
"null","","","video-keyboard-response","405","750912","0.0-405.0","y3bp5sq0","","","null","","Agent A","veridical","STIM_SET_2/1160204.bmp_pp54_L2_V1.0_veridical_freeview_isoTrue.mp4",""
"null","","","html-keyboard-response","406","752418","0.0-406.0","y3bp5sq0","","<span style=""color:Black; font-size:50px;"">Agent B","null","","","","",""
"null","","","video-keyboard-response","407","755492","0.0-407.0","y3bp5sq0","","","null","","Agent B","scrambled","STIM_SET_2/1160204.bmp_pp54_L2_V1.0_scrambled_freeview_isoTrue.mp4",""
"","","","call-function","408","755493","0.0-408.0","y3bp5sq0","","","","","","","",""
"1375.0899999999674","{""judgement"":0}","[0]","survey-likert","409","756869","0.0-409.0","y3bp5sq0","","","","","","","","0"
"2242.5899999999674","{""confidence"":3}","[0]","survey-likert","410","759113","0.0-410.0","y3bp5sq0","","","","","","","",""
"","","","call-function","411","759114","0.0-411.0","y3bp5sq0","","","","","","","",""
"null","","","html-keyboard-response","412","760616","0.0-412.0","y3bp5sq0","","<span style=""color:Black; font-size:50px;"">Agent A","null","","","","",""
"null","","","video-keyboard-response","413","763682","0.0-413.0","y3bp5sq0","","","null","","Agent A","veridical","STIM_SET_2/1159392.bmp_pp96_L2_V1.0_veridical_freeview_isoTrue.mp4",""
"null","","","html-keyboard-response","414","765188","0.0-414.0","y3bp5sq0","","<span style=""color:Black; font-size:50px;"">Agent B","null","","","","",""
"null","","","video-keyboard-response","415","768254","0.0-415.0","y3bp5sq0","","","null","","Agent B","scrambled","STIM_SET_2/1159392.bmp_pp96_L2_V1.0_scrambled_freeview_isoTrue.mp4",""
"","","","call-function","416","768255","0.0-416.0","y3bp5sq0","","","","","","","",""
"2056.545000000042","{""judgement"":0}","[0]","survey-likert","417","770313","0.0-417.0","y3bp5sq0","","","","","","","","0"
"1116.6799999999348","{""confidence"":3}","[0]","survey-likert","418","771431","0.0-418.0","y3bp5sq0","","","","","","","",""
"1246.9000000000233","","","instructions","419","772678","0.0-419.0","y3bp5sq0","[{""page_index"":0,""viewing_time"":725.6300000000047},{""page_index"":1,""viewing_time"":262.03000000002794},{""page_index"":2,""viewing_time"":259.0350000000326}]","","","","","","",""
"1071.5250000000233","","","instructions","420","773750","0.0-420.0","y3bp5sq0","[{""page_index"":0,""viewing_time"":225.63000000000466},{""page_index"":1,""viewing_time"":414.6450000000186},{""page_index"":2,""viewing_time"":431.14000000001397}]","","","","","","",""
"","","","call-function","421","773750","0.0-421.0","y3bp5sq0","","","","","","","",""
"null","","","html-keyboard-response","422","775256","0.0-422.0","y3bp5sq0","","<span style=""color:Black; font-size:50px;"">Agent A","null","","","","",""
"null","","","video-keyboard-response","423","778361","0.0-423.0","y3bp5sq0","","","null","","Agent A","veridical","STIM_SET_2/713770.bmp_pp89_L1_V1.0_veridical_freeview_isoTrue.mp4",""
"null","","","html-keyboard-response","424","779867","0.0-424.0","y3bp5sq0","","<span style=""color:Black; font-size:50px;"">Agent B","null","","","","",""
"null","","","video-keyboard-response","425","782975","0.0-425.0","y3bp5sq0","","","null","","Agent B","scrambled","STIM_SET_2/713770.bmp_pp89_L1_V1.0_scrambled_freeview_isoTrue.mp4",""
"","","","call-function","426","782975","0.0-426.0","y3bp5sq0","","","","","","","",""
"1653","{""judgement"":0}","[0]","survey-likert","427","784629","0.0-427.0","y3bp5sq0","","","","","","","","0"
"1941.219999999972","{""confidence"":2}","[0]","survey-likert","428","786571","0.0-428.0","y3bp5sq0","","","","","","","",""
"","","","call-function","429","786572","0.0-429.0","y3bp5sq0","","","","","","","",""
"null","","","html-keyboard-response","430","788076","0.0-430.0","y3bp5sq0","","<span style=""color:Black; font-size:50px;"">Agent A","null","","","","",""
"null","","","video-keyboard-response","431","791173","0.0-431.0","y3bp5sq0","","","null","","Agent A","scrambled","STIM_SET_2/1592017.bmp_pp154_L1_V1.0_scrambled_freeview_isoTrue.mp4",""
"null","","","html-keyboard-response","432","792680","0.0-432.0","y3bp5sq0","","<span style=""color:Black; font-size:50px;"">Agent B","null","","","","",""
"null","","","video-keyboard-response","433","795774","0.0-433.0","y3bp5sq0","","","null","","Agent B","veridical","STIM_SET_2/1592017.bmp_pp154_L1_V1.0_veridical_freeview_isoTrue.mp4",""
"","","","call-function","434","795775","0.0-434.0","y3bp5sq0","","","","","","","",""
"1367.5649999999441","{""judgement"":1}","[0]","survey-likert","435","797143","0.0-435.0","y3bp5sq0","","","","","","","","1"
"2716.935000000056","{""confidence"":2}","[0]","survey-likert","436","799861","0.0-436.0","y3bp5sq0","","","","","","","",""
"","","","call-function","437","799862","0.0-437.0","y3bp5sq0","","","","","","","",""
"null","","","html-keyboard-response","438","801364","0.0-438.0","y3bp5sq0","","<span style=""color:Black; font-size:50px;"">Agent A","null","","","","",""
"null","","","video-keyboard-response","439","804466","0.0-439.0","y3bp5sq0","","","null","","Agent A","veridical","STIM_SET_2/285959.bmp_pp93_L1_V1.0_veridical_freeview_isoTrue.mp4",""
"null","","","html-keyboard-response","440","805969","0.0-440.0","y3bp5sq0","","<span style=""color:Black; font-size:50px;"">Agent B","null","","","","",""
"null","","","video-keyboard-response","441","809076","0.0-441.0","y3bp5sq0","","","null","","Agent B","scrambled","STIM_SET_2/285959.bmp_pp93_L1_V1.0_scrambled_freeview_isoTrue.mp4",""
"","","","call-function","442","809076","0.0-442.0","y3bp5sq0","","","","","","","",""
"1447.1699999999255","{""judgement"":1}","[0]","survey-likert","443","810524","0.0-443.0","y3bp5sq0","","","","","","","","0"
"1232.9700000000885","{""confidence"":2}","[0]","survey-likert","444","811759","0.0-444.0","y3bp5sq0","","","","","","","",""
"","","","call-function","445","811759","0.0-445.0","y3bp5sq0","","","","","","","",""
"null","","","html-keyboard-response","446","813264","0.0-446.0","y3bp5sq0","","<span style=""color:Black; font-size:50px;"">Agent A","null","","","","",""
"null","","","video-keyboard-response","447","816319","0.0-447.0","y3bp5sq0","","","null","","Agent A","veridical","STIM_SET_2/1159325.bmp_pp67_L2_V1.0_veridical_freeview_isoTrue.mp4",""
"null","","","html-keyboard-response","448","817821","0.0-448.0","y3bp5sq0","","<span style=""color:Black; font-size:50px;"">Agent B","null","","","","",""
"null","","","video-keyboard-response","449","820886","0.0-449.0","y3bp5sq0","","","null","","Agent B","scrambled","STIM_SET_2/1159325.bmp_pp67_L2_V1.0_scrambled_freeview_isoTrue.mp4",""
"","","","call-function","450","820886","0.0-450.0","y3bp5sq0","","","","","","","",""
"1463.1399999998976","{""judgement"":1}","[0]","survey-likert","451","822350","0.0-451.0","y3bp5sq0","","","","","","","","0"
"1408.2899999999208","{""confidence"":0}","[0]","survey-likert","452","823760","0.0-452.0","y3bp5sq0","","","","","","","",""
"","","","call-function","453","823760","0.0-453.0","y3bp5sq0","","","","","","","",""
"null","","","html-keyboard-response","454","825261","0.0-454.0","y3bp5sq0","","<span style=""color:Black; font-size:50px;"">Agent A","null","","","","",""
"null","","","video-keyboard-response","455","828330","0.0-455.0","y3bp5sq0","","","null","","Agent A","veridical","STIM_SET_2/1592047.bmp_pp51_L1_V1.0_veridical_freeview_isoTrue.mp4",""
"null","","","html-keyboard-response","456","829835","0.0-456.0","y3bp5sq0","","<span style=""color:Black; font-size:50px;"">Agent B","null","","","","",""
"null","","","video-keyboard-response","457","832904","0.0-457.0","y3bp5sq0","","","null","","Agent B","scrambled","STIM_SET_2/1592047.bmp_pp51_L1_V1.0_scrambled_freeview_isoTrue.mp4",""
"","","","call-function","458","832905","0.0-458.0","y3bp5sq0","","","","","","","",""
"1608.8399999999674","{""judgement"":0}","[0]","survey-likert","459","834515","0.0-459.0","y3bp5sq0","","","","","","","","0"
"1281.6849999999395","{""confidence"":0}","[0]","survey-likert","460","835798","0.0-460.0","y3bp5sq0","","","","","","","",""
"","","","call-function","461","835798","0.0-461.0","y3bp5sq0","","","","","","","",""
"null","","","html-keyboard-response","462","837302","0.0-462.0","y3bp5sq0","","<span style=""color:Black; font-size:50px;"">Agent A","null","","","","",""
"null","","","video-keyboard-response","463","840400","0.0-463.0","y3bp5sq0","","","null","","Agent A","scrambled","STIM_SET_2/1592530.bmp_pp75_L1_V1.0_scrambled_freeview_isoTrue.mp4",""
"null","","","html-keyboard-response","464","841906","0.0-464.0","y3bp5sq0","","<span style=""color:Black; font-size:50px;"">Agent B","null","","","","",""
"null","","","video-keyboard-response","465","845010","0.0-465.0","y3bp5sq0","","","null","","Agent B","veridical","STIM_SET_2/1592530.bmp_pp75_L1_V1.0_veridical_freeview_isoTrue.mp4",""
"","","","call-function","466","845010","0.0-466.0","y3bp5sq0","","","","","","","",""
"2115.1350000000093","{""judgement"":1}","[0]","survey-likert","467","847127","0.0-467.0","y3bp5sq0","","","","","","","","1"
"1767.9250000000466","{""confidence"":1}","[0]","survey-likert","468","848896","0.0-468.0","y3bp5sq0","","","","","","","",""
"","","","call-function","469","848896","0.0-469.0","y3bp5sq0","","","","","","","",""
"null","","","html-keyboard-response","470","850398","0.0-470.0","y3bp5sq0","","<span style=""color:Black; font-size:50px;"">Agent A","null","","","","",""
"null","","","video-keyboard-response","471","853498","0.0-471.0","y3bp5sq0","","","null","","Agent A","scrambled","STIM_SET_2/1160247.bmp_pp54_L2_V1.0_scrambled_freeview_isoTrue.mp4",""
"null","","","html-keyboard-response","472","855003","0.0-472.0","y3bp5sq0","","<span style=""color:Black; font-size:50px;"">Agent B","null","","","","",""
"null","","","video-keyboard-response","473","858107","0.0-473.0","y3bp5sq0","","","null","","Agent B","veridical","STIM_SET_2/1160247.bmp_pp54_L2_V1.0_veridical_freeview_isoTrue.mp4",""
"","","","call-function","474","858108","0.0-474.0","y3bp5sq0","","","","","","","",""
"1648.25","{""judgement"":1}","[0]","survey-likert","475","859757","0.0-475.0","y3bp5sq0","","","","","","","","1"
"2360.784999999916","{""confidence"":3}","[0]","survey-likert","476","862120","0.0-476.0","y3bp5sq0","","","","","","","",""
"","","","call-function","477","862121","0.0-477.0","y3bp5sq0","","","","","","","",""
"null","","","html-keyboard-response","478","863623","0.0-478.0","y3bp5sq0","","<span style=""color:Black; font-size:50px;"">Agent A","null","","","","",""
"null","","","video-keyboard-response","479","866698","0.0-479.0","y3bp5sq0","","","null","","Agent A","veridical","STIM_SET_2/1592168.bmp_pp71_L1_V1.0_veridical_freeview_isoTrue.mp4",""
"null","","","html-keyboard-response","480","868204","0.0-480.0","y3bp5sq0","","<span style=""color:Black; font-size:50px;"">Agent B","null","","","","",""
"null","","","video-keyboard-response","481","871283","0.0-481.0","y3bp5sq0","","","null","","Agent B","scrambled","STIM_SET_2/1592168.bmp_pp71_L1_V1.0_scrambled_freeview_isoTrue.mp4",""
"","","","call-function","482","871284","0.0-482.0","y3bp5sq0","","","","","","","",""
"1519.579999999958","{""judgement"":0}","[0]","survey-likert","483","872805","0.0-483.0","y3bp5sq0","","","","","","","","0"
"2522.7600000000093","{""confidence"":3}","[0]","survey-likert","484","875329","0.0-484.0","y3bp5sq0","","","","","","","",""
"","","","call-function","485","875330","0.0-485.0","y3bp5sq0","","","","","","","",""
"null","","","html-keyboard-response","486","876833","0.0-486.0","y3bp5sq0","","<span style=""color:Black; font-size:50px;"">Agent A","null","","","","",""
"null","","","video-keyboard-response","487","879901","0.0-487.0","y3bp5sq0","","","null","","Agent A","scrambled","STIM_SET_2/1592857.bmp_pp52_L1_V1_scrambled_freeview_isoTrue.mp4",""
"null","","","html-keyboard-response","488","881404","0.0-488.0","y3bp5sq0","","<span style=""color:Black; font-size:50px;"">Agent B","null","","","","",""
"null","","","video-keyboard-response","489","884471","0.0-489.0","y3bp5sq0","","","null","","Agent B","veridical","STIM_SET_2/1592857.bmp_pp52_L1_V1_veridical_freeview_isoTrue.mp4",""
"","","","call-function","490","884472","0.0-490.0","y3bp5sq0","","","","","","","",""
"1439.344999999972","{""judgement"":1}","[0]","survey-likert","491","885912","0.0-491.0","y3bp5sq0","","","","","","","","1"
"1748.2000000000698","{""confidence"":1}","[0]","survey-likert","492","887661","0.0-492.0","y3bp5sq0","","","","","","","",""
"","","","call-function","493","887662","0.0-493.0","y3bp5sq0","","","","","","","",""
"null","","","html-keyboard-response","494","889168","0.0-494.0","y3bp5sq0","","<span style=""color:Black; font-size:50px;"">Agent A","null","","","","",""
"null","","","video-keyboard-response","495","892278","0.0-495.0","y3bp5sq0","","","null","","Agent A","scrambled","STIM_SET_2/1592568.bmp_pp71_L1_V1.0_scrambled_freeview_isoTrue.mp4",""
"null","","","html-keyboard-response","496","893782","0.0-496.0","y3bp5sq0","","<span style=""color:Black; font-size:50px;"">Agent B","null","","","","",""
"null","","","video-keyboard-response","497","896890","0.0-497.0","y3bp5sq0","","","null","","Agent B","veridical","STIM_SET_2/1592568.bmp_pp71_L1_V1.0_veridical_freeview_isoTrue.mp4",""
"","","","call-function","498","896891","0.0-498.0","y3bp5sq0","","","","","","","",""
"2133.530000000028","{""judgement"":1}","[0]","survey-likert","499","899025","0.0-499.0","y3bp5sq0","","","","","","","","1"
"2112.6650000000373","{""confidence"":2}","[0]","survey-likert","500","901139","0.0-500.0","y3bp5sq0","","","","","","","",""
"1053.5400000000373","","","instructions","501","902194","0.0-501.0","y3bp5sq0","[{""page_index"":0,""viewing_time"":646.1600000000326},{""page_index"":1,""viewing_time"":207.14500000001863},{""page_index"":2,""viewing_time"":200.06499999994412}]","","","","","","",""
"1064.1199999999953","","","instructions","502","903258","0.0-502.0","y3bp5sq0","[{""page_index"":0,""viewing_time"":236.93499999993946},{""page_index"":1,""viewing_time"":398.0800000000745},{""page_index"":2,""viewing_time"":429}]","","","","","","",""
"","","","call-function","503","903259","0.0-503.0","y3bp5sq0","","","","","","","",""
"null","","","html-keyboard-response","504","904760","0.0-504.0","y3bp5sq0","","<span style=""color:Black; font-size:50px;"">Agent A","null","","","","",""
"null","","","video-keyboard-response","505","907857","0.0-505.0","y3bp5sq0","","","null","","Agent A","scrambled","STIM_SET_2/1159329.bmp_pp61_L2_V1.0_scrambled_freeview_isoTrue.mp4",""
"null","","","html-keyboard-response","506","909360","0.0-506.0","y3bp5sq0","","<span style=""color:Black; font-size:50px;"">Agent B","null","","","","",""
"null","","","video-keyboard-response","507","912458","0.0-507.0","y3bp5sq0","","","null","","Agent B","veridical","STIM_SET_2/1159329.bmp_pp61_L2_V1.0_veridical_freeview_isoTrue.mp4",""
"","","","call-function","508","912458","0.0-508.0","y3bp5sq0","","","","","","","",""
"2554.445000000065","{""judgement"":1}","[0]","survey-likert","509","915014","0.0-509.0","y3bp5sq0","","","","","","","","1"
"1754.8149999999441","{""confidence"":3}","[0]","survey-likert","510","916770","0.0-510.0","y3bp5sq0","","","","","","","",""
"","","","call-function","511","916770","0.0-511.0","y3bp5sq0","","","","","","","",""
"null","","","html-keyboard-response","512","918272","0.0-512.0","y3bp5sq0","","<span style=""color:Black; font-size:50px;"">Agent A","null","","","","",""
"null","","","video-keyboard-response","513","921373","0.0-513.0","y3bp5sq0","","","null","","Agent A","scrambled","STIM_SET_2/1592044.bmp_pp94_L2_V1.0_scrambled_freeview_isoTrue.mp4",""
"null","","","html-keyboard-response","514","922877","0.0-514.0","y3bp5sq0","","<span style=""color:Black; font-size:50px;"">Agent B","null","","","","",""
"null","","","video-keyboard-response","515","925978","0.0-515.0","y3bp5sq0","","","null","","Agent B","veridical","STIM_SET_2/1592044.bmp_pp94_L2_V1.0_veridical_freeview_isoTrue.mp4",""
"","","","call-function","516","925978","0.0-516.0","y3bp5sq0","","","","","","","",""
"2774.2050000000745","{""judgement"":1}","[0]","survey-likert","517","928753","0.0-517.0","y3bp5sq0","","","","","","","","1"
"2327.935000000056","{""confidence"":3}","[0]","survey-likert","518","931083","0.0-518.0","y3bp5sq0","","","","","","","",""
"","","","call-function","519","931083","0.0-519.0","y3bp5sq0","","","","","","","",""
"null","","","html-keyboard-response","520","932586","0.0-520.0","y3bp5sq0","","<span style=""color:Black; font-size:50px;"">Agent A","null","","","","",""
"null","","","video-keyboard-response","521","935657","0.0-521.0","y3bp5sq0","","","null","","Agent A","scrambled","STIM_SET_2/1159956.bmp_pp59_L3_V1.0_scrambled_freeview_isoTrue.mp4",""
"null","","","html-keyboard-response","522","937164","0.0-522.0","y3bp5sq0","","<span style=""color:Black; font-size:50px;"">Agent B","null","","","","",""
"null","","","video-keyboard-response","523","940237","0.0-523.0","y3bp5sq0","","","null","","Agent B","veridical","STIM_SET_2/1159956.bmp_pp59_L3_V1.0_veridical_freeview_isoTrue.mp4",""
"","","","call-function","524","940238","0.0-524.0","y3bp5sq0","","","","","","","",""
"1276.5050000000047","{""judgement"":0}","[0]","survey-likert","525","941515","0.0-525.0","y3bp5sq0","","","","","","","","1"
"1289.2149999999674","{""confidence"":2}","[0]","survey-likert","526","942806","0.0-526.0","y3bp5sq0","","","","","","","",""
"","","","call-function","527","942806","0.0-527.0","y3bp5sq0","","","","","","","",""
"null","","","html-keyboard-response","528","944309","0.0-528.0","y3bp5sq0","","<span style=""color:Black; font-size:50px;"">Agent A","null","","","","",""
"null","","","video-keyboard-response","529","947378","0.0-529.0","y3bp5sq0","","","null","","Agent A","scrambled","STIM_SET_2/1592129.bmp_pp153_L3_V1.0_scrambled_freeview_isoTrue.mp4",""
"null","","","html-keyboard-response","530","948880","0.0-530.0","y3bp5sq0","","<span style=""color:Black; font-size:50px;"">Agent B","null","","","","",""
"null","","","video-keyboard-response","531","951951","0.0-531.0","y3bp5sq0","","","null","","Agent B","veridical","STIM_SET_2/1592129.bmp_pp153_L3_V1.0_veridical_freeview_isoTrue.mp4",""
"","","","call-function","532","951952","0.0-532.0","y3bp5sq0","","","","","","","",""
"1220.390000000014","{""judgement"":1}","[0]","survey-likert","533","953173","0.0-533.0","y3bp5sq0","","","","","","","","1"
"1188.7850000000326","{""confidence"":2}","[0]","survey-likert","534","954363","0.0-534.0","y3bp5sq0","","","","","","","",""
"","","","call-function","535","954363","0.0-535.0","y3bp5sq0","","","","","","","",""
"null","","","html-keyboard-response","536","955866","0.0-536.0","y3bp5sq0","","<span style=""color:Black; font-size:50px;"">Agent A","null","","","","",""
"null","","","video-keyboard-response","537","958962","0.0-537.0","y3bp5sq0","","","null","","Agent A","scrambled","STIM_SET_2/285684.bmp_pp80_L3_V1.0_scrambled_freeview_isoTrue.mp4",""
"null","","","html-keyboard-response","538","960469","0.0-538.0","y3bp5sq0","","<span style=""color:Black; font-size:50px;"">Agent B","null","","","","",""
"null","","","video-keyboard-response","539","963566","0.0-539.0","y3bp5sq0","","","null","","Agent B","veridical","STIM_SET_2/285684.bmp_pp80_L3_V1.0_veridical_freeview_isoTrue.mp4",""
"","","","call-function","540","963567","0.0-540.0","y3bp5sq0","","","","","","","",""
"1326.359999999986","{""judgement"":1}","[0]","survey-likert","541","964894","0.0-541.0","y3bp5sq0","","","","","","","","1"
"1539.2799999999115","{""confidence"":2}","[0]","survey-likert","542","966434","0.0-542.0","y3bp5sq0","","","","","","","",""
"","","","call-function","543","966435","0.0-543.0","y3bp5sq0","","","","","","","",""
"null","","","html-keyboard-response","544","967940","0.0-544.0","y3bp5sq0","","<span style=""color:Black; font-size:50px;"">Agent A","null","","","","",""
"null","","","video-keyboard-response","545","971038","0.0-545.0","y3bp5sq0","","","null","","Agent A","scrambled","STIM_SET_2/1592150.bmp_pp77_L3_V1.0_scrambled_freeview_isoTrue.mp4",""
"null","","","html-keyboard-response","546","972543","0.0-546.0","y3bp5sq0","","<span style=""color:Black; font-size:50px;"">Agent B","null","","","","",""
"null","","","video-keyboard-response","547","975641","0.0-547.0","y3bp5sq0","","","null","","Agent B","veridical","STIM_SET_2/1592150.bmp_pp77_L3_V1.0_veridical_freeview_isoTrue.mp4",""
"","","","call-function","548","975642","0.0-548.0","y3bp5sq0","","","","","","","",""
"1410.7600000000093","{""judgement"":1}","[0]","survey-likert","549","977054","0.0-549.0","y3bp5sq0","","","","","","","","1"
"1201.6000000000931","{""confidence"":0}","[0]","survey-likert","550","978258","0.0-550.0","y3bp5sq0","","","","","","","",""
"","","","call-function","551","978258","0.0-551.0","y3bp5sq0","","","","","","","",""
"null","","","html-keyboard-response","552","979760","0.0-552.0","y3bp5sq0","","<span style=""color:Black; font-size:50px;"">Agent A","null","","","","",""
"null","","","video-keyboard-response","553","982842","0.0-553.0","y3bp5sq0","","","null","","Agent A","veridical","STIM_SET_2/1591781.bmp_pp63_L1_V1.0_veridical_freeview_isoTrue.mp4",""
"null","","","html-keyboard-response","554","984345","0.0-554.0","y3bp5sq0","","<span style=""color:Black; font-size:50px;"">Agent B","null","","","","",""
"null","","","video-keyboard-response","555","987423","0.0-555.0","y3bp5sq0","","","null","","Agent B","scrambled","STIM_SET_2/1591781.bmp_pp63_L1_V1.0_scrambled_freeview_isoTrue.mp4",""
"","","","call-function","556","987424","0.0-556.0","y3bp5sq0","","","","","","","",""
"1085.2649999998976","{""judgement"":0}","[0]","survey-likert","557","988510","0.0-557.0","y3bp5sq0","","","","","","","","0"
"1632.9399999999441","{""confidence"":3}","[0]","survey-likert","558","990144","0.0-558.0","y3bp5sq0","","","","","","","",""
"","","","call-function","559","990145","0.0-559.0","y3bp5sq0","","","","","","","",""
"null","","","html-keyboard-response","560","991647","0.0-560.0","y3bp5sq0","","<span style=""color:Black; font-size:50px;"">Agent A","null","","","","",""
"null","","","video-keyboard-response","561","994721","0.0-561.0","y3bp5sq0","","","null","","Agent A","veridical","STIM_SET_2/1160189.bmp_pp64_L1_V1.0_veridical_freeview_isoTrue.mp4",""
"null","","","html-keyboard-response","562","996227","0.0-562.0","y3bp5sq0","","<span style=""color:Black; font-size:50px;"">Agent B","null","","","","",""
"null","","","video-keyboard-response","563","999301","0.0-563.0","y3bp5sq0","","","null","","Agent B","scrambled","STIM_SET_2/1160189.bmp_pp64_L1_V1.0_scrambled_freeview_isoTrue.mp4",""
"","","","call-function","564","999302","0.0-564.0","y3bp5sq0","","","","","","","",""
"1265.6300000000047","{""judgement"":0}","[0]","survey-likert","565","1000568","0.0-565.0","y3bp5sq0","","","","","","","","0"
"1372.670000000042","{""confidence"":3}","[0]","survey-likert","566","1001942","0.0-566.0","y3bp5sq0","","","","","","","",""
"","","","call-function","567","1001943","0.0-567.0","y3bp5sq0","","","","","","","",""
"null","","","html-keyboard-response","568","1003444","0.0-568.0","y3bp5sq0","","<span style=""color:Black; font-size:50px;"">Agent A","null","","","","",""
"null","","","video-keyboard-response","569","1006543","0.0-569.0","y3bp5sq0","","","null","","Agent A","scrambled","STIM_SET_2/107955.bmp_pp90_L2_V1.0_scrambled_freeview_isoTrue.mp4",""
"null","","","html-keyboard-response","570","1008049","0.0-570.0","y3bp5sq0","","<span style=""color:Black; font-size:50px;"">Agent B","null","","","","",""
"null","","","video-keyboard-response","571","1011106","0.0-571.0","y3bp5sq0","","","null","","Agent B","veridical","STIM_SET_2/107955.bmp_pp90_L2_V1.0_veridical_freeview_isoTrue.mp4",""
"","","","call-function","572","1011107","0.0-572.0","y3bp5sq0","","","","","","","",""
"1511.7350000001024","{""judgement"":0}","[0]","survey-likert","573","1012619","0.0-573.0","y3bp5sq0","","","","","","","","1"
"1690.609999999986","{""confidence"":1}","[0]","survey-likert","574","1014311","0.0-574.0","y3bp5sq0","","","","","","","",""
"","","","call-function","575","1014312","0.0-575.0","y3bp5sq0","","","","","","","",""
"null","","","html-keyboard-response","576","1015814","0.0-576.0","y3bp5sq0","","<span style=""color:Black; font-size:50px;"">Agent A","null","","","","",""
"null","","","video-keyboard-response","577","1018918","0.0-577.0","y3bp5sq0","","","null","","Agent A","scrambled","STIM_SET_2/1592747.bmp_pp53_L2_V1.0_scrambled_freeview_isoTrue.mp4",""
"null","","","html-keyboard-response","578","1020420","0.0-578.0","y3bp5sq0","","<span style=""color:Black; font-size:50px;"">Agent B","null","","","","",""
"null","","","video-keyboard-response","579","1023521","0.0-579.0","y3bp5sq0","","","null","","Agent B","veridical","STIM_SET_2/1592747.bmp_pp53_L2_V1.0_veridical_freeview_isoTrue.mp4",""
"","","","call-function","580","1023521","0.0-580.0","y3bp5sq0","","","","","","","",""
"1484.030000000028","{""judgement"":1}","[0]","survey-likert","581","1025006","0.0-581.0","y3bp5sq0","","","","","","","","1"
"1424.0250000000233","{""confidence"":2}","[0]","survey-likert","582","1026431","0.0-582.0","y3bp5sq0","","","","","","","",""
"1312.8999999999069","","","instructions","583","1027745","0.0-583.0","y3bp5sq0","[{""page_index"":0,""viewing_time"":1312.7699999999022}]","","","","","","",""
"1352.6650000000373","","","instructions","584","1029098","0.0-584.0","y3bp5sq0","[{""page_index"":0,""viewing_time"":1352.5500000000466}]","","","","","","",""
"13494.775000000023","{""post-1"":3}","[0]","survey-likert","585","1042594","0.0-585.0","y3bp5sq0","","","","","","","",""
"4298.979999999981","{""post-1"":0}","[0]","survey-likert","586","1046894","0.0-586.0","y3bp5sq0","","","","","","","",""
"8812.604999999981","{""post-2"":3}","[0]","survey-likert","587","1055708","0.0-587.0","y3bp5sq0","","","","","","","",""
"2708.5749999999534","{""post-2"":0}","[0]","survey-likert","588","1058418","0.0-588.0","y3bp5sq0","","","","","","","",""
"5812.324999999953","{""post-3"":2}","[0]","survey-likert","589","1064232","0.0-589.0","y3bp5sq0","","","","","","","",""
"3054.439999999944","{""post-3"":0}","[0]","survey-likert","590","1067289","0.0-590.0","y3bp5sq0","","","","","","","",""
"8922.969999999972","{""post-4"":3}","[0]","survey-likert","591","1076213","0.0-591.0","y3bp5sq0","","","","","","","",""
"3673.6100000001024","{""post-4"":0}","[0]","survey-likert","592","1079888","0.0-592.0","y3bp5sq0","","","","","","","",""
"6269.6699999999255","{""post-5"":0}","[0]","survey-likert","593","1086159","0.0-593.0","y3bp5sq0","","","","","","","",""
"2842.715000000084","{""post-5"":3}","[0]","survey-likert","594","1089003","0.0-594.0","y3bp5sq0","","","","","","","",""
"202465.61999999988","{""Q0"":""The black screen made it easier to distinguish the pattern. I realize now that I may have mistaken eye jumping in the last test (with the visible images) with a robotic movement. With a black screen, it was easier to identify that rather than eyes jumping quickly from object to object, it was more unnatural and robotic. It was also at a very fast pace that my eyes could not keep up with.""}","","survey-text","595","1291475","0.0-595.0","y3bp5sq0","","","","","","","",""
"93139.06499999994","{""Q0"":""I found it easier to distinguish between a more human-like attention to a more robotic one. I followed the spot as if it were my own and chose the one that felt more natural.""}","","survey-text","596","1384619","0.0-596.0","y3bp5sq0","","","","","","","",""
"75470.8999999999","{""Q0"":""The ones where both spots stay in the same small area were a bit difficult to distinguish because the pattern was less obvious.""}","","survey-text","597","1460094","0.0-597.0","y3bp5sq0","","","","","","","",""
"1686.7049999998417","","","instructions","598","1461782","0.0-598.0","y3bp5sq0","[{""page_index"":0,""viewing_time"":1686.5699999998324}]","","","","","","",""
"73036.06499999994","{""Experimenter_end"":[""Printed ID# y3bp5sq0 on consent form"",""Given subject SONA credit or payment"",""Given the subject debrief form""]}","[0]","survey-multi-select","599","1534821","0.0-599.0","y3bp5sq0","","","","","","","",""
