"rt","responses","question_order","trial_type","trial_index","time_elapsed","internal_node_id","ID","view_history","stimulus","key_press","value","agent","condition","image","correct_answer"
"9470.12","{""Experimenter"":[""Confirmed subject's identity (ID card)"",""Confirmed normal or corrected-to-normal vision"",""Obtained consent (signature and date)"",""Checked the test room lighting"",""Checked computer screen lighting"",""Checked distance from screen to chin rest (50cm)"",""Cleaned and adjusted chin rest"",""Counterbalanced the order of the tasks"",""Opened the experiment in Firefox"",""Made the experiment full screen"",""Encouraged subject to silence phone, put away distractors, etc.""]}","[0]","survey-multi-select","0","9477","0.0-0.0","y7ysemqr","","","","","","","",""
"80636.43000000001","","","instructions","1","90116","0.0-1.0","y7ysemqr","[{""page_index"":0,""viewing_time"":80636.275}]","","","","","","",""
"7663.834999999992","","","instructions","2","97781","0.0-2.0","y7ysemqr","[{""page_index"":0,""viewing_time"":829.3899999999994},{""page_index"":1,""viewing_time"":4420.0899999999965},{""page_index"":2,""viewing_time"":2414.225000000006}]","","","","","","",""
"1692.2749999999942","","","instructions","3","99475","0.0-3.0","y7ysemqr","[{""page_index"":0,""viewing_time"":1692.1549999999988}]","","","","","","",""
"null","","","video-keyboard-response","4","102552","0.0-4.0","y7ysemqr","","","null","","","","",""
"10698.020000000004","","","instructions","5","113251","0.0-5.0","y7ysemqr","[{""page_index"":0,""viewing_time"":672.6399999999994},{""page_index"":1,""viewing_time"":2524},{""page_index"":2,""viewing_time"":884.9800000000105},{""page_index"":3,""viewing_time"":3517.3649999999907},{""page_index"":4,""viewing_time"":3098.8300000000017}]","","","","","","",""
"5302.849999999991","","","instructions","6","118555","0.0-6.0","y7ysemqr","[{""page_index"":0,""viewing_time"":5302.724999999991}]","","","","","","",""
"","","","call-function","7","118556","0.0-7.0","y7ysemqr","","","","","","","",""
"null","","","html-keyboard-response","8","120058","0.0-8.0","y7ysemqr","","<span style=""color:Black; font-size:50px;"">Agent A","null","","","","",""
"null","","","video-keyboard-response","9","123129","0.0-9.0","y7ysemqr","","","null","","Agent A","scrambled","STIM_SET_3/1592298.bmp_pp56_L3_V2_veridical_freeview_isoFalsemismatch_1593146.bmp_L1_fps90.mp4",""
"null","","","html-keyboard-response","10","124631","0.0-10.0","y7ysemqr","","<span style=""color:Black; font-size:50px;"">Agent B","null","","","","",""
"null","","","video-keyboard-response","11","127709","0.0-11.0","y7ysemqr","","","null","","Agent B","veridical","STIM_SET_1_REAL/1593146.bmp_pp93_L1_V1.0_veridical_freeview_isoFalse_fps144.mp4",""
"","","","call-function","12","127711","0.0-12.0","y7ysemqr","","","","","","","",""
"1480.1199999999953","{""judgement"":1}","[0]","survey-likert","13","129192","0.0-13.0","y7ysemqr","","","","","","","","1"
"3024.554999999993","{""confidence"":2}","[0]","survey-likert","14","132218","0.0-14.0","y7ysemqr","","","","","","","",""
"","","","call-function","15","132220","0.0-15.0","y7ysemqr","","","","","","","",""
"null","","","html-keyboard-response","16","133724","0.0-16.0","y7ysemqr","","<span style=""color:Black; font-size:50px;"">Agent A","null","","","","",""
"null","","","video-keyboard-response","17","136803","0.0-17.0","y7ysemqr","","","null","","Agent A","veridical","STIM_SET_1_REAL/713211.bmp_pp100_L3_V1.0_veridical_freeview_isoFalse_fps144.mp4",""
"null","","","html-keyboard-response","18","138309","0.0-18.0","y7ysemqr","","<span style=""color:Black; font-size:50px;"">Agent B","null","","","","",""
"null","","","video-keyboard-response","19","141430","0.0-19.0","y7ysemqr","","","null","","Agent B","scrambled","STIM_SET_3/1592921.bmp_pp69_L3_V2_veridical_freeview_isoFalsemismatch_713211.bmp_L3_fps90.mp4",""
"","","","call-function","20","141431","0.0-20.0","y7ysemqr","","","","","","","",""
"1658.7049999999872","{""judgement"":1}","[0]","survey-likert","21","143091","0.0-21.0","y7ysemqr","","","","","","","","0"
"2668.484999999986","{""confidence"":1}","[0]","survey-likert","22","145762","0.0-22.0","y7ysemqr","","","","","","","",""
"","","","call-function","23","145763","0.0-23.0","y7ysemqr","","","","","","","",""
"null","","","html-keyboard-response","24","147264","0.0-24.0","y7ysemqr","","<span style=""color:Black; font-size:50px;"">Agent A","null","","","","",""
"null","","","video-keyboard-response","25","150365","0.0-25.0","y7ysemqr","","","null","","Agent A","scrambled","STIM_SET_3/713274.bmp_pp73_L3_V2_veridical_freeview_isoFalsemismatch_497950.bmp_L1_fps90.mp4",""
"null","","","html-keyboard-response","26","151872","0.0-26.0","y7ysemqr","","<span style=""color:Black; font-size:50px;"">Agent B","null","","","","",""
"null","","","video-keyboard-response","27","154962","0.0-27.0","y7ysemqr","","","null","","Agent B","veridical","STIM_SET_1_REAL/497950.bmp_pp151_L1_V1.0_veridical_freeview_isoFalse_fps144.mp4",""
"","","","call-function","28","154963","0.0-28.0","y7ysemqr","","","","","","","",""
"2203.850000000006","{""judgement"":1}","[0]","survey-likert","29","157168","0.0-29.0","y7ysemqr","","","","","","","","1"
"1902.0299999999988","{""confidence"":3}","[0]","survey-likert","30","159072","0.0-30.0","y7ysemqr","","","","","","","",""
"","","","call-function","31","159073","0.0-31.0","y7ysemqr","","","","","","","",""
"null","","","html-keyboard-response","32","160576","0.0-32.0","y7ysemqr","","<span style=""color:Black; font-size:50px;"">Agent A","null","","","","",""
"null","","","video-keyboard-response","33","163677","0.0-33.0","y7ysemqr","","","null","","Agent A","veridical","STIM_SET_1_REAL/713620.bmp_pp65_L3_V1.0_veridical_freeview_isoFalse_fps144.mp4",""
"null","","","html-keyboard-response","34","165180","0.0-34.0","y7ysemqr","","<span style=""color:Black; font-size:50px;"">Agent B","null","","","","",""
"null","","","video-keyboard-response","35","168261","0.0-35.0","y7ysemqr","","","null","","Agent B","scrambled","STIM_SET_3/498398.bmp_pp81_L1_V2_veridical_freeview_isoFalsemismatch_713620.bmp_L3_fps90.mp4",""
"","","","call-function","36","168262","0.0-36.0","y7ysemqr","","","","","","","",""
"2911.4400000000023","{""judgement"":0}","[0]","survey-likert","37","171174","0.0-37.0","y7ysemqr","","","","","","","","0"
"1375.0100000000093","{""confidence"":1}","[0]","survey-likert","38","172551","0.0-38.0","y7ysemqr","","","","","","","",""
"","","","call-function","39","172552","0.0-39.0","y7ysemqr","","","","","","","",""
"null","","","html-keyboard-response","40","174054","0.0-40.0","y7ysemqr","","<span style=""color:Black; font-size:50px;"">Agent A","null","","","","",""
"null","","","video-keyboard-response","41","177154","0.0-41.0","y7ysemqr","","","null","","Agent A","veridical","STIM_SET_1_REAL/713017.bmp_pp152_L2_V1.0_veridical_freeview_isoFalse_fps144.mp4",""
"null","","","html-keyboard-response","42","178658","0.0-42.0","y7ysemqr","","<span style=""color:Black; font-size:50px;"">Agent B","null","","","","",""
"null","","","video-keyboard-response","43","181754","0.0-43.0","y7ysemqr","","","null","","Agent B","scrambled","STIM_SET_3/1591975.bmp_pp88_L2_V2_veridical_freeview_isoFalsemismatch_713017.bmp_L2_fps90.mp4",""
"","","","call-function","44","181756","0.0-44.0","y7ysemqr","","","","","","","",""
"2638.6999999999825","{""judgement"":0}","[0]","survey-likert","45","184396","0.0-45.0","y7ysemqr","","","","","","","","0"
"1649.1349999999802","{""confidence"":1}","[0]","survey-likert","46","186047","0.0-46.0","y7ysemqr","","","","","","","",""
"","","","call-function","47","186049","0.0-47.0","y7ysemqr","","","","","","","",""
"null","","","html-keyboard-response","48","187552","0.0-48.0","y7ysemqr","","<span style=""color:Black; font-size:50px;"">Agent A","null","","","","",""
"null","","","video-keyboard-response","49","190623","0.0-49.0","y7ysemqr","","","null","","Agent A","scrambled","STIM_SET_3/61513.bmp_pp75_L1_V2_veridical_freeview_isoFalsemismatch_1159784.bmp_L3_fps90.mp4",""
"null","","","html-keyboard-response","50","192126","0.0-50.0","y7ysemqr","","<span style=""color:Black; font-size:50px;"">Agent B","null","","","","",""
"null","","","video-keyboard-response","51","195201","0.0-51.0","y7ysemqr","","","null","","Agent B","veridical","STIM_SET_1_REAL/1159784.bmp_pp73_L3_V1.0_veridical_freeview_isoFalse_fps144.mp4",""
"","","","call-function","52","195203","0.0-52.0","y7ysemqr","","","","","","","",""
"4670.570000000007","{""judgement"":1}","[0]","survey-likert","53","199874","0.0-53.0","y7ysemqr","","","","","","","","1"
"1555.2449999999953","{""confidence"":1}","[0]","survey-likert","54","201432","0.0-54.0","y7ysemqr","","","","","","","",""
"","","","call-function","55","201433","0.0-55.0","y7ysemqr","","","","","","","",""
"null","","","html-keyboard-response","56","202936","0.0-56.0","y7ysemqr","","<span style=""color:Black; font-size:50px;"">Agent A","null","","","","",""
"null","","","video-keyboard-response","57","206006","0.0-57.0","y7ysemqr","","","null","","Agent A","scrambled","STIM_SET_3/1592305.bmp_pp65_L3_V2_veridical_freeview_isoFalsemismatch_713779.bmp_L2_fps90.mp4",""
"null","","","html-keyboard-response","58","207511","0.0-58.0","y7ysemqr","","<span style=""color:Black; font-size:50px;"">Agent B","null","","","","",""
"null","","","video-keyboard-response","59","210575","0.0-59.0","y7ysemqr","","","null","","Agent B","veridical","STIM_SET_1_REAL/713779.bmp_pp152_L2_V1.0_veridical_freeview_isoFalse_fps144.mp4",""
"","","","call-function","60","210576","0.0-60.0","y7ysemqr","","","","","","","",""
"2766.6699999999837","{""judgement"":0}","[0]","survey-likert","61","213343","0.0-61.0","y7ysemqr","","","","","","","","1"
"1799.6350000000093","{""confidence"":1}","[0]","survey-likert","62","215145","0.0-62.0","y7ysemqr","","","","","","","",""
"","","","call-function","63","215146","0.0-63.0","y7ysemqr","","","","","","","",""
"null","","","html-keyboard-response","64","216647","0.0-64.0","y7ysemqr","","<span style=""color:Black; font-size:50px;"">Agent A","null","","","","",""
"null","","","video-keyboard-response","65","219741","0.0-65.0","y7ysemqr","","","null","","Agent A","veridical","STIM_SET_1_REAL/713089.bmp_pp60_L3_V1.0_veridical_freeview_isoFalse_fps144.mp4",""
"null","","","html-keyboard-response","66","221244","0.0-66.0","y7ysemqr","","<span style=""color:Black; font-size:50px;"">Agent B","null","","","","",""
"null","","","video-keyboard-response","67","224341","0.0-67.0","y7ysemqr","","","null","","Agent B","scrambled","STIM_SET_3/1592201.bmp_pp97_L3_V2_veridical_freeview_isoFalsemismatch_713089.bmp_L3_fps90.mp4",""
"","","","call-function","68","224342","0.0-68.0","y7ysemqr","","","","","","","",""
"1492.5299999999988","{""judgement"":0}","[0]","survey-likert","69","225835","0.0-69.0","y7ysemqr","","","","","","","","0"
"910.4550000000163","{""confidence"":3}","[0]","survey-likert","70","226747","0.0-70.0","y7ysemqr","","","","","","","",""
"","","","call-function","71","226749","0.0-71.0","y7ysemqr","","","","","","","",""
"null","","","html-keyboard-response","72","228251","0.0-72.0","y7ysemqr","","<span style=""color:Black; font-size:50px;"">Agent A","null","","","","",""
"null","","","video-keyboard-response","73","231355","0.0-73.0","y7ysemqr","","","null","","Agent A","veridical","STIM_SET_1_REAL/1592657.bmp_pp98_L1_V1.0_veridical_freeview_isoFalse_fps144.mp4",""
"null","","","html-keyboard-response","74","232860","0.0-74.0","y7ysemqr","","<span style=""color:Black; font-size:50px;"">Agent B","null","","","","",""
"null","","","video-keyboard-response","75","235956","0.0-75.0","y7ysemqr","","","null","","Agent B","scrambled","STIM_SET_3/498261.bmp_pp84_L3_V2_veridical_freeview_isoFalsemismatch_1592657.bmp_L1_fps90.mp4",""
"","","","call-function","76","235957","0.0-76.0","y7ysemqr","","","","","","","",""
"3866.875","{""judgement"":0}","[0]","survey-likert","77","239825","0.0-77.0","y7ysemqr","","","","","","","","0"
"4090.859999999986","{""confidence"":1}","[0]","survey-likert","78","243918","0.0-78.0","y7ysemqr","","","","","","","",""
"","","","call-function","79","243919","0.0-79.0","y7ysemqr","","","","","","","",""
"null","","","html-keyboard-response","80","245422","0.0-80.0","y7ysemqr","","<span style=""color:Black; font-size:50px;"">Agent A","null","","","","",""
"null","","","video-keyboard-response","81","248522","0.0-81.0","y7ysemqr","","","null","","Agent A","veridical","STIM_SET_1_REAL/498253.bmp_pp67_L2_V1.0_veridical_freeview_isoFalse_fps144.mp4",""
"null","","","html-keyboard-response","82","250028","0.0-82.0","y7ysemqr","","<span style=""color:Black; font-size:50px;"">Agent B","null","","","","",""
"null","","","video-keyboard-response","83","253131","0.0-83.0","y7ysemqr","","","null","","Agent B","scrambled","STIM_SET_3/285959.bmp_pp93_L1_V2_veridical_freeview_isoFalsemismatch_498253.bmp_L2_fps90.mp4",""
"","","","call-function","84","253133","0.0-84.0","y7ysemqr","","","","","","","",""
"2843.8949999999895","{""judgement"":0}","[0]","survey-likert","85","255978","0.0-85.0","y7ysemqr","","","","","","","","0"
"2586.804999999993","{""confidence"":2}","[0]","survey-likert","86","258567","0.0-86.0","y7ysemqr","","","","","","","",""
"194840.905","","","instructions","87","453409","0.0-87.0","y7ysemqr","[{""page_index"":0,""viewing_time"":690.5699999999779},{""page_index"":1,""viewing_time"":1723.3650000000198},{""page_index"":2,""viewing_time"":192426.725}]","","","","","","",""
"1273.3300000000163","","","instructions","88","454684","0.0-88.0","y7ysemqr","[{""page_index"":0,""viewing_time"":442.5100000000093},{""page_index"":1,""viewing_time"":432.8400000000256},{""page_index"":2,""viewing_time"":397.86999999999534}]","","","","","","",""
"","","","call-function","89","454685","0.0-89.0","y7ysemqr","","","","","","","",""
"null","","","html-keyboard-response","90","456186","0.0-90.0","y7ysemqr","","<span style=""color:Black; font-size:50px;"">Agent A","null","","","","",""
"null","","","video-keyboard-response","91","459283","0.0-91.0","y7ysemqr","","","null","","Agent A","scrambled","STIM_SET_3/1159592.bmp_pp91_L3_V2_veridical_freeview_isoFalsemismatch_285994.bmp_L3_fps90.mp4",""
"null","","","html-keyboard-response","92","460789","0.0-92.0","y7ysemqr","","<span style=""color:Black; font-size:50px;"">Agent B","null","","","","",""
"null","","","video-keyboard-response","93","463853","0.0-93.0","y7ysemqr","","","null","","Agent B","veridical","STIM_SET_1_REAL/285994.bmp_pp92_L3_V1.0_veridical_freeview_isoFalse_fps144.mp4",""
"","","","call-function","94","463855","0.0-94.0","y7ysemqr","","","","","","","",""
"1618.8400000000256","{""judgement"":0}","[0]","survey-likert","95","465474","0.0-95.0","y7ysemqr","","","","","","","","1"
"1603.210000000021","{""confidence"":1}","[0]","survey-likert","96","467079","0.0-96.0","y7ysemqr","","","","","","","",""
"","","","call-function","97","467080","0.0-97.0","y7ysemqr","","","","","","","",""
"null","","","html-keyboard-response","98","468585","0.0-98.0","y7ysemqr","","<span style=""color:Black; font-size:50px;"">Agent A","null","","","","",""
"null","","","video-keyboard-response","99","471648","0.0-99.0","y7ysemqr","","","null","","Agent A","veridical","STIM_SET_1_REAL/286001.bmp_pp54_L2_V1.0_veridical_freeview_isoFalse_fps144.mp4",""
"null","","","html-keyboard-response","100","473154","0.0-100.0","y7ysemqr","","<span style=""color:Black; font-size:50px;"">Agent B","null","","","","",""
"null","","","video-keyboard-response","101","476236","0.0-101.0","y7ysemqr","","","null","","Agent B","scrambled","STIM_SET_3/1160204.bmp_pp54_L2_V2_veridical_freeview_isoFalsemismatch_286001.bmp_L2_fps90.mp4",""
"","","","call-function","102","476237","0.0-102.0","y7ysemqr","","","","","","","",""
"1666.8150000000023","{""judgement"":0}","[0]","survey-likert","103","477905","0.0-103.0","y7ysemqr","","","","","","","","0"
"1114.515000000014","{""confidence"":1}","[0]","survey-likert","104","479021","0.0-104.0","y7ysemqr","","","","","","","",""
"","","","call-function","105","479022","0.0-105.0","y7ysemqr","","","","","","","",""
"null","","","html-keyboard-response","106","480523","0.0-106.0","y7ysemqr","","<span style=""color:Black; font-size:50px;"">Agent A","null","","","","",""
"null","","","video-keyboard-response","107","483624","0.0-107.0","y7ysemqr","","","null","","Agent A","scrambled","STIM_SET_3/498258.bmp_pp51_L1_V2_veridical_freeview_isoFalsemismatch_498155.bmp_L2_fps90.mp4",""
"null","","","html-keyboard-response","108","485127","0.0-108.0","y7ysemqr","","<span style=""color:Black; font-size:50px;"">Agent B","null","","","","",""
"null","","","video-keyboard-response","109","488230","0.0-109.0","y7ysemqr","","","null","","Agent B","veridical","STIM_SET_1_REAL/498155.bmp_pp61_L2_V1.0_veridical_freeview_isoFalse_fps144.mp4",""
"","","","call-function","110","488232","0.0-110.0","y7ysemqr","","","","","","","",""
"1502.4649999999674","{""judgement"":1}","[0]","survey-likert","111","489737","0.0-111.0","y7ysemqr","","","","","","","","1"
"1431.2700000000186","{""confidence"":2}","[0]","survey-likert","112","491170","0.0-112.0","y7ysemqr","","","","","","","",""
"","","","call-function","113","491172","0.0-113.0","y7ysemqr","","","","","","","",""
"null","","","html-keyboard-response","114","492673","0.0-114.0","y7ysemqr","","<span style=""color:Black; font-size:50px;"">Agent A","null","","","","",""
"null","","","video-keyboard-response","115","495744","0.0-115.0","y7ysemqr","","","null","","Agent A","veridical","STIM_SET_1_REAL/1591961.bmp_pp67_L2_V1.0_veridical_freeview_isoFalse_fps144.mp4",""
"null","","","html-keyboard-response","116","497248","0.0-116.0","y7ysemqr","","<span style=""color:Black; font-size:50px;"">Agent B","null","","","","",""
"null","","","video-keyboard-response","117","500326","0.0-117.0","y7ysemqr","","","null","","Agent B","scrambled","STIM_SET_3/1592530.bmp_pp75_L1_V2_veridical_freeview_isoFalsemismatch_1591961.bmp_L2_fps90.mp4",""
"","","","call-function","118","500328","0.0-118.0","y7ysemqr","","","","","","","",""
"1542.9949999999953","{""judgement"":0}","[0]","survey-likert","119","501872","0.0-119.0","y7ysemqr","","","","","","","","0"
"1121.179999999993","{""confidence"":1}","[0]","survey-likert","120","502995","0.0-120.0","y7ysemqr","","","","","","","",""
"","","","call-function","121","502996","0.0-121.0","y7ysemqr","","","","","","","",""
"null","","","html-keyboard-response","122","504502","0.0-122.0","y7ysemqr","","<span style=""color:Black; font-size:50px;"">Agent A","null","","","","",""
"null","","","video-keyboard-response","123","507568","0.0-123.0","y7ysemqr","","","null","","Agent A","scrambled","STIM_SET_3/1592129.bmp_pp153_L3_V2_veridical_freeview_isoFalsemismatch_1159813.bmp_L2_fps90.mp4",""
"null","","","html-keyboard-response","124","509072","0.0-124.0","y7ysemqr","","<span style=""color:Black; font-size:50px;"">Agent B","null","","","","",""
"null","","","video-keyboard-response","125","512164","0.0-125.0","y7ysemqr","","","null","","Agent B","veridical","STIM_SET_1_REAL/1159813.bmp_pp79_L2_V1.0_veridical_freeview_isoFalse_fps144.mp4",""
"","","","call-function","126","512165","0.0-126.0","y7ysemqr","","","","","","","",""
"6791.51999999996","{""judgement"":1}","[0]","survey-likert","127","518957","0.0-127.0","y7ysemqr","","","","","","","","1"
"1658.2449999999953","{""confidence"":1}","[0]","survey-likert","128","520618","0.0-128.0","y7ysemqr","","","","","","","",""
"","","","call-function","129","520619","0.0-129.0","y7ysemqr","","","","","","","",""
"null","","","html-keyboard-response","130","522122","0.0-130.0","y7ysemqr","","<span style=""color:Black; font-size:50px;"">Agent A","null","","","","",""
"null","","","video-keyboard-response","131","525231","0.0-131.0","y7ysemqr","","","null","","Agent A","scrambled","STIM_SET_3/1160049.bmp_pp53_L2_V2_veridical_freeview_isoFalsemismatch_1591954.bmp_L2_fps90.mp4",""
"null","","","html-keyboard-response","132","526736","0.0-132.0","y7ysemqr","","<span style=""color:Black; font-size:50px;"">Agent B","null","","","","",""
"null","","","video-keyboard-response","133","529850","0.0-133.0","y7ysemqr","","","null","","Agent B","veridical","STIM_SET_1_REAL/1591954.bmp_pp62_L2_V1.0_veridical_freeview_isoFalse_fps144.mp4",""
"","","","call-function","134","529851","0.0-134.0","y7ysemqr","","","","","","","",""
"4378.140000000014","{""judgement"":1}","[0]","survey-likert","135","534230","0.0-135.0","y7ysemqr","","","","","","","","1"
"1675.015000000014","{""confidence"":0}","[0]","survey-likert","136","535908","0.0-136.0","y7ysemqr","","","","","","","",""
"","","","call-function","137","535909","0.0-137.0","y7ysemqr","","","","","","","",""
"null","","","html-keyboard-response","138","537411","0.0-138.0","y7ysemqr","","<span style=""color:Black; font-size:50px;"">Agent A","null","","","","",""
"null","","","video-keyboard-response","139","540505","0.0-139.0","y7ysemqr","","","null","","Agent A","veridical","STIM_SET_1_REAL/1159621.bmp_pp92_L3_V1.0_veridical_freeview_isoFalse_fps144.mp4",""
"null","","","html-keyboard-response","140","542011","0.0-140.0","y7ysemqr","","<span style=""color:Black; font-size:50px;"">Agent B","null","","","","",""
"null","","","video-keyboard-response","141","545103","0.0-141.0","y7ysemqr","","","null","","Agent B","scrambled","STIM_SET_3/1159860.bmp_pp152_L2_V2_veridical_freeview_isoFalsemismatch_1159621.bmp_L3_fps90.mp4",""
"","","","call-function","142","545104","0.0-142.0","y7ysemqr","","","","","","","",""
"1408.9599999999627","{""judgement"":0}","[0]","survey-likert","143","546514","0.0-143.0","y7ysemqr","","","","","","","","0"
"1064.5299999999115","{""confidence"":1}","[0]","survey-likert","144","547580","0.0-144.0","y7ysemqr","","","","","","","",""
"","","","call-function","145","547581","0.0-145.0","y7ysemqr","","","","","","","",""
"null","","","html-keyboard-response","146","549084","0.0-146.0","y7ysemqr","","<span style=""color:Black; font-size:50px;"">Agent A","null","","","","",""
"null","","","video-keyboard-response","147","552178","0.0-147.0","y7ysemqr","","","null","","Agent A","veridical","STIM_SET_1_REAL/1592934.bmp_pp63_L1_V1.0_veridical_freeview_isoFalse_fps144.mp4",""
"null","","","html-keyboard-response","148","553685","0.0-148.0","y7ysemqr","","<span style=""color:Black; font-size:50px;"">Agent B","null","","","","",""
"null","","","video-keyboard-response","149","556774","0.0-149.0","y7ysemqr","","","null","","Agent B","scrambled","STIM_SET_3/1159392.bmp_pp96_L2_V2_veridical_freeview_isoFalsemismatch_1592934.bmp_L1_fps90.mp4",""
"","","","call-function","150","556775","0.0-150.0","y7ysemqr","","","","","","","",""
"1339.5550000000512","{""judgement"":1}","[0]","survey-likert","151","558115","0.0-151.0","y7ysemqr","","","","","","","","0"
"1492.2850000000326","{""confidence"":1}","[0]","survey-likert","152","559609","0.0-152.0","y7ysemqr","","","","","","","",""
"","","","call-function","153","559611","0.0-153.0","y7ysemqr","","","","","","","",""
"null","","","html-keyboard-response","154","561115","0.0-154.0","y7ysemqr","","<span style=""color:Black; font-size:50px;"">Agent A","null","","","","",""
"null","","","video-keyboard-response","155","564192","0.0-155.0","y7ysemqr","","","null","","Agent A","veridical","STIM_SET_1_REAL/1592372.bmp_pp76_L1_V1.0_veridical_freeview_isoFalse_fps144.mp4",""
"null","","","html-keyboard-response","156","565696","0.0-156.0","y7ysemqr","","<span style=""color:Black; font-size:50px;"">Agent B","null","","","","",""
"null","","","video-keyboard-response","157","568774","0.0-157.0","y7ysemqr","","","null","","Agent B","scrambled","STIM_SET_3/107909.bmp_pp95_L2_V2_veridical_freeview_isoFalsemismatch_1592372.bmp_L1_fps90.mp4",""
"","","","call-function","158","568775","0.0-158.0","y7ysemqr","","","","","","","",""
"1619.920000000042","{""judgement"":0}","[0]","survey-likert","159","570396","0.0-159.0","y7ysemqr","","","","","","","","0"
"1698.5","{""confidence"":2}","[0]","survey-likert","160","572096","0.0-160.0","y7ysemqr","","","","","","","",""
"","","","call-function","161","572097","0.0-161.0","y7ysemqr","","","","","","","",""
"null","","","html-keyboard-response","162","573600","0.0-162.0","y7ysemqr","","<span style=""color:Black; font-size:50px;"">Agent A","null","","","","",""
"null","","","video-keyboard-response","163","576671","0.0-163.0","y7ysemqr","","","null","","Agent A","veridical","STIM_SET_1_REAL/713135.bmp_pp54_L2_V1.0_veridical_freeview_isoFalse_fps144.mp4",""
"null","","","html-keyboard-response","164","578175","0.0-164.0","y7ysemqr","","<span style=""color:Black; font-size:50px;"">Agent B","null","","","","",""
"null","","","video-keyboard-response","165","581239","0.0-165.0","y7ysemqr","","","null","","Agent B","scrambled","STIM_SET_3/1592567.bmp_pp70_L2_V2_veridical_freeview_isoFalsemismatch_713135.bmp_L2_fps90.mp4",""
"","","","call-function","166","581240","0.0-166.0","y7ysemqr","","","","","","","",""
"2244.640000000014","{""judgement"":0}","[0]","survey-likert","167","583486","0.0-167.0","y7ysemqr","","","","","","","","0"
"1959.0599999999395","{""confidence"":0}","[0]","survey-likert","168","585446","0.0-168.0","y7ysemqr","","","","","","","",""
"1767.530000000028","","","instructions","169","587215","0.0-169.0","y7ysemqr","[{""page_index"":0,""viewing_time"":769.609999999986},{""page_index"":1,""viewing_time"":600.7100000000792},{""page_index"":2,""viewing_time"":397.0549999999348}]","","","","","","",""
"1281.7750000000233","","","instructions","170","588498","0.0-170.0","y7ysemqr","[{""page_index"":0,""viewing_time"":436.6700000000419},{""page_index"":1,""viewing_time"":374.01500000001397},{""page_index"":2,""viewing_time"":470.9899999999907}]","","","","","","",""
"","","","call-function","171","588499","0.0-171.0","y7ysemqr","","","","","","","",""
"null","","","html-keyboard-response","172","590003","0.0-172.0","y7ysemqr","","<span style=""color:Black; font-size:50px;"">Agent A","null","","","","",""
"null","","","video-keyboard-response","173","593099","0.0-173.0","y7ysemqr","","","null","","Agent A","veridical","STIM_SET_1_REAL/1592499.bmp_pp96_L2_V1.0_veridical_freeview_isoFalse_fps144.mp4",""
"null","","","html-keyboard-response","174","594604","0.0-174.0","y7ysemqr","","<span style=""color:Black; font-size:50px;"">Agent B","null","","","","",""
"null","","","video-keyboard-response","175","597702","0.0-175.0","y7ysemqr","","","null","","Agent B","scrambled","STIM_SET_3/1159819.bmp_pp151_L1_V2_veridical_freeview_isoFalsemismatch_1592499.bmp_L2_fps90.mp4",""
"","","","call-function","176","597703","0.0-176.0","y7ysemqr","","","","","","","",""
"1447.2849999999162","{""judgement"":0}","[0]","survey-likert","177","599151","0.0-177.0","y7ysemqr","","","","","","","","0"
"1401.594999999972","{""confidence"":3}","[0]","survey-likert","178","600554","0.0-178.0","y7ysemqr","","","","","","","",""
"","","","call-function","179","600555","0.0-179.0","y7ysemqr","","","","","","","",""
"null","","","html-keyboard-response","180","602057","0.0-180.0","y7ysemqr","","<span style=""color:Black; font-size:50px;"">Agent A","null","","","","",""
"null","","","video-keyboard-response","181","605155","0.0-181.0","y7ysemqr","","","null","","Agent A","veridical","STIM_SET_1_REAL/1159829.bmp_pp91_L3_V1.0_veridical_freeview_isoFalse_fps144.mp4",""
"null","","","html-keyboard-response","182","606659","0.0-182.0","y7ysemqr","","<span style=""color:Black; font-size:50px;"">Agent B","null","","","","",""
"null","","","video-keyboard-response","183","609762","0.0-183.0","y7ysemqr","","","null","","Agent B","scrambled","STIM_SET_3/1159956.bmp_pp59_L3_V2_veridical_freeview_isoFalsemismatch_1159829.bmp_L3_fps90.mp4",""
"","","","call-function","184","609764","0.0-184.0","y7ysemqr","","","","","","","",""
"1620.4100000000326","{""judgement"":0}","[0]","survey-likert","185","611386","0.0-185.0","y7ysemqr","","","","","","","","0"
"1614.8699999999953","{""confidence"":1}","[0]","survey-likert","186","613003","0.0-186.0","y7ysemqr","","","","","","","",""
"","","","call-function","187","613004","0.0-187.0","y7ysemqr","","","","","","","",""
"null","","","html-keyboard-response","188","614509","0.0-188.0","y7ysemqr","","<span style=""color:Black; font-size:50px;"">Agent A","null","","","","",""
"null","","","video-keyboard-response","189","617595","0.0-189.0","y7ysemqr","","","null","","Agent A","scrambled","STIM_SET_3/150463.bmp_pp55_L3_V2_veridical_freeview_isoFalsemismatch_1592619.bmp_L3_fps90.mp4",""
"null","","","html-keyboard-response","190","619099","0.0-190.0","y7ysemqr","","<span style=""color:Black; font-size:50px;"">Agent B","null","","","","",""
"null","","","video-keyboard-response","191","622161","0.0-191.0","y7ysemqr","","","null","","Agent B","veridical","STIM_SET_1_REAL/1592619.bmp_pp56_L3_V1.0_veridical_freeview_isoFalse_fps144.mp4",""
"","","","call-function","192","622163","0.0-192.0","y7ysemqr","","","","","","","",""
"1343.7550000000047","{""judgement"":1}","[0]","survey-likert","193","623508","0.0-193.0","y7ysemqr","","","","","","","","1"
"3431.765000000014","{""confidence"":3}","[0]","survey-likert","194","626941","0.0-194.0","y7ysemqr","","","","","","","",""
"","","","call-function","195","626943","0.0-195.0","y7ysemqr","","","","","","","",""
"null","","","html-keyboard-response","196","628446","0.0-196.0","y7ysemqr","","<span style=""color:Black; font-size:50px;"">Agent A","null","","","","",""
"null","","","video-keyboard-response","197","631517","0.0-197.0","y7ysemqr","","","null","","Agent A","scrambled","STIM_SET_3/498396.bmp_pp99_L2_V2_veridical_freeview_isoFalsemismatch_713371.bmp_L1_fps90.mp4",""
"null","","","html-keyboard-response","198","633022","0.0-198.0","y7ysemqr","","<span style=""color:Black; font-size:50px;"">Agent B","null","","","","",""
"null","","","video-keyboard-response","199","636099","0.0-199.0","y7ysemqr","","","null","","Agent B","veridical","STIM_SET_1_REAL/713371.bmp_pp68_L1_V1.0_veridical_freeview_isoFalse_fps144.mp4",""
"","","","call-function","200","636101","0.0-200.0","y7ysemqr","","","","","","","",""
"1617.9000000000233","{""judgement"":1}","[0]","survey-likert","201","637719","0.0-201.0","y7ysemqr","","","","","","","","1"
"1307.530000000028","{""confidence"":2}","[0]","survey-likert","202","639029","0.0-202.0","y7ysemqr","","","","","","","",""
"","","","call-function","203","639030","0.0-203.0","y7ysemqr","","","","","","","",""
"null","","","html-keyboard-response","204","640535","0.0-204.0","y7ysemqr","","<span style=""color:Black; font-size:50px;"">Agent A","null","","","","",""
"null","","","video-keyboard-response","205","643633","0.0-205.0","y7ysemqr","","","null","","Agent A","scrambled","STIM_SET_3/713829.bmp_pp60_L3_V2_veridical_freeview_isoFalsemismatch_1159440.bmp_L1_fps90.mp4",""
"null","","","html-keyboard-response","206","645139","0.0-206.0","y7ysemqr","","<span style=""color:Black; font-size:50px;"">Agent B","null","","","","",""
"null","","","video-keyboard-response","207","648245","0.0-207.0","y7ysemqr","","","null","","Agent B","veridical","STIM_SET_1_REAL/1159440.bmp_pp98_L1_V1.0_veridical_freeview_isoFalse_fps144.mp4",""
"","","","call-function","208","648246","0.0-208.0","y7ysemqr","","","","","","","",""
"1431.045000000042","{""judgement"":1}","[0]","survey-likert","209","649679","0.0-209.0","y7ysemqr","","","","","","","","1"
"1314.405000000028","{""confidence"":3}","[0]","survey-likert","210","650996","0.0-210.0","y7ysemqr","","","","","","","",""
"","","","call-function","211","650997","0.0-211.0","y7ysemqr","","","","","","","",""
"null","","","html-keyboard-response","212","652503","0.0-212.0","y7ysemqr","","<span style=""color:Black; font-size:50px;"">Agent A","null","","","","",""
"null","","","video-keyboard-response","213","655607","0.0-213.0","y7ysemqr","","","null","","Agent A","veridical","STIM_SET_1_REAL/1592807.bmp_pp68_L1_V1.0_veridical_freeview_isoFalse_fps144.mp4",""
"null","","","html-keyboard-response","214","657114","0.0-214.0","y7ysemqr","","<span style=""color:Black; font-size:50px;"">Agent B","null","","","","",""
"null","","","video-keyboard-response","215","660221","0.0-215.0","y7ysemqr","","","null","","Agent B","scrambled","STIM_SET_3/713652.bmp_pp89_L1_V2_veridical_freeview_isoFalsemismatch_1592807.bmp_L1_fps90.mp4",""
"","","","call-function","216","660223","0.0-216.0","y7ysemqr","","","","","","","",""
"2061.704999999958","{""judgement"":0}","[0]","survey-likert","217","662285","0.0-217.0","y7ysemqr","","","","","","","","0"
"1219.75","{""confidence"":2}","[0]","survey-likert","218","663507","0.0-218.0","y7ysemqr","","","","","","","",""
"","","","call-function","219","663508","0.0-219.0","y7ysemqr","","","","","","","",""
"null","","","html-keyboard-response","220","665013","0.0-220.0","y7ysemqr","","<span style=""color:Black; font-size:50px;"">Agent A","null","","","","",""
"null","","","video-keyboard-response","221","668123","0.0-221.0","y7ysemqr","","","null","","Agent A","veridical","STIM_SET_1_REAL/1593041.bmp_pp58_L1_V1.0_veridical_freeview_isoFalse_fps144.mp4",""
"null","","","html-keyboard-response","222","669626","0.0-222.0","y7ysemqr","","<span style=""color:Black; font-size:50px;"">Agent B","null","","","","",""
"null","","","video-keyboard-response","223","672728","0.0-223.0","y7ysemqr","","","null","","Agent B","scrambled","STIM_SET_3/1591781.bmp_pp63_L1_V2_veridical_freeview_isoFalsemismatch_1593041.bmp_L1_fps90.mp4",""
"","","","call-function","224","672729","0.0-224.0","y7ysemqr","","","","","","","",""
"6260.060000000056","{""judgement"":0}","[0]","survey-likert","225","678990","0.0-225.0","y7ysemqr","","","","","","","","0"
"1178.780000000028","{""confidence"":0}","[0]","survey-likert","226","680170","0.0-226.0","y7ysemqr","","","","","","","",""
"","","","call-function","227","680171","0.0-227.0","y7ysemqr","","","","","","","",""
"null","","","html-keyboard-response","228","681674","0.0-228.0","y7ysemqr","","<span style=""color:Black; font-size:50px;"">Agent A","null","","","","",""
"null","","","video-keyboard-response","229","684738","0.0-229.0","y7ysemqr","","","null","","Agent A","scrambled","STIM_SET_3/1592951.bmp_pp80_L3_V2_veridical_freeview_isoFalsemismatch_712977.bmp_L1_fps90.mp4",""
"null","","","html-keyboard-response","230","686241","0.0-230.0","y7ysemqr","","<span style=""color:Black; font-size:50px;"">Agent B","null","","","","",""
"null","","","video-keyboard-response","231","689320","0.0-231.0","y7ysemqr","","","null","","Agent B","veridical","STIM_SET_1_REAL/712977.bmp_pp51_L1_V1.0_veridical_freeview_isoFalse_fps144.mp4",""
"","","","call-function","232","689321","0.0-232.0","y7ysemqr","","","","","","","",""
"1610.1800000000512","{""judgement"":1}","[0]","survey-likert","233","690932","0.0-233.0","y7ysemqr","","","","","","","","1"
"3124.5250000000233","{""confidence"":1}","[0]","survey-likert","234","694058","0.0-234.0","y7ysemqr","","","","","","","",""
"","","","call-function","235","694059","0.0-235.0","y7ysemqr","","","","","","","",""
"null","","","html-keyboard-response","236","695562","0.0-236.0","y7ysemqr","","<span style=""color:Black; font-size:50px;"">Agent A","null","","","","",""
"null","","","video-keyboard-response","237","698639","0.0-237.0","y7ysemqr","","","null","","Agent A","veridical","STIM_SET_1_REAL/1591994.bmp_pp69_L3_V1.0_veridical_freeview_isoFalse_fps144.mp4",""
"null","","","html-keyboard-response","238","700143","0.0-238.0","y7ysemqr","","<span style=""color:Black; font-size:50px;"">Agent B","null","","","","",""
"null","","","video-keyboard-response","239","703208","0.0-239.0","y7ysemqr","","","null","","Agent B","scrambled","STIM_SET_3/713328.bmp_pp86_L2_V2_veridical_freeview_isoFalsemismatch_1591994.bmp_L3_fps90.mp4",""
"","","","call-function","240","703209","0.0-240.0","y7ysemqr","","","","","","","",""
"2231.289999999921","{""judgement"":0}","[0]","survey-likert","241","705442","0.0-241.0","y7ysemqr","","","","","","","","0"
"1130.2350000001024","{""confidence"":1}","[0]","survey-likert","242","706574","0.0-242.0","y7ysemqr","","","","","","","",""
"","","","call-function","243","706575","0.0-243.0","y7ysemqr","","","","","","","",""
"null","","","html-keyboard-response","244","708081","0.0-244.0","y7ysemqr","","<span style=""color:Black; font-size:50px;"">Agent A","null","","","","",""
"null","","","video-keyboard-response","245","711202","0.0-245.0","y7ysemqr","","","null","","Agent A","scrambled","STIM_SET_3/1592568.bmp_pp71_L1_V2_veridical_freeview_isoFalsemismatch_285905.bmp_L1_fps90.mp4",""
"null","","","html-keyboard-response","246","712705","0.0-246.0","y7ysemqr","","<span style=""color:Black; font-size:50px;"">Agent B","null","","","","",""
"null","","","video-keyboard-response","247","715812","0.0-247.0","y7ysemqr","","","null","","Agent B","veridical","STIM_SET_1_REAL/285905.bmp_pp57_L1_V1.0_veridical_freeview_isoFalse_fps144.mp4",""
"","","","call-function","248","715813","0.0-248.0","y7ysemqr","","","","","","","",""
"1231.2850000000326","{""judgement"":1}","[0]","survey-likert","249","717046","0.0-249.0","y7ysemqr","","","","","","","","1"
"1285.969999999972","{""confidence"":3}","[0]","survey-likert","250","718333","0.0-250.0","y7ysemqr","","","","","","","",""
"1200.0749999999534","","","instructions","251","719535","0.0-251.0","y7ysemqr","[{""page_index"":0,""viewing_time"":719.5749999999534},{""page_index"":1,""viewing_time"":255.30500000005122},{""page_index"":2,""viewing_time"":225.03000000002794}]","","","","","","",""
"1204.7399999999907","","","instructions","252","720740","0.0-252.0","y7ysemqr","[{""page_index"":0,""viewing_time"":413.71000000007916},{""page_index"":1,""viewing_time"":363.7949999999255},{""page_index"":2,""viewing_time"":427.13000000000466}]","","","","","","",""
"","","","call-function","253","720741","0.0-253.0","y7ysemqr","","","","","","","",""
"null","","","html-keyboard-response","254","722246","0.0-254.0","y7ysemqr","","<span style=""color:Black; font-size:50px;"">Agent A","null","","","","",""
"null","","","video-keyboard-response","255","725347","0.0-255.0","y7ysemqr","","","null","","Agent A","veridical","STIM_SET_1_REAL/1159515.bmp_pp84_L3_V1.0_veridical_freeview_isoFalse_fps144.mp4",""
"null","","","html-keyboard-response","256","726850","0.0-256.0","y7ysemqr","","<span style=""color:Black; font-size:50px;"">Agent B","null","","","","",""
"null","","","video-keyboard-response","257","729956","0.0-257.0","y7ysemqr","","","null","","Agent B","scrambled","STIM_SET_3/1159874.bmp_pp96_L2_V2_veridical_freeview_isoFalsemismatch_1159515.bmp_L3_fps90.mp4",""
"","","","call-function","258","729959","0.0-258.0","y7ysemqr","","","","","","","",""
"1776.9150000000373","{""judgement"":0}","[0]","survey-likert","259","731737","0.0-259.0","y7ysemqr","","","","","","","","0"
"1185.9199999999255","{""confidence"":2}","[0]","survey-likert","260","732925","0.0-260.0","y7ysemqr","","","","","","","",""
"","","","call-function","261","732926","0.0-261.0","y7ysemqr","","","","","","","",""
"null","","","html-keyboard-response","262","734433","0.0-262.0","y7ysemqr","","<span style=""color:Black; font-size:50px;"">Agent A","null","","","","",""
"null","","","video-keyboard-response","263","737497","0.0-263.0","y7ysemqr","","","null","","Agent A","scrambled","STIM_SET_3/1159427.bmp_pp98_L1_V2_veridical_freeview_isoFalsemismatch_1591876.bmp_L1_fps90.mp4",""
"null","","","html-keyboard-response","264","739000","0.0-264.0","y7ysemqr","","<span style=""color:Black; font-size:50px;"">Agent B","null","","","","",""
"null","","","video-keyboard-response","265","742076","0.0-265.0","y7ysemqr","","","null","","Agent B","veridical","STIM_SET_1_REAL/1591876.bmp_pp63_L1_V1.0_veridical_freeview_isoFalse_fps144.mp4",""
"","","","call-function","266","742077","0.0-266.0","y7ysemqr","","","","","","","",""
"1526.515000000014","{""judgement"":1}","[0]","survey-likert","267","743605","0.0-267.0","y7ysemqr","","","","","","","","1"
"1134.9149999999208","{""confidence"":2}","[0]","survey-likert","268","744742","0.0-268.0","y7ysemqr","","","","","","","",""
"","","","call-function","269","744744","0.0-269.0","y7ysemqr","","","","","","","",""
"null","","","html-keyboard-response","270","746247","0.0-270.0","y7ysemqr","","<span style=""color:Black; font-size:50px;"">Agent A","null","","","","",""
"null","","","video-keyboard-response","271","749325","0.0-271.0","y7ysemqr","","","null","","Agent A","veridical","STIM_SET_1_REAL/498175.bmp_pp154_L1_V1.0_veridical_freeview_isoFalse_fps144.mp4",""
"null","","","html-keyboard-response","272","750828","0.0-272.0","y7ysemqr","","<span style=""color:Black; font-size:50px;"">Agent B","null","","","","",""
"null","","","video-keyboard-response","273","753890","0.0-273.0","y7ysemqr","","","null","","Agent B","scrambled","STIM_SET_3/713689.bmp_pp153_L3_V2_veridical_freeview_isoFalsemismatch_498175.bmp_L1_fps90.mp4",""
"","","","call-function","274","753891","0.0-274.0","y7ysemqr","","","","","","","",""
"3019.32500000007","{""judgement"":0}","[0]","survey-likert","275","756912","0.0-275.0","y7ysemqr","","","","","","","","0"
"1012.6149999999907","{""confidence"":1}","[0]","survey-likert","276","757926","0.0-276.0","y7ysemqr","","","","","","","",""
"","","","call-function","277","757927","0.0-277.0","y7ysemqr","","","","","","","",""
"null","","","html-keyboard-response","278","759430","0.0-278.0","y7ysemqr","","<span style=""color:Black; font-size:50px;"">Agent A","null","","","","",""
"null","","","video-keyboard-response","279","762523","0.0-279.0","y7ysemqr","","","null","","Agent A","scrambled","STIM_SET_3/1591920.bmp_pp97_L3_V2_veridical_freeview_isoFalsemismatch_1592804.bmp_L3_fps90.mp4",""
"null","","","html-keyboard-response","280","764029","0.0-280.0","y7ysemqr","","<span style=""color:Black; font-size:50px;"">Agent B","null","","","","",""
"null","","","video-keyboard-response","281","767132","0.0-281.0","y7ysemqr","","","null","","Agent B","veridical","STIM_SET_1_REAL/1592804.bmp_pp91_L3_V1.0_veridical_freeview_isoFalse_fps144.mp4",""
"","","","call-function","282","767133","0.0-282.0","y7ysemqr","","","","","","","",""
"1507.1949999999488","{""judgement"":0}","[0]","survey-likert","283","768641","0.0-283.0","y7ysemqr","","","","","","","","1"
"2252.4599999999627","{""confidence"":1}","[0]","survey-likert","284","770895","0.0-284.0","y7ysemqr","","","","","","","",""
"","","","call-function","285","770896","0.0-285.0","y7ysemqr","","","","","","","",""
"null","","","html-keyboard-response","286","772400","0.0-286.0","y7ysemqr","","<span style=""color:Black; font-size:50px;"">Agent A","null","","","","",""
"null","","","video-keyboard-response","287","775486","0.0-287.0","y7ysemqr","","","null","","Agent A","veridical","STIM_SET_1_REAL/498149.bmp_pp99_L2_V1.0_veridical_freeview_isoFalse_fps144.mp4",""
"null","","","html-keyboard-response","288","776991","0.0-288.0","y7ysemqr","","<span style=""color:Black; font-size:50px;"">Agent B","null","","","","",""
"null","","","video-keyboard-response","289","780094","0.0-289.0","y7ysemqr","","","null","","Agent B","scrambled","STIM_SET_3/107955.bmp_pp90_L2_V2_veridical_freeview_isoFalsemismatch_498149.bmp_L2_fps90.mp4",""
"","","","call-function","290","780095","0.0-290.0","y7ysemqr","","","","","","","",""
"1206.0200000000186","{""judgement"":0}","[0]","survey-likert","291","781302","0.0-291.0","y7ysemqr","","","","","","","","0"
"2638.2750000000233","{""confidence"":3}","[0]","survey-likert","292","783942","0.0-292.0","y7ysemqr","","","","","","","",""
"","","","call-function","293","783943","0.0-293.0","y7ysemqr","","","","","","","",""
"null","","","html-keyboard-response","294","785445","0.0-294.0","y7ysemqr","","<span style=""color:Black; font-size:50px;"">Agent A","null","","","","",""
"null","","","video-keyboard-response","295","788546","0.0-295.0","y7ysemqr","","","null","","Agent A","scrambled","STIM_SET_3/713858.bmp_pp57_L1_V2_veridical_freeview_isoFalsemismatch_713749.bmp_L2_fps90.mp4",""
"null","","","html-keyboard-response","296","790051","0.0-296.0","y7ysemqr","","<span style=""color:Black; font-size:50px;"">Agent B","null","","","","",""
"null","","","video-keyboard-response","297","793154","0.0-297.0","y7ysemqr","","","null","","Agent B","veridical","STIM_SET_1_REAL/713749.bmp_pp88_L2_V1.0_veridical_freeview_isoFalse_fps144.mp4",""
"","","","call-function","298","793155","0.0-298.0","y7ysemqr","","","","","","","",""
"3822.015000000014","{""judgement"":1}","[0]","survey-likert","299","796978","0.0-299.0","y7ysemqr","","","","","","","","1"
"1294.795000000042","{""confidence"":1}","[0]","survey-likert","300","798275","0.0-300.0","y7ysemqr","","","","","","","",""
"","","","call-function","301","798276","0.0-301.0","y7ysemqr","","","","","","","",""
"null","","","html-keyboard-response","302","799780","0.0-302.0","y7ysemqr","","<span style=""color:Black; font-size:50px;"">Agent A","null","","","","",""
"null","","","video-keyboard-response","303","802856","0.0-303.0","y7ysemqr","","","null","","Agent A","scrambled","STIM_SET_3/1159973.bmp_pp98_L1_V2_veridical_freeview_isoFalsemismatch_285933.bmp_L1_fps90.mp4",""
"null","","","html-keyboard-response","304","804357","0.0-304.0","y7ysemqr","","<span style=""color:Black; font-size:50px;"">Agent B","null","","","","",""
"null","","","video-keyboard-response","305","807426","0.0-305.0","y7ysemqr","","","null","","Agent B","veridical","STIM_SET_1_REAL/285933.bmp_pp81_L1_V1.0_veridical_freeview_isoFalse_fps144.mp4",""
"","","","call-function","306","807427","0.0-306.0","y7ysemqr","","","","","","","",""
"1457.5650000000605","{""judgement"":1}","[0]","survey-likert","307","808885","0.0-307.0","y7ysemqr","","","","","","","","1"
"1400.9449999999488","{""confidence"":2}","[0]","survey-likert","308","810288","0.0-308.0","y7ysemqr","","","","","","","",""
"","","","call-function","309","810289","0.0-309.0","y7ysemqr","","","","","","","",""
"null","","","html-keyboard-response","310","811793","0.0-310.0","y7ysemqr","","<span style=""color:Black; font-size:50px;"">Agent A","null","","","","",""
"null","","","video-keyboard-response","311","814866","0.0-311.0","y7ysemqr","","","null","","Agent A","veridical","STIM_SET_1_REAL/1160127.bmp_pp90_L2_V1.0_veridical_freeview_isoFalse_fps144.mp4",""
"null","","","html-keyboard-response","312","816370","0.0-312.0","y7ysemqr","","<span style=""color:Black; font-size:50px;"">Agent B","null","","","","",""
"null","","","video-keyboard-response","313","819445","0.0-313.0","y7ysemqr","","","null","","Agent B","scrambled","STIM_SET_3/498372.bmp_pp95_L2_V2_veridical_freeview_isoFalsemismatch_1160127.bmp_L2_fps90.mp4",""
"","","","call-function","314","819446","0.0-314.0","y7ysemqr","","","","","","","",""
"7206.040000000037","{""judgement"":0}","[0]","survey-likert","315","826653","0.0-315.0","y7ysemqr","","","","","","","","0"
"854.4549999999581","{""confidence"":0}","[0]","survey-likert","316","827509","0.0-316.0","y7ysemqr","","","","","","","",""
"","","","call-function","317","827510","0.0-317.0","y7ysemqr","","","","","","","",""
"null","","","html-keyboard-response","318","829016","0.0-318.0","y7ysemqr","","<span style=""color:Black; font-size:50px;"">Agent A","null","","","","",""
"null","","","video-keyboard-response","319","832105","0.0-319.0","y7ysemqr","","","null","","Agent A","scrambled","STIM_SET_3/285684.bmp_pp80_L3_V2_veridical_freeview_isoFalsemismatch_713760.bmp_L1_fps90.mp4",""
"null","","","html-keyboard-response","320","833607","0.0-320.0","y7ysemqr","","<span style=""color:Black; font-size:50px;"">Agent B","null","","","","",""
"null","","","video-keyboard-response","321","836712","0.0-321.0","y7ysemqr","","","null","","Agent B","veridical","STIM_SET_1_REAL/713760.bmp_pp81_L1_V1.0_veridical_freeview_isoFalse_fps144.mp4",""
"","","","call-function","322","836714","0.0-322.0","y7ysemqr","","","","","","","",""
"1430.2850000000326","{""judgement"":1}","[0]","survey-likert","323","838145","0.0-323.0","y7ysemqr","","","","","","","","1"
"2729.805000000051","{""confidence"":2}","[0]","survey-likert","324","840877","0.0-324.0","y7ysemqr","","","","","","","",""
"","","","call-function","325","840878","0.0-325.0","y7ysemqr","","","","","","","",""
"null","","","html-keyboard-response","326","842381","0.0-326.0","y7ysemqr","","<span style=""color:Black; font-size:50px;"">Agent A","null","","","","",""
"null","","","video-keyboard-response","327","845490","0.0-327.0","y7ysemqr","","","null","","Agent A","scrambled","STIM_SET_3/713381.bmp_pp82_L2_V2_veridical_freeview_isoFalsemismatch_1159572.bmp_L1_fps90.mp4",""
"null","","","html-keyboard-response","328","846992","0.0-328.0","y7ysemqr","","<span style=""color:Black; font-size:50px;"">Agent B","null","","","","",""
"null","","","video-keyboard-response","329","850077","0.0-329.0","y7ysemqr","","","null","","Agent B","veridical","STIM_SET_1_REAL/1159572.bmp_pp71_L1_V1.0_veridical_freeview_isoFalse_fps144.mp4",""
"","","","call-function","330","850078","0.0-330.0","y7ysemqr","","","","","","","",""
"3523.0200000000186","{""judgement"":1}","[0]","survey-likert","331","853602","0.0-331.0","y7ysemqr","","","","","","","","1"
"1890.7299999999814","{""confidence"":1}","[0]","survey-likert","332","855495","0.0-332.0","y7ysemqr","","","","","","","",""
"1344.9949999999953","","","instructions","333","856841","0.0-333.0","y7ysemqr","[{""page_index"":0,""viewing_time"":939.7000000000698},{""page_index"":1,""viewing_time"":249.93999999994412},{""page_index"":2,""viewing_time"":155.17500000004657}]","","","","","","",""
"1110.1699999999255","","","instructions","334","857953","0.0-334.0","y7ysemqr","[{""page_index"":0,""viewing_time"":249.65499999991152},{""page_index"":1,""viewing_time"":374.125},{""page_index"":2,""viewing_time"":486.2750000000233}]","","","","","","",""
"","","","call-function","335","857955","0.0-335.0","y7ysemqr","","","","","","","",""
"null","","","html-keyboard-response","336","859459","0.0-336.0","y7ysemqr","","<span style=""color:Black; font-size:50px;"">Agent A","null","","","","",""
"null","","","video-keyboard-response","337","862522","0.0-337.0","y7ysemqr","","","null","","Agent A","scrambled","STIM_SET_3/285932.bmp_pp64_L1_V2_veridical_freeview_isoFalsemismatch_1159855.bmp_L2_fps90.mp4",""
"null","","","html-keyboard-response","338","864027","0.0-338.0","y7ysemqr","","<span style=""color:Black; font-size:50px;"">Agent B","null","","","","",""
"null","","","video-keyboard-response","339","867121","0.0-339.0","y7ysemqr","","","null","","Agent B","veridical","STIM_SET_1_REAL/1159855.bmp_pp99_L2_V1.0_veridical_freeview_isoFalse_fps144.mp4",""
"","","","call-function","340","867123","0.0-340.0","y7ysemqr","","","","","","","",""
"1442.844999999972","{""judgement"":1}","[0]","survey-likert","341","868566","0.0-341.0","y7ysemqr","","","","","","","","1"
"992.0800000000745","{""confidence"":2}","[0]","survey-likert","342","869560","0.0-342.0","y7ysemqr","","","","","","","",""
"","","","call-function","343","869562","0.0-343.0","y7ysemqr","","","","","","","",""
"null","","","html-keyboard-response","344","871068","0.0-344.0","y7ysemqr","","<span style=""color:Black; font-size:50px;"">Agent A","null","","","","",""
"null","","","video-keyboard-response","345","874143","0.0-345.0","y7ysemqr","","","null","","Agent A","veridical","STIM_SET_1_REAL/285751.bmp_pp55_L3_V1.0_veridical_freeview_isoFalse_fps144.mp4",""
"null","","","html-keyboard-response","346","875648","0.0-346.0","y7ysemqr","","<span style=""color:Black; font-size:50px;"">Agent B","null","","","","",""
"null","","","video-keyboard-response","347","878731","0.0-347.0","y7ysemqr","","","null","","Agent B","scrambled","STIM_SET_3/285946.bmp_pp79_L2_V2_veridical_freeview_isoFalsemismatch_285751.bmp_L3_fps90.mp4",""
"","","","call-function","348","878732","0.0-348.0","y7ysemqr","","","","","","","",""
"1626.0250000000233","{""judgement"":0}","[0]","survey-likert","349","880359","0.0-349.0","y7ysemqr","","","","","","","","0"
"1109.8150000000605","{""confidence"":2}","[0]","survey-likert","350","881471","0.0-350.0","y7ysemqr","","","","","","","",""
"","","","call-function","351","881472","0.0-351.0","y7ysemqr","","","","","","","",""
"null","","","html-keyboard-response","352","882974","0.0-352.0","y7ysemqr","","<span style=""color:Black; font-size:50px;"">Agent A","null","","","","",""
"null","","","video-keyboard-response","353","886082","0.0-353.0","y7ysemqr","","","null","","Agent A","veridical","STIM_SET_1_REAL/1160168.bmp_pp53_L2_V1.0_veridical_freeview_isoFalse_fps144.mp4",""
"null","","","html-keyboard-response","354","887590","0.0-354.0","y7ysemqr","","<span style=""color:Black; font-size:50px;"">Agent B","null","","","","",""
"null","","","video-keyboard-response","355","890710","0.0-355.0","y7ysemqr","","","null","","Agent B","scrambled","STIM_SET_3/1592857.bmp_pp52_L1_V2_veridical_freeview_isoFalsemismatch_1160168.bmp_L2_fps90.mp4",""
"","","","call-function","356","890711","0.0-356.0","y7ysemqr","","","","","","","",""
"3708.7249999999767","{""judgement"":1}","[0]","survey-likert","357","894421","0.0-357.0","y7ysemqr","","","","","","","","0"
"990.0300000000279","{""confidence"":1}","[0]","survey-likert","358","895412","0.0-358.0","y7ysemqr","","","","","","","",""
"","","","call-function","359","895413","0.0-359.0","y7ysemqr","","","","","","","",""
"null","","","html-keyboard-response","360","896918","0.0-360.0","y7ysemqr","","<span style=""color:Black; font-size:50px;"">Agent A","null","","","","",""
"null","","","video-keyboard-response","361","900007","0.0-361.0","y7ysemqr","","","null","","Agent A","veridical","STIM_SET_1_REAL/1593035.bmp_pp94_L2_V1.0_veridical_freeview_isoFalse_fps144.mp4",""
"null","","","html-keyboard-response","362","901514","0.0-362.0","y7ysemqr","","<span style=""color:Black; font-size:50px;"">Agent B","null","","","","",""
"null","","","video-keyboard-response","363","904599","0.0-363.0","y7ysemqr","","","null","","Agent B","scrambled","STIM_SET_3/1159325.bmp_pp67_L2_V2_veridical_freeview_isoFalsemismatch_1593035.bmp_L2_fps90.mp4",""
"","","","call-function","364","904600","0.0-364.0","y7ysemqr","","","","","","","",""
"1442.4349999999395","{""judgement"":0}","[0]","survey-likert","365","906043","0.0-365.0","y7ysemqr","","","","","","","","0"
"1470.780000000028","{""confidence"":1}","[0]","survey-likert","366","907516","0.0-366.0","y7ysemqr","","","","","","","",""
"","","","call-function","367","907517","0.0-367.0","y7ysemqr","","","","","","","",""
"null","","","html-keyboard-response","368","909022","0.0-368.0","y7ysemqr","","<span style=""color:Black; font-size:50px;"">Agent A","null","","","","",""
"null","","","video-keyboard-response","369","912111","0.0-369.0","y7ysemqr","","","null","","Agent A","scrambled","STIM_SET_3/1592044.bmp_pp94_L2_V2_veridical_freeview_isoFalsemismatch_1159446.bmp_L3_fps90.mp4",""
"null","","","html-keyboard-response","370","913618","0.0-370.0","y7ysemqr","","<span style=""color:Black; font-size:50px;"">Agent B","null","","","","",""
"null","","","video-keyboard-response","371","916711","0.0-371.0","y7ysemqr","","","null","","Agent B","veridical","STIM_SET_1_REAL/1159446.bmp_pp60_L3_V1.0_veridical_freeview_isoFalse_fps144.mp4",""
"","","","call-function","372","916712","0.0-372.0","y7ysemqr","","","","","","","",""
"2386.4749999999767","{""judgement"":1}","[0]","survey-likert","373","919099","0.0-373.0","y7ysemqr","","","","","","","","1"
"2288.5050000000047","{""confidence"":2}","[0]","survey-likert","374","921389","0.0-374.0","y7ysemqr","","","","","","","",""
"","","","call-function","375","921391","0.0-375.0","y7ysemqr","","","","","","","",""
"null","","","html-keyboard-response","376","922895","0.0-376.0","y7ysemqr","","<span style=""color:Black; font-size:50px;"">Agent A","null","","","","",""
"null","","","video-keyboard-response","377","925973","0.0-377.0","y7ysemqr","","","null","","Agent A","veridical","STIM_SET_1_REAL/713666.bmp_pp97_L3_V1.0_veridical_freeview_isoFalse_fps144.mp4",""
"null","","","html-keyboard-response","378","927479","0.0-378.0","y7ysemqr","","<span style=""color:Black; font-size:50px;"">Agent B","null","","","","",""
"null","","","video-keyboard-response","379","930549","0.0-379.0","y7ysemqr","","","null","","Agent B","scrambled","STIM_SET_3/1592289.bmp_pp92_L3_V2_veridical_freeview_isoFalsemismatch_713666.bmp_L3_fps90.mp4",""
"","","","call-function","380","930550","0.0-380.0","y7ysemqr","","","","","","","",""
"1302.8400000000838","{""judgement"":0}","[0]","survey-likert","381","931854","0.0-381.0","y7ysemqr","","","","","","","","0"
"2749.579999999958","{""confidence"":2}","[0]","survey-likert","382","934605","0.0-382.0","y7ysemqr","","","","","","","",""
"","","","call-function","383","934606","0.0-383.0","y7ysemqr","","","","","","","",""
"null","","","html-keyboard-response","384","936111","0.0-384.0","y7ysemqr","","<span style=""color:Black; font-size:50px;"">Agent A","null","","","","",""
"null","","","video-keyboard-response","385","939186","0.0-385.0","y7ysemqr","","","null","","Agent A","veridical","STIM_SET_1_REAL/713593.bmp_pp64_L1_V1.0_veridical_freeview_isoFalse_fps144.mp4",""
"null","","","html-keyboard-response","386","940691","0.0-386.0","y7ysemqr","","<span style=""color:Black; font-size:50px;"">Agent B","null","","","","",""
"null","","","video-keyboard-response","387","943770","0.0-387.0","y7ysemqr","","","null","","Agent B","scrambled","STIM_SET_3/1592747.bmp_pp53_L2_V2_veridical_freeview_isoFalsemismatch_713593.bmp_L1_fps90.mp4",""
"","","","call-function","388","943771","0.0-388.0","y7ysemqr","","","","","","","",""
"20230.795000000042","{""judgement"":0}","[0]","survey-likert","389","964003","0.0-389.0","y7ysemqr","","","","","","","","0"
"5035.79999999993","{""confidence"":1}","[0]","survey-likert","390","969040","0.0-390.0","y7ysemqr","","","","","","","",""
"","","","call-function","391","969041","0.0-391.0","y7ysemqr","","","","","","","",""
"null","","","html-keyboard-response","392","970544","0.0-392.0","y7ysemqr","","<span style=""color:Black; font-size:50px;"">Agent A","null","","","","",""
"null","","","video-keyboard-response","393","973636","0.0-393.0","y7ysemqr","","","null","","Agent A","scrambled","STIM_SET_3/1592150.bmp_pp77_L3_V2_veridical_freeview_isoFalsemismatch_1159447.bmp_L2_fps90.mp4",""
"null","","","html-keyboard-response","394","975143","0.0-394.0","y7ysemqr","","<span style=""color:Black; font-size:50px;"">Agent B","null","","","","",""
"null","","","video-keyboard-response","395","978233","0.0-395.0","y7ysemqr","","","null","","Agent B","veridical","STIM_SET_1_REAL/1159447.bmp_pp70_L2_V1.0_veridical_freeview_isoFalse_fps144.mp4",""
"","","","call-function","396","978234","0.0-396.0","y7ysemqr","","","","","","","",""
"6592.789999999921","{""judgement"":1}","[0]","survey-likert","397","984828","0.0-397.0","y7ysemqr","","","","","","","","1"
"2364.7700000000186","{""confidence"":0}","[0]","survey-likert","398","987194","0.0-398.0","y7ysemqr","","","","","","","",""
"","","","call-function","399","987196","0.0-399.0","y7ysemqr","","","","","","","",""
"null","","","html-keyboard-response","400","988699","0.0-400.0","y7ysemqr","","<span style=""color:Black; font-size:50px;"">Agent A","null","","","","",""
"null","","","video-keyboard-response","401","991768","0.0-401.0","y7ysemqr","","","null","","Agent A","veridical","STIM_SET_1_REAL/713513.bmp_pp62_L2_V1.0_veridical_freeview_isoFalse_fps144.mp4",""
"null","","","html-keyboard-response","402","993276","0.0-402.0","y7ysemqr","","<span style=""color:Black; font-size:50px;"">Agent B","null","","","","",""
"null","","","video-keyboard-response","403","996354","0.0-403.0","y7ysemqr","","","null","","Agent B","scrambled","STIM_SET_3/1592047.bmp_pp51_L1_V2_veridical_freeview_isoFalsemismatch_713513.bmp_L2_fps90.mp4",""
"","","","call-function","404","996356","0.0-404.0","y7ysemqr","","","","","","","",""
"2051.8099999999395","{""judgement"":0}","[0]","survey-likert","405","998410","0.0-405.0","y7ysemqr","","","","","","","","0"
"3332.984999999986","{""confidence"":1}","[0]","survey-likert","406","1001745","0.0-406.0","y7ysemqr","","","","","","","",""
"","","","call-function","407","1001746","0.0-407.0","y7ysemqr","","","","","","","",""
"null","","","html-keyboard-response","408","1003250","0.0-408.0","y7ysemqr","","<span style=""color:Black; font-size:50px;"">Agent A","null","","","","",""
"null","","","video-keyboard-response","409","1006316","0.0-409.0","y7ysemqr","","","null","","Agent A","veridical","STIM_SET_1_REAL/1159882.bmp_pp61_L2_V1.0_veridical_freeview_isoFalse_fps144.mp4",""
"null","","","html-keyboard-response","410","1007822","0.0-410.0","y7ysemqr","","<span style=""color:Black; font-size:50px;"">Agent B","null","","","","",""
"null","","","video-keyboard-response","411","1010890","0.0-411.0","y7ysemqr","","","null","","Agent B","scrambled","STIM_SET_3/285715.bmp_pp67_L2_V2_veridical_freeview_isoFalsemismatch_1159882.bmp_L2_fps90.mp4",""
"","","","call-function","412","1010891","0.0-412.0","y7ysemqr","","","","","","","",""
"1793.8549999999814","{""judgement"":0}","[0]","survey-likert","413","1012686","0.0-413.0","y7ysemqr","","","","","","","","0"
"2010.155000000028","{""confidence"":3}","[0]","survey-likert","414","1014698","0.0-414.0","y7ysemqr","","","","","","","",""
"1777.6300000000047","","","instructions","415","1016477","0.0-415.0","y7ysemqr","[{""page_index"":0,""viewing_time"":742.7100000000792},{""page_index"":1,""viewing_time"":360.75},{""page_index"":2,""viewing_time"":674.0200000000186}]","","","","","","",""
"2607.7850000000326","","","instructions","416","1019086","0.0-416.0","y7ysemqr","[{""page_index"":0,""viewing_time"":798.7200000000885},{""page_index"":1,""viewing_time"":789.1499999999069},{""page_index"":2,""viewing_time"":1019.8050000000512}]","","","","","","",""
"","","","call-function","417","1019087","0.0-417.0","y7ysemqr","","","","","","","",""
"null","","","html-keyboard-response","418","1020592","0.0-418.0","y7ysemqr","","<span style=""color:Black; font-size:50px;"">Agent A","null","","","","",""
"null","","","video-keyboard-response","419","1023670","0.0-419.0","y7ysemqr","","","null","","Agent A","scrambled","STIM_SET_3/713633.bmp_pp58_L1_V2_veridical_freeview_isoFalsemismatch_713796.bmp_L3_fps90.mp4",""
"null","","","html-keyboard-response","420","1025172","0.0-420.0","y7ysemqr","","<span style=""color:Black; font-size:50px;"">Agent B","null","","","","",""
"null","","","video-keyboard-response","421","1028271","0.0-421.0","y7ysemqr","","","null","","Agent B","veridical","STIM_SET_1_REAL/713796.bmp_pp84_L3_V1.0_veridical_freeview_isoFalse_fps144.mp4",""
"","","","call-function","422","1028272","0.0-422.0","y7ysemqr","","","","","","","",""
"2958.319999999949","{""judgement"":1}","[0]","survey-likert","423","1031231","0.0-423.0","y7ysemqr","","","","","","","","1"
"2191.6650000000373","{""confidence"":1}","[0]","survey-likert","424","1033425","0.0-424.0","y7ysemqr","","","","","","","",""
"","","","call-function","425","1033426","0.0-425.0","y7ysemqr","","","","","","","",""
"null","","","html-keyboard-response","426","1034929","0.0-426.0","y7ysemqr","","<span style=""color:Black; font-size:50px;"">Agent A","null","","","","",""
"null","","","video-keyboard-response","427","1038023","0.0-427.0","y7ysemqr","","","null","","Agent A","veridical","STIM_SET_1_REAL/1592133.bmp_pp75_L1_V1.0_veridical_freeview_isoFalse_fps144.mp4",""
"null","","","html-keyboard-response","428","1039528","0.0-428.0","y7ysemqr","","<span style=""color:Black; font-size:50px;"">Agent B","null","","","","",""
"null","","","video-keyboard-response","429","1042647","0.0-429.0","y7ysemqr","","","null","","Agent B","scrambled","STIM_SET_3/1160247.bmp_pp54_L2_V2_veridical_freeview_isoFalsemismatch_1592133.bmp_L1_fps90.mp4",""
"","","","call-function","430","1042648","0.0-430.0","y7ysemqr","","","","","","","",""
"3038.340000000084","{""judgement"":0}","[0]","survey-likert","431","1045687","0.0-431.0","y7ysemqr","","","","","","","","0"
"2176.9349999999395","{""confidence"":0}","[0]","survey-likert","432","1047866","0.0-432.0","y7ysemqr","","","","","","","",""
"","","","call-function","433","1047867","0.0-433.0","y7ysemqr","","","","","","","",""
"null","","","html-keyboard-response","434","1049373","0.0-434.0","y7ysemqr","","<span style=""color:Black; font-size:50px;"">Agent A","null","","","","",""
"null","","","video-keyboard-response","435","1052485","0.0-435.0","y7ysemqr","","","null","","Agent A","scrambled","STIM_SET_3/1592350.bmp_pp55_L3_V2_veridical_freeview_isoFalsemismatch_498111.bmp_L2_fps90.mp4",""
"null","","","html-keyboard-response","436","1053992","0.0-436.0","y7ysemqr","","<span style=""color:Black; font-size:50px;"">Agent B","null","","","","",""
"null","","","video-keyboard-response","437","1057102","0.0-437.0","y7ysemqr","","","null","","Agent B","veridical","STIM_SET_1_REAL/498111.bmp_pp88_L2_V1.0_veridical_freeview_isoFalse_fps144.mp4",""
"","","","call-function","438","1057103","0.0-438.0","y7ysemqr","","","","","","","",""
"3013.3599999998696","{""judgement"":1}","[0]","survey-likert","439","1060118","0.0-439.0","y7ysemqr","","","","","","","","1"
"1323.2250000000931","{""confidence"":1}","[0]","survey-likert","440","1061443","0.0-440.0","y7ysemqr","","","","","","","",""
"","","","call-function","441","1061444","0.0-441.0","y7ysemqr","","","","","","","",""
"null","","","html-keyboard-response","442","1062948","0.0-442.0","y7ysemqr","","<span style=""color:Black; font-size:50px;"">Agent A","null","","","","",""
"null","","","video-keyboard-response","443","1066017","0.0-443.0","y7ysemqr","","","null","","Agent A","veridical","STIM_SET_1_REAL/1592362.bmp_pp95_L2_V1.0_veridical_freeview_isoFalse_fps144.mp4",""
"null","","","html-keyboard-response","444","1067520","0.0-444.0","y7ysemqr","","<span style=""color:Black; font-size:50px;"">Agent B","null","","","","",""
"null","","","video-keyboard-response","445","1070591","0.0-445.0","y7ysemqr","","","null","","Agent B","scrambled","STIM_SET_3/150277.bmp_pp65_L3_V2_veridical_freeview_isoFalsemismatch_1592362.bmp_L2_fps90.mp4",""
"","","","call-function","446","1070592","0.0-446.0","y7ysemqr","","","","","","","",""
"1901.6350000000093","{""judgement"":0}","[0]","survey-likert","447","1072494","0.0-447.0","y7ysemqr","","","","","","","","0"
"1594.2700000000186","{""confidence"":1}","[0]","survey-likert","448","1074091","0.0-448.0","y7ysemqr","","","","","","","",""
"","","","call-function","449","1074092","0.0-449.0","y7ysemqr","","","","","","","",""
"null","","","html-keyboard-response","450","1075593","0.0-450.0","y7ysemqr","","<span style=""color:Black; font-size:50px;"">Agent A","null","","","","",""
"null","","","video-keyboard-response","451","1078658","0.0-451.0","y7ysemqr","","","null","","Agent A","scrambled","STIM_SET_3/286034.bmp_pp69_L3_V2_veridical_freeview_isoFalsemismatch_713403.bmp_L3_fps90.mp4",""
"null","","","html-keyboard-response","452","1080165","0.0-452.0","y7ysemqr","","<span style=""color:Black; font-size:50px;"">Agent B","null","","","","",""
"null","","","video-keyboard-response","453","1083252","0.0-453.0","y7ysemqr","","","null","","Agent B","veridical","STIM_SET_1_REAL/713403.bmp_pp80_L3_V1.0_veridical_freeview_isoFalse_fps144.mp4",""
"","","","call-function","454","1083253","0.0-454.0","y7ysemqr","","","","","","","",""
"1512.1699999999255","{""judgement"":0}","[0]","survey-likert","455","1084766","0.0-455.0","y7ysemqr","","","","","","","","1"
"2684.155000000028","{""confidence"":1}","[0]","survey-likert","456","1087452","0.0-456.0","y7ysemqr","","","","","","","",""
"","","","call-function","457","1087453","0.0-457.0","y7ysemqr","","","","","","","",""
"null","","","html-keyboard-response","458","1088957","0.0-458.0","y7ysemqr","","<span style=""color:Black; font-size:50px;"">Agent A","null","","","","",""
"null","","","video-keyboard-response","459","1092020","0.0-459.0","y7ysemqr","","","null","","Agent A","veridical","STIM_SET_1_REAL/498170.bmp_pp153_L3_V1.0_veridical_freeview_isoFalse_fps144.mp4",""
"null","","","html-keyboard-response","460","1093526","0.0-460.0","y7ysemqr","","<span style=""color:Black; font-size:50px;"">Agent B","null","","","","",""
"null","","","video-keyboard-response","461","1096646","0.0-461.0","y7ysemqr","","","null","","Agent B","scrambled","STIM_SET_3/713742.bmp_pp91_L3_V2_veridical_freeview_isoFalsemismatch_498170.bmp_L3_fps90.mp4",""
"","","","call-function","462","1096647","0.0-462.0","y7ysemqr","","","","","","","",""
"1528.8149999999441","{""judgement"":0}","[0]","survey-likert","463","1098177","0.0-463.0","y7ysemqr","","","","","","","","0"
"1639.0849999999627","{""confidence"":1}","[0]","survey-likert","464","1099817","0.0-464.0","y7ysemqr","","","","","","","",""
"","","","call-function","465","1099818","0.0-465.0","y7ysemqr","","","","","","","",""
"null","","","html-keyboard-response","466","1101321","0.0-466.0","y7ysemqr","","<span style=""color:Black; font-size:50px;"">Agent A","null","","","","",""
"null","","","video-keyboard-response","467","1104423","0.0-467.0","y7ysemqr","","","null","","Agent A","veridical","STIM_SET_1_REAL/1592286.bmp_pp52_L1_V1.0_veridical_freeview_isoFalse_fps144.mp4",""
"null","","","html-keyboard-response","468","1105926","0.0-468.0","y7ysemqr","","<span style=""color:Black; font-size:50px;"">Agent B","null","","","","",""
"null","","","video-keyboard-response","469","1109032","0.0-469.0","y7ysemqr","","","null","","Agent B","scrambled","STIM_SET_3/498326.bmp_pp57_L1_V2_veridical_freeview_isoFalsemismatch_1592286.bmp_L1_fps90.mp4",""
"","","","call-function","470","1109033","0.0-470.0","y7ysemqr","","","","","","","",""
"993.4150000000373","{""judgement"":0}","[0]","survey-likert","471","1110028","0.0-471.0","y7ysemqr","","","","","","","","0"
"1280.869999999879","{""confidence"":3}","[0]","survey-likert","472","1111311","0.0-472.0","y7ysemqr","","","","","","","",""
"","","","call-function","473","1111312","0.0-473.0","y7ysemqr","","","","","","","",""
"null","","","html-keyboard-response","474","1112817","0.0-474.0","y7ysemqr","","<span style=""color:Black; font-size:50px;"">Agent A","null","","","","",""
"null","","","video-keyboard-response","475","1115916","0.0-475.0","y7ysemqr","","","null","","Agent A","scrambled","STIM_SET_3/713920.bmp_pp76_L1_V2_veridical_freeview_isoFalsemismatch_713684.bmp_L3_fps90.mp4",""
"null","","","html-keyboard-response","476","1117421","0.0-476.0","y7ysemqr","","<span style=""color:Black; font-size:50px;"">Agent B","null","","","","",""
"null","","","video-keyboard-response","477","1120500","0.0-477.0","y7ysemqr","","","null","","Agent B","veridical","STIM_SET_1_REAL/713684.bmp_pp85_L3_V1.0_veridical_freeview_isoFalse_fps144.mp4",""
"","","","call-function","478","1120502","0.0-478.0","y7ysemqr","","","","","","","",""
"6781.254999999888","{""judgement"":0}","[0]","survey-likert","479","1127285","0.0-479.0","y7ysemqr","","","","","","","","1"
"1219.6049999999814","{""confidence"":0}","[0]","survey-likert","480","1128507","0.0-480.0","y7ysemqr","","","","","","","",""
"","","","call-function","481","1128509","0.0-481.0","y7ysemqr","","","","","","","",""
"null","","","html-keyboard-response","482","1130013","0.0-482.0","y7ysemqr","","<span style=""color:Black; font-size:50px;"">Agent A","null","","","","",""
"null","","","video-keyboard-response","483","1133092","0.0-483.0","y7ysemqr","","","null","","Agent A","scrambled","STIM_SET_3/1592314.bmp_pp100_L3_V2_veridical_freeview_isoFalsemismatch_713707.bmp_L1_fps90.mp4",""
"null","","","html-keyboard-response","484","1134595","0.0-484.0","y7ysemqr","","<span style=""color:Black; font-size:50px;"">Agent B","null","","","","",""
"null","","","video-keyboard-response","485","1137672","0.0-485.0","y7ysemqr","","","null","","Agent B","veridical","STIM_SET_1_REAL/713707.bmp_pp154_L1_V1.0_veridical_freeview_isoFalse_fps144.mp4",""
"","","","call-function","486","1137674","0.0-486.0","y7ysemqr","","","","","","","",""
"1638.5600000000559","{""judgement"":1}","[0]","survey-likert","487","1139313","0.0-487.0","y7ysemqr","","","","","","","","1"
"1069.7299999999814","{""confidence"":2}","[0]","survey-likert","488","1140385","0.0-488.0","y7ysemqr","","","","","","","",""
"","","","call-function","489","1140386","0.0-489.0","y7ysemqr","","","","","","","",""
"null","","","html-keyboard-response","490","1141891","0.0-490.0","y7ysemqr","","<span style=""color:Black; font-size:50px;"">Agent A","null","","","","",""
"null","","","video-keyboard-response","491","1144974","0.0-491.0","y7ysemqr","","","null","","Agent A","veridical","STIM_SET_1_REAL/1159777.bmp_pp77_L3_V1.0_veridical_freeview_isoFalse_fps144.mp4",""
"null","","","html-keyboard-response","492","1146480","0.0-492.0","y7ysemqr","","<span style=""color:Black; font-size:50px;"">Agent B","null","","","","",""
"null","","","video-keyboard-response","493","1149557","0.0-493.0","y7ysemqr","","","null","","Agent B","scrambled","STIM_SET_3/1592017.bmp_pp154_L1_V2_veridical_freeview_isoFalsemismatch_1159777.bmp_L3_fps90.mp4",""
"","","","call-function","494","1149558","0.0-494.0","y7ysemqr","","","","","","","",""
"1659.6749999998137","{""judgement"":0}","[0]","survey-likert","495","1151219","0.0-495.0","y7ysemqr","","","","","","","","0"
"1007.0500000000466","{""confidence"":3}","[0]","survey-likert","496","1152228","0.0-496.0","y7ysemqr","","","","","","","",""
"5111.64000000013","","","instructions","497","1157341","0.0-497.0","y7ysemqr","[{""page_index"":0,""viewing_time"":610.5050000001211},{""page_index"":1,""viewing_time"":1467.7849999999162},{""page_index"":0,""viewing_time"":2157.130000000121},{""page_index"":1,""viewing_time"":402.9549999998417},{""page_index"":2,""viewing_time"":473.1049999999814}]","","","","","","",""
"1229.905000000028","","","instructions","498","1158572","0.0-498.0","y7ysemqr","[{""page_index"":0,""viewing_time"":402.62000000011176},{""page_index"":1,""viewing_time"":403.8699999998789},{""page_index"":2,""viewing_time"":423.1850000000559}]","","","","","","",""
"","","","call-function","499","1158574","0.0-499.0","y7ysemqr","","","","","","","",""
"null","","","html-keyboard-response","500","1160080","0.0-500.0","y7ysemqr","","<span style=""color:Black; font-size:50px;"">Agent A","null","","","","",""
"null","","","video-keyboard-response","501","1163174","0.0-501.0","y7ysemqr","","","null","","Agent A","veridical","STIM_SET_1_REAL/1592581.bmp_pp100_L3_V1.0_veridical_freeview_isoFalse_fps144.mp4",""
"null","","","html-keyboard-response","502","1164677","0.0-502.0","y7ysemqr","","<span style=""color:Black; font-size:50px;"">Agent B","null","","","","",""
"null","","","video-keyboard-response","503","1167772","0.0-503.0","y7ysemqr","","","null","","Agent B","scrambled","STIM_SET_3/1160189.bmp_pp64_L1_V2_veridical_freeview_isoFalsemismatch_1592581.bmp_L3_fps90.mp4",""
"","","","call-function","504","1167773","0.0-504.0","y7ysemqr","","","","","","","",""
"2159.8249999999534","{""judgement"":1}","[0]","survey-likert","505","1169933","0.0-505.0","y7ysemqr","","","","","","","","0"
"1695.5149999998976","{""confidence"":1}","[0]","survey-likert","506","1171631","0.0-506.0","y7ysemqr","","","","","","","",""
"","","","call-function","507","1171632","0.0-507.0","y7ysemqr","","","","","","","",""
"null","","","html-keyboard-response","508","1173133","0.0-508.0","y7ysemqr","","<span style=""color:Black; font-size:50px;"">Agent A","null","","","","",""
"null","","","video-keyboard-response","509","1176241","0.0-509.0","y7ysemqr","","","null","","Agent A","veridical","STIM_SET_1_REAL/1159768.bmp_pp89_L1_V1.0_veridical_freeview_isoFalse_fps144.mp4",""
"null","","","html-keyboard-response","510","1177744","0.0-510.0","y7ysemqr","","<span style=""color:Black; font-size:50px;"">Agent B","null","","","","",""
"null","","","video-keyboard-response","511","1180866","0.0-511.0","y7ysemqr","","","null","","Agent B","scrambled","STIM_SET_3/713788.bmp_pp52_L1_V2_veridical_freeview_isoFalsemismatch_1159768.bmp_L1_fps90.mp4",""
"","","","call-function","512","1180867","0.0-512.0","y7ysemqr","","","","","","","",""
"1557.6850000000559","{""judgement"":0}","[0]","survey-likert","513","1182426","0.0-513.0","y7ysemqr","","","","","","","","0"
"1118.1000000000931","{""confidence"":2}","[0]","survey-likert","514","1183546","0.0-514.0","y7ysemqr","","","","","","","",""
"","","","call-function","515","1183547","0.0-515.0","y7ysemqr","","","","","","","",""
"null","","","html-keyboard-response","516","1185050","0.0-516.0","y7ysemqr","","<span style=""color:Black; font-size:50px;"">Agent A","null","","","","",""
"null","","","video-keyboard-response","517","1188163","0.0-517.0","y7ysemqr","","","null","","Agent A","scrambled","STIM_SET_3/498025.bmp_pp81_L1_V2_veridical_freeview_isoFalsemismatch_713681.bmp_L2_fps90.mp4",""
"null","","","html-keyboard-response","518","1189667","0.0-518.0","y7ysemqr","","<span style=""color:Black; font-size:50px;"">Agent B","null","","","","",""
"null","","","video-keyboard-response","519","1192758","0.0-519.0","y7ysemqr","","","null","","Agent B","veridical","STIM_SET_1_REAL/713681.bmp_pp86_L2_V1.0_veridical_freeview_isoFalse_fps144.mp4",""
"","","","call-function","520","1192759","0.0-520.0","y7ysemqr","","","","","","","",""
"1574.5400000000373","{""judgement"":0}","[0]","survey-likert","521","1194335","0.0-521.0","y7ysemqr","","","","","","","","1"
"1068.0849999999627","{""confidence"":1}","[0]","survey-likert","522","1195405","0.0-522.0","y7ysemqr","","","","","","","",""
"","","","call-function","523","1195406","0.0-523.0","y7ysemqr","","","","","","","",""
"null","","","html-keyboard-response","524","1196912","0.0-524.0","y7ysemqr","","<span style=""color:Black; font-size:50px;"">Agent A","null","","","","",""
"null","","","video-keyboard-response","525","1199999","0.0-525.0","y7ysemqr","","","null","","Agent A","scrambled","STIM_SET_3/1592168.bmp_pp71_L1_V2_veridical_freeview_isoFalsemismatch_1592890.bmp_L2_fps90.mp4",""
"null","","","html-keyboard-response","526","1201505","0.0-526.0","y7ysemqr","","<span style=""color:Black; font-size:50px;"">Agent B","null","","","","",""
"null","","","video-keyboard-response","527","1204568","0.0-527.0","y7ysemqr","","","null","","Agent B","veridical","STIM_SET_1_REAL/1592890.bmp_pp82_L2_V1.0_veridical_freeview_isoFalse_fps144.mp4",""
"","","","call-function","528","1204570","0.0-528.0","y7ysemqr","","","","","","","",""
"2855.625","{""judgement"":1}","[0]","survey-likert","529","1207426","0.0-529.0","y7ysemqr","","","","","","","","1"
"1843.8950000000186","{""confidence"":1}","[0]","survey-likert","530","1209272","0.0-530.0","y7ysemqr","","","","","","","",""
"","","","call-function","531","1209273","0.0-531.0","y7ysemqr","","","","","","","",""
"null","","","html-keyboard-response","532","1210776","0.0-532.0","y7ysemqr","","<span style=""color:Black; font-size:50px;"">Agent A","null","","","","",""
"null","","","video-keyboard-response","533","1213839","0.0-533.0","y7ysemqr","","","null","","Agent A","veridical","STIM_SET_1_REAL/1592351.bmp_pp51_L1_V1.0_veridical_freeview_isoFalse_fps144.mp4",""
"null","","","html-keyboard-response","534","1215341","0.0-534.0","y7ysemqr","","<span style=""color:Black; font-size:50px;"">Agent B","null","","","","",""
"null","","","video-keyboard-response","535","1218425","0.0-535.0","y7ysemqr","","","null","","Agent B","scrambled","STIM_SET_3/1592025.bmp_pp68_L1_V2_veridical_freeview_isoFalsemismatch_1592351.bmp_L1_fps90.mp4",""
"","","","call-function","536","1218426","0.0-536.0","y7ysemqr","","","","","","","",""
"1643.5449999999255","{""judgement"":0}","[0]","survey-likert","537","1220071","0.0-537.0","y7ysemqr","","","","","","","","0"
"1343.530000000028","{""confidence"":0}","[0]","survey-likert","538","1221416","0.0-538.0","y7ysemqr","","","","","","","",""
"","","","call-function","539","1221417","0.0-539.0","y7ysemqr","","","","","","","",""
"null","","","html-keyboard-response","540","1222921","0.0-540.0","y7ysemqr","","<span style=""color:Black; font-size:50px;"">Agent A","null","","","","",""
"null","","","video-keyboard-response","541","1226019","0.0-541.0","y7ysemqr","","","null","","Agent A","scrambled","STIM_SET_3/1159329.bmp_pp61_L2_V2_veridical_freeview_isoFalsemismatch_1592817.bmp_L3_fps90.mp4",""
"null","","","html-keyboard-response","542","1227526","0.0-542.0","y7ysemqr","","<span style=""color:Black; font-size:50px;"">Agent B","null","","","","",""
"null","","","video-keyboard-response","543","1230613","0.0-543.0","y7ysemqr","","","null","","Agent B","veridical","STIM_SET_1_REAL/1592817.bmp_pp55_L3_V1.0_veridical_freeview_isoFalse_fps144.mp4",""
"","","","call-function","544","1230614","0.0-544.0","y7ysemqr","","","","","","","",""
"1694.4799999999814","{""judgement"":1}","[0]","survey-likert","545","1232309","0.0-545.0","y7ysemqr","","","","","","","","1"
"1974.3549999999814","{""confidence"":2}","[0]","survey-likert","546","1234285","0.0-546.0","y7ysemqr","","","","","","","",""
"","","","call-function","547","1234286","0.0-547.0","y7ysemqr","","","","","","","",""
"null","","","html-keyboard-response","548","1235789","0.0-548.0","y7ysemqr","","<span style=""color:Black; font-size:50px;"">Agent A","null","","","","",""
"null","","","video-keyboard-response","549","1238896","0.0-549.0","y7ysemqr","","","null","","Agent A","scrambled","STIM_SET_3/1592038.bmp_pp79_L2_V2_veridical_freeview_isoFalsemismatch_1592727.bmp_L3_fps90.mp4",""
"null","","","html-keyboard-response","550","1240399","0.0-550.0","y7ysemqr","","<span style=""color:Black; font-size:50px;"">Agent B","null","","","","",""
"null","","","video-keyboard-response","551","1243496","0.0-551.0","y7ysemqr","","","null","","Agent B","veridical","STIM_SET_1_REAL/1592727.bmp_pp59_L3_V1.0_veridical_freeview_isoFalse_fps144.mp4",""
"","","","call-function","552","1243497","0.0-552.0","y7ysemqr","","","","","","","",""
"1510.469999999972","{""judgement"":1}","[0]","survey-likert","553","1245010","0.0-553.0","y7ysemqr","","","","","","","","1"
"1613.0200000000186","{""confidence"":2}","[0]","survey-likert","554","1246626","0.0-554.0","y7ysemqr","","","","","","","",""
"","","","call-function","555","1246627","0.0-555.0","y7ysemqr","","","","","","","",""
"null","","","html-keyboard-response","556","1248129","0.0-556.0","y7ysemqr","","<span style=""color:Black; font-size:50px;"">Agent A","null","","","","",""
"null","","","video-keyboard-response","557","1251224","0.0-557.0","y7ysemqr","","","null","","Agent A","scrambled","STIM_SET_3/713770.bmp_pp89_L1_V2_veridical_freeview_isoFalsemismatch_61537.bmp_L3_fps90.mp4",""
"null","","","html-keyboard-response","558","1252731","0.0-558.0","y7ysemqr","","<span style=""color:Black; font-size:50px;"">Agent B","null","","","","",""
"null","","","video-keyboard-response","559","1255810","0.0-559.0","y7ysemqr","","","null","","Agent B","veridical","STIM_SET_1_REAL/61537.bmp_pp73_L3_V1.0_veridical_freeview_isoFalse_fps144.mp4",""
"","","","call-function","560","1255811","0.0-560.0","y7ysemqr","","","","","","","",""
"1150.1450000000186","{""judgement"":1}","[0]","survey-likert","561","1256962","0.0-561.0","y7ysemqr","","","","","","","","1"
"1210.1000000000931","{""confidence"":3}","[0]","survey-likert","562","1258174","0.0-562.0","y7ysemqr","","","","","","","",""
"","","","call-function","563","1258176","0.0-563.0","y7ysemqr","","","","","","","",""
"null","","","html-keyboard-response","564","1259677","0.0-564.0","y7ysemqr","","<span style=""color:Black; font-size:50px;"">Agent A","null","","","","",""
"null","","","video-keyboard-response","565","1262772","0.0-565.0","y7ysemqr","","","null","","Agent A","scrambled","STIM_SET_3/713790.bmp_pp100_L3_V2_veridical_freeview_isoFalsemismatch_1592397.bmp_L3_fps90.mp4",""
"null","","","html-keyboard-response","566","1264274","0.0-566.0","y7ysemqr","","<span style=""color:Black; font-size:50px;"">Agent B","null","","","","",""
"null","","","video-keyboard-response","567","1267344","0.0-567.0","y7ysemqr","","","null","","Agent B","veridical","STIM_SET_1_REAL/1592397.bmp_pp85_L3_V1.0_veridical_freeview_isoFalse_fps144.mp4",""
"","","","call-function","568","1267346","0.0-568.0","y7ysemqr","","","","","","","",""
"5676.635000000009","{""judgement"":0}","[0]","survey-likert","569","1273023","0.0-569.0","y7ysemqr","","","","","","","","1"
"2630.060000000056","{""confidence"":0}","[0]","survey-likert","570","1275655","0.0-570.0","y7ysemqr","","","","","","","",""
"","","","call-function","571","1275656","0.0-571.0","y7ysemqr","","","","","","","",""
"null","","","html-keyboard-response","572","1277159","0.0-572.0","y7ysemqr","","<span style=""color:Black; font-size:50px;"">Agent A","null","","","","",""
"null","","","video-keyboard-response","573","1280266","0.0-573.0","y7ysemqr","","","null","","Agent A","veridical","STIM_SET_1_REAL/1159675.bmp_pp77_L3_V1.0_veridical_freeview_isoFalse_fps144.mp4",""
"null","","","html-keyboard-response","574","1281771","0.0-574.0","y7ysemqr","","<span style=""color:Black; font-size:50px;"">Agent B","null","","","","",""
"null","","","video-keyboard-response","575","1284879","0.0-575.0","y7ysemqr","","","null","","Agent B","scrambled","STIM_SET_3/1159508.bmp_pp151_L1_V2_veridical_freeview_isoFalsemismatch_1159675.bmp_L3_fps90.mp4",""
"","","","call-function","576","1284880","0.0-576.0","y7ysemqr","","","","","","","",""
"1136.345000000205","{""judgement"":1}","[0]","survey-likert","577","1286017","0.0-577.0","y7ysemqr","","","","","","","","0"
"978.3649999999907","{""confidence"":2}","[0]","survey-likert","578","1286997","0.0-578.0","y7ysemqr","","","","","","","",""
"1354.9449999998324","","","instructions","579","1288353","0.0-579.0","y7ysemqr","[{""page_index"":0,""viewing_time"":1354.654999999795}]","","","","","","",""
"1471.6499999999069","","","instructions","580","1289826","0.0-580.0","y7ysemqr","[{""page_index"":0,""viewing_time"":1471.5399999998044}]","","","","","","",""
"51678.875","{""post-1"":1}","[0]","survey-likert","581","1341507","0.0-581.0","y7ysemqr","","","","","","","",""
"1376.2549999998882","{""post-1"":1}","[0]","survey-likert","582","1342885","0.0-582.0","y7ysemqr","","","","","","","",""
"20895.375","{""post-2"":0}","[0]","survey-likert","583","1363782","0.0-583.0","y7ysemqr","","","","","","","",""
"9114.5","{""post-2"":2}","[0]","survey-likert","584","1372898","0.0-584.0","y7ysemqr","","","","","","","",""
"4444.125","{""post-3"":1}","[0]","survey-likert","585","1377344","0.0-585.0","y7ysemqr","","","","","","","",""
"15549.100000000093","{""post-3"":0}","[0]","survey-likert","586","1392895","0.0-586.0","y7ysemqr","","","","","","","",""
"5472.290000000037","{""post-4"":1}","[0]","survey-likert","587","1398370","0.0-587.0","y7ysemqr","","","","","","","",""
"6000.194999999832","{""post-4"":1}","[0]","survey-likert","588","1404373","0.0-588.0","y7ysemqr","","","","","","","",""
"4029.785000000149","{""post-5"":2}","[0]","survey-likert","589","1408404","0.0-589.0","y7ysemqr","","","","","","","",""
"31183.89500000002","{""post-5"":2}","[0]","survey-likert","590","1439590","0.0-590.0","y7ysemqr","","","","","","","",""
"44598.57499999995","{""Q0"":""The second half of this experiment seemed to be easier to identify than the first half.""}","","survey-text","591","1484197","0.0-591.0","y7ysemqr","","","","","","","",""
"55308.179999999935","{""Q0"":""I find easiest to determine which agent is automatically generated when it keeps focusing on trivial objects instead of the major human faces in the pictures.""}","","survey-text","592","1539510","0.0-592.0","y7ysemqr","","","","","","","",""
"61809.02000000002","{""Q0"":""I find directing one's attention to an object when human faces are not present is the most difficult.""}","","survey-text","593","1601323","0.0-593.0","y7ysemqr","","","","","","","",""
"1577.7049999998417","","","instructions","594","1602903","0.0-594.0","y7ysemqr","[{""page_index"":0,""viewing_time"":1577.559999999823}]","","","","","","",""
"107667.56500000018","{""Experimenter_end"":[""Printed ID# y7ysemqr on consent form"",""Given subject SONA credit or payment"",""Given the subject debrief form""]}","[0]","survey-multi-select","595","1710574","0.0-595.0","y7ysemqr","","","","","","","",""
