"rt","responses","question_order","trial_type","trial_index","time_elapsed","internal_node_id","ID","view_history","stimulus","key_press","value","agent","condition","image","correct_answer"
"26842.06","{""Experimenter"":[""Confirmed subject's identity (ID card)"",""Confirmed normal or corrected-to-normal vision"",""Obtained consent (signature and date)"",""Checked the test room lighting"",""Checked computer screen lighting"",""Checked distance from screen to chin rest (50cm)"",""Cleaned and adjusted chin rest"",""Counterbalanced the order of the tasks"",""Opened the experiment in Firefox"",""Made the experiment full screen"",""Encouraged subject to silence phone, put away distractors, etc.""]}","[0]","survey-multi-select","0","26851","0.0-0.0","yo2qhtaz","","","","","","","",""
"1533416.2200000002","","","instructions","1","1560272","0.0-1.0","yo2qhtaz","[{""page_index"":0,""viewing_time"":1533415.985}]","","","","","","",""
"21444.89500000002","","","instructions","2","1581718","0.0-2.0","yo2qhtaz","[{""page_index"":0,""viewing_time"":1900.7050000000745},{""page_index"":1,""viewing_time"":11959.020000000019},{""page_index"":2,""viewing_time"":7585.0449999999255}]","","","","","","",""
"3043.1699999999255","","","instructions","3","1584762","0.0-3.0","yo2qhtaz","[{""page_index"":0,""viewing_time"":3043.064999999944}]","","","","","","",""
"null","","","video-keyboard-response","4","1587838","0.0-4.0","yo2qhtaz","","","null","","","","",""
"40466.62999999989","","","instructions","5","1628305","0.0-5.0","yo2qhtaz","[{""page_index"":0,""viewing_time"":10928.455000000075},{""page_index"":1,""viewing_time"":7618.189999999944},{""page_index"":2,""viewing_time"":1772.969999999972},{""page_index"":3,""viewing_time"":7698.129999999888},{""page_index"":4,""viewing_time"":12448.76000000001}]","","","","","","",""
"6342.760000000009","","","instructions","6","1634649","0.0-6.0","yo2qhtaz","[{""page_index"":0,""viewing_time"":6342.635000000009}]","","","","","","",""
"","","","call-function","7","1634649","0.0-7.0","yo2qhtaz","","","","","","","",""
"null","","","html-keyboard-response","8","1636155","0.0-8.0","yo2qhtaz","","<span style=""color:Black; font-size:50px;"">Agent A","null","","","","",""
"null","","","video-keyboard-response","9","1639236","0.0-9.0","yo2qhtaz","","","null","","Agent A","scrambled","STIM_SET_3/1159874.bmp_pp96_L2_V2_veridical_freeview_isoFalsemismatch_1159515.bmp_L3_fps90.mp4",""
"null","","","html-keyboard-response","10","1640739","0.0-10.0","yo2qhtaz","","<span style=""color:Black; font-size:50px;"">Agent B","null","","","","",""
"null","","","video-keyboard-response","11","1643808","0.0-11.0","yo2qhtaz","","","null","","Agent B","veridical","STIM_SET_1_REAL/1159515.bmp_pp84_L3_V1.0_veridical_freeview_isoFalse_fps144.mp4",""
"","","","call-function","12","1643809","0.0-12.0","yo2qhtaz","","","","","","","",""
"3198.2700000000186","{""judgement"":1}","[0]","survey-likert","13","1647009","0.0-13.0","yo2qhtaz","","","","","","","","1"
"12176.465000000084","{""confidence"":3}","[0]","survey-likert","14","1659186","0.0-14.0","yo2qhtaz","","","","","","","",""
"","","","call-function","15","1659187","0.0-15.0","yo2qhtaz","","","","","","","",""
"null","","","html-keyboard-response","16","1660689","0.0-16.0","yo2qhtaz","","<span style=""color:Black; font-size:50px;"">Agent A","null","","","","",""
"null","","","video-keyboard-response","17","1663766","0.0-17.0","yo2qhtaz","","","null","","Agent A","scrambled","STIM_SET_3/285684.bmp_pp80_L3_V2_veridical_freeview_isoFalsemismatch_713760.bmp_L1_fps90.mp4",""
"null","","","html-keyboard-response","18","1665272","0.0-18.0","yo2qhtaz","","<span style=""color:Black; font-size:50px;"">Agent B","null","","","","",""
"null","","","video-keyboard-response","19","1668350","0.0-19.0","yo2qhtaz","","","null","","Agent B","veridical","STIM_SET_1_REAL/713760.bmp_pp81_L1_V1.0_veridical_freeview_isoFalse_fps144.mp4",""
"","","","call-function","20","1668351","0.0-20.0","yo2qhtaz","","","","","","","",""
"3328.655000000028","{""judgement"":1}","[0]","survey-likert","21","1671681","0.0-21.0","yo2qhtaz","","","","","","","","1"
"4492.719999999972","{""confidence"":2}","[0]","survey-likert","22","1676175","0.0-22.0","yo2qhtaz","","","","","","","",""
"","","","call-function","23","1676176","0.0-23.0","yo2qhtaz","","","","","","","",""
"null","","","html-keyboard-response","24","1677678","0.0-24.0","yo2qhtaz","","<span style=""color:Black; font-size:50px;"">Agent A","null","","","","",""
"null","","","video-keyboard-response","25","1680786","0.0-25.0","yo2qhtaz","","","null","","Agent A","veridical","STIM_SET_1_REAL/1593146.bmp_pp93_L1_V1.0_veridical_freeview_isoFalse_fps144.mp4",""
"null","","","html-keyboard-response","26","1682292","0.0-26.0","yo2qhtaz","","<span style=""color:Black; font-size:50px;"">Agent B","null","","","","",""
"null","","","video-keyboard-response","27","1685388","0.0-27.0","yo2qhtaz","","","null","","Agent B","scrambled","STIM_SET_3/1592298.bmp_pp56_L3_V2_veridical_freeview_isoFalsemismatch_1593146.bmp_L1_fps90.mp4",""
"","","","call-function","28","1685389","0.0-28.0","yo2qhtaz","","","","","","","",""
"2880.4500000001863","{""judgement"":0}","[0]","survey-likert","29","1688270","0.0-29.0","yo2qhtaz","","","","","","","","0"
"1734.0900000000838","{""confidence"":3}","[0]","survey-likert","30","1690005","0.0-30.0","yo2qhtaz","","","","","","","",""
"","","","call-function","31","1690006","0.0-31.0","yo2qhtaz","","","","","","","",""
"null","","","html-keyboard-response","32","1691512","0.0-32.0","yo2qhtaz","","<span style=""color:Black; font-size:50px;"">Agent A","null","","","","",""
"null","","","video-keyboard-response","33","1694598","0.0-33.0","yo2qhtaz","","","null","","Agent A","scrambled","STIM_SET_3/713689.bmp_pp153_L3_V2_veridical_freeview_isoFalsemismatch_498175.bmp_L1_fps90.mp4",""
"null","","","html-keyboard-response","34","1696104","0.0-34.0","yo2qhtaz","","<span style=""color:Black; font-size:50px;"">Agent B","null","","","","",""
"null","","","video-keyboard-response","35","1699201","0.0-35.0","yo2qhtaz","","","null","","Agent B","veridical","STIM_SET_1_REAL/498175.bmp_pp154_L1_V1.0_veridical_freeview_isoFalse_fps144.mp4",""
"","","","call-function","36","1699201","0.0-36.0","yo2qhtaz","","","","","","","",""
"1929.1450000000186","{""judgement"":1}","[0]","survey-likert","37","1701131","0.0-37.0","yo2qhtaz","","","","","","","","1"
"2196.4900000002235","{""confidence"":2}","[0]","survey-likert","38","1703329","0.0-38.0","yo2qhtaz","","","","","","","",""
"","","","call-function","39","1703329","0.0-39.0","yo2qhtaz","","","","","","","",""
"null","","","html-keyboard-response","40","1704836","0.0-40.0","yo2qhtaz","","<span style=""color:Black; font-size:50px;"">Agent A","null","","","","",""
"null","","","video-keyboard-response","41","1707911","0.0-41.0","yo2qhtaz","","","null","","Agent A","scrambled","STIM_SET_3/713790.bmp_pp100_L3_V2_veridical_freeview_isoFalsemismatch_1592397.bmp_L3_fps90.mp4",""
"null","","","html-keyboard-response","42","1709416","0.0-42.0","yo2qhtaz","","<span style=""color:Black; font-size:50px;"">Agent B","null","","","","",""
"null","","","video-keyboard-response","43","1712487","0.0-43.0","yo2qhtaz","","","null","","Agent B","veridical","STIM_SET_1_REAL/1592397.bmp_pp85_L3_V1.0_veridical_freeview_isoFalse_fps144.mp4",""
"","","","call-function","44","1712488","0.0-44.0","yo2qhtaz","","","","","","","",""
"5565.429999999935","{""judgement"":0}","[0]","survey-likert","45","1718054","0.0-45.0","yo2qhtaz","","","","","","","","1"
"2443.064999999944","{""confidence"":1}","[0]","survey-likert","46","1720498","0.0-46.0","yo2qhtaz","","","","","","","",""
"","","","call-function","47","1720499","0.0-47.0","yo2qhtaz","","","","","","","",""
"null","","","html-keyboard-response","48","1722004","0.0-48.0","yo2qhtaz","","<span style=""color:Black; font-size:50px;"">Agent A","null","","","","",""
"null","","","video-keyboard-response","49","1725090","0.0-49.0","yo2qhtaz","","","null","","Agent A","scrambled","STIM_SET_3/498398.bmp_pp81_L1_V2_veridical_freeview_isoFalsemismatch_713620.bmp_L3_fps90.mp4",""
"null","","","html-keyboard-response","50","1726594","0.0-50.0","yo2qhtaz","","<span style=""color:Black; font-size:50px;"">Agent B","null","","","","",""
"null","","","video-keyboard-response","51","1729671","0.0-51.0","yo2qhtaz","","","null","","Agent B","veridical","STIM_SET_1_REAL/713620.bmp_pp65_L3_V1.0_veridical_freeview_isoFalse_fps144.mp4",""
"","","","call-function","52","1729672","0.0-52.0","yo2qhtaz","","","","","","","",""
"2943.179999999935","{""judgement"":1}","[0]","survey-likert","53","1732616","0.0-53.0","yo2qhtaz","","","","","","","","1"
"2424.780000000028","{""confidence"":0}","[0]","survey-likert","54","1735043","0.0-54.0","yo2qhtaz","","","","","","","",""
"","","","call-function","55","1735044","0.0-55.0","yo2qhtaz","","","","","","","",""
"null","","","html-keyboard-response","56","1736549","0.0-56.0","yo2qhtaz","","<span style=""color:Black; font-size:50px;"">Agent A","null","","","","",""
"null","","","video-keyboard-response","57","1739629","0.0-57.0","yo2qhtaz","","","null","","Agent A","scrambled","STIM_SET_3/1592921.bmp_pp69_L3_V2_veridical_freeview_isoFalsemismatch_713211.bmp_L3_fps90.mp4",""
"null","","","html-keyboard-response","58","1741136","0.0-58.0","yo2qhtaz","","<span style=""color:Black; font-size:50px;"">Agent B","null","","","","",""
"null","","","video-keyboard-response","59","1744212","0.0-59.0","yo2qhtaz","","","null","","Agent B","veridical","STIM_SET_1_REAL/713211.bmp_pp100_L3_V1.0_veridical_freeview_isoFalse_fps144.mp4",""
"","","","call-function","60","1744212","0.0-60.0","yo2qhtaz","","","","","","","",""
"3031.8900000001304","{""judgement"":1}","[0]","survey-likert","61","1747245","0.0-61.0","yo2qhtaz","","","","","","","","1"
"1956.8950000000186","{""confidence"":1}","[0]","survey-likert","62","1749203","0.0-62.0","yo2qhtaz","","","","","","","",""
"","","","call-function","63","1749204","0.0-63.0","yo2qhtaz","","","","","","","",""
"null","","","html-keyboard-response","64","1750707","0.0-64.0","yo2qhtaz","","<span style=""color:Black; font-size:50px;"">Agent A","null","","","","",""
"null","","","video-keyboard-response","65","1753784","0.0-65.0","yo2qhtaz","","","null","","Agent A","scrambled","STIM_SET_3/1591781.bmp_pp63_L1_V2_veridical_freeview_isoFalsemismatch_1593041.bmp_L1_fps90.mp4",""
"null","","","html-keyboard-response","66","1755287","0.0-66.0","yo2qhtaz","","<span style=""color:Black; font-size:50px;"">Agent B","null","","","","",""
"null","","","video-keyboard-response","67","1758376","0.0-67.0","yo2qhtaz","","","null","","Agent B","veridical","STIM_SET_1_REAL/1593041.bmp_pp58_L1_V1.0_veridical_freeview_isoFalse_fps144.mp4",""
"","","","call-function","68","1758376","0.0-68.0","yo2qhtaz","","","","","","","",""
"1951.2049999998417","{""judgement"":1}","[0]","survey-likert","69","1760328","0.0-69.0","yo2qhtaz","","","","","","","","1"
"2991.214999999851","{""confidence"":1}","[0]","survey-likert","70","1763321","0.0-70.0","yo2qhtaz","","","","","","","",""
"","","","call-function","71","1763321","0.0-71.0","yo2qhtaz","","","","","","","",""
"null","","","html-keyboard-response","72","1764823","0.0-72.0","yo2qhtaz","","<span style=""color:Black; font-size:50px;"">Agent A","null","","","","",""
"null","","","video-keyboard-response","73","1767926","0.0-73.0","yo2qhtaz","","","null","","Agent A","scrambled","STIM_SET_3/1592857.bmp_pp52_L1_V2_veridical_freeview_isoFalsemismatch_1160168.bmp_L2_fps90.mp4",""
"null","","","html-keyboard-response","74","1769434","0.0-74.0","yo2qhtaz","","<span style=""color:Black; font-size:50px;"">Agent B","null","","","","",""
"null","","","video-keyboard-response","75","1772537","0.0-75.0","yo2qhtaz","","","null","","Agent B","veridical","STIM_SET_1_REAL/1160168.bmp_pp53_L2_V1.0_veridical_freeview_isoFalse_fps144.mp4",""
"","","","call-function","76","1772538","0.0-76.0","yo2qhtaz","","","","","","","",""
"1725.8149999999441","{""judgement"":1}","[0]","survey-likert","77","1774264","0.0-77.0","yo2qhtaz","","","","","","","","1"
"2350.280000000028","{""confidence"":2}","[0]","survey-likert","78","1776616","0.0-78.0","yo2qhtaz","","","","","","","",""
"","","","call-function","79","1776616","0.0-79.0","yo2qhtaz","","","","","","","",""
"null","","","html-keyboard-response","80","1778119","0.0-80.0","yo2qhtaz","","<span style=""color:Black; font-size:50px;"">Agent A","null","","","","",""
"null","","","video-keyboard-response","81","1781219","0.0-81.0","yo2qhtaz","","","null","","Agent A","scrambled","STIM_SET_3/1592289.bmp_pp92_L3_V2_veridical_freeview_isoFalsemismatch_713666.bmp_L3_fps90.mp4",""
"null","","","html-keyboard-response","82","1782726","0.0-82.0","yo2qhtaz","","<span style=""color:Black; font-size:50px;"">Agent B","null","","","","",""
"null","","","video-keyboard-response","83","1785836","0.0-83.0","yo2qhtaz","","","null","","Agent B","veridical","STIM_SET_1_REAL/713666.bmp_pp97_L3_V1.0_veridical_freeview_isoFalse_fps144.mp4",""
"","","","call-function","84","1785837","0.0-84.0","yo2qhtaz","","","","","","","",""
"2180.0449999999255","{""judgement"":0}","[0]","survey-likert","85","1788017","0.0-85.0","yo2qhtaz","","","","","","","","1"
"3216.7700000000186","{""confidence"":2}","[0]","survey-likert","86","1791235","0.0-86.0","yo2qhtaz","","","","","","","",""
"14392.714999999851","","","instructions","87","1805628","0.0-87.0","yo2qhtaz","[{""page_index"":0,""viewing_time"":3028.0100000000093},{""page_index"":1,""viewing_time"":9191.550000000047},{""page_index"":2,""viewing_time"":2172.904999999795}]","","","","","","",""
"51245.794999999925","","","instructions","88","1856875","0.0-88.0","yo2qhtaz","[{""page_index"":0,""viewing_time"":17180.685000000056},{""page_index"":1,""viewing_time"":2497.0100000000093},{""page_index"":2,""viewing_time"":31567.97999999998}]","","","","","","",""
"","","","call-function","89","1856875","0.0-89.0","yo2qhtaz","","","","","","","",""
"null","","","html-keyboard-response","90","1858379","0.0-90.0","yo2qhtaz","","<span style=""color:Black; font-size:50px;"">Agent A","null","","","","",""
"null","","","video-keyboard-response","91","1861439","0.0-91.0","yo2qhtaz","","","null","","Agent A","veridical","STIM_SET_1_REAL/1159447.bmp_pp70_L2_V1.0_veridical_freeview_isoFalse_fps144.mp4",""
"null","","","html-keyboard-response","92","1862943","0.0-92.0","yo2qhtaz","","<span style=""color:Black; font-size:50px;"">Agent B","null","","","","",""
"null","","","video-keyboard-response","93","1866005","0.0-93.0","yo2qhtaz","","","null","","Agent B","scrambled","STIM_SET_3/1592150.bmp_pp77_L3_V2_veridical_freeview_isoFalsemismatch_1159447.bmp_L2_fps90.mp4",""
"","","","call-function","94","1866005","0.0-94.0","yo2qhtaz","","","","","","","",""
"2022.3549999999814","{""judgement"":0}","[0]","survey-likert","95","1868028","0.0-95.0","yo2qhtaz","","","","","","","","0"
"2542.9000000001397","{""confidence"":2}","[0]","survey-likert","96","1870572","0.0-96.0","yo2qhtaz","","","","","","","",""
"","","","call-function","97","1870573","0.0-97.0","yo2qhtaz","","","","","","","",""
"null","","","html-keyboard-response","98","1872075","0.0-98.0","yo2qhtaz","","<span style=""color:Black; font-size:50px;"">Agent A","null","","","","",""
"null","","","video-keyboard-response","99","1875164","0.0-99.0","yo2qhtaz","","","null","","Agent A","scrambled","STIM_SET_3/285959.bmp_pp93_L1_V2_veridical_freeview_isoFalsemismatch_498253.bmp_L2_fps90.mp4",""
"null","","","html-keyboard-response","100","1876671","0.0-100.0","yo2qhtaz","","<span style=""color:Black; font-size:50px;"">Agent B","null","","","","",""
"null","","","video-keyboard-response","101","1879747","0.0-101.0","yo2qhtaz","","","null","","Agent B","veridical","STIM_SET_1_REAL/498253.bmp_pp67_L2_V1.0_veridical_freeview_isoFalse_fps144.mp4",""
"","","","call-function","102","1879748","0.0-102.0","yo2qhtaz","","","","","","","",""
"1694.0250000001397","{""judgement"":0}","[0]","survey-likert","103","1881443","0.0-103.0","yo2qhtaz","","","","","","","","1"
"2045.7600000000093","{""confidence"":3}","[0]","survey-likert","104","1883491","0.0-104.0","yo2qhtaz","","","","","","","",""
"","","","call-function","105","1883492","0.0-105.0","yo2qhtaz","","","","","","","",""
"null","","","html-keyboard-response","106","1884996","0.0-106.0","yo2qhtaz","","<span style=""color:Black; font-size:50px;"">Agent A","null","","","","",""
"null","","","video-keyboard-response","107","1888073","0.0-107.0","yo2qhtaz","","","null","","Agent A","scrambled","STIM_SET_3/713770.bmp_pp89_L1_V2_veridical_freeview_isoFalsemismatch_61537.bmp_L3_fps90.mp4",""
"null","","","html-keyboard-response","108","1889578","0.0-108.0","yo2qhtaz","","<span style=""color:Black; font-size:50px;"">Agent B","null","","","","",""
"null","","","video-keyboard-response","109","1892658","0.0-109.0","yo2qhtaz","","","null","","Agent B","veridical","STIM_SET_1_REAL/61537.bmp_pp73_L3_V1.0_veridical_freeview_isoFalse_fps144.mp4",""
"","","","call-function","110","1892659","0.0-110.0","yo2qhtaz","","","","","","","",""
"1489.5149999998976","{""judgement"":1}","[0]","survey-likert","111","1894149","0.0-111.0","yo2qhtaz","","","","","","","","1"
"2293.619999999879","{""confidence"":3}","[0]","survey-likert","112","1896444","0.0-112.0","yo2qhtaz","","","","","","","",""
"","","","call-function","113","1896445","0.0-113.0","yo2qhtaz","","","","","","","",""
"null","","","html-keyboard-response","114","1897947","0.0-114.0","yo2qhtaz","","<span style=""color:Black; font-size:50px;"">Agent A","null","","","","",""
"null","","","video-keyboard-response","115","1901028","0.0-115.0","yo2qhtaz","","","null","","Agent A","scrambled","STIM_SET_3/1592129.bmp_pp153_L3_V2_veridical_freeview_isoFalsemismatch_1159813.bmp_L2_fps90.mp4",""
"null","","","html-keyboard-response","116","1902533","0.0-116.0","yo2qhtaz","","<span style=""color:Black; font-size:50px;"">Agent B","null","","","","",""
"null","","","video-keyboard-response","117","1905621","0.0-117.0","yo2qhtaz","","","null","","Agent B","veridical","STIM_SET_1_REAL/1159813.bmp_pp79_L2_V1.0_veridical_freeview_isoFalse_fps144.mp4",""
"","","","call-function","118","1905621","0.0-118.0","yo2qhtaz","","","","","","","",""
"2011.9450000000652","{""judgement"":0}","[0]","survey-likert","119","1907634","0.0-119.0","yo2qhtaz","","","","","","","","1"
"2090.4150000000373","{""confidence"":2}","[0]","survey-likert","120","1909725","0.0-120.0","yo2qhtaz","","","","","","","",""
"","","","call-function","121","1909726","0.0-121.0","yo2qhtaz","","","","","","","",""
"null","","","html-keyboard-response","122","1911231","0.0-122.0","yo2qhtaz","","<span style=""color:Black; font-size:50px;"">Agent A","null","","","","",""
"null","","","video-keyboard-response","123","1914327","0.0-123.0","yo2qhtaz","","","null","","Agent A","veridical","STIM_SET_1_REAL/1159446.bmp_pp60_L3_V1.0_veridical_freeview_isoFalse_fps144.mp4",""
"null","","","html-keyboard-response","124","1915835","0.0-124.0","yo2qhtaz","","<span style=""color:Black; font-size:50px;"">Agent B","null","","","","",""
"null","","","video-keyboard-response","125","1918920","0.0-125.0","yo2qhtaz","","","null","","Agent B","scrambled","STIM_SET_3/1592044.bmp_pp94_L2_V2_veridical_freeview_isoFalsemismatch_1159446.bmp_L3_fps90.mp4",""
"","","","call-function","126","1918920","0.0-126.0","yo2qhtaz","","","","","","","",""
"1634.780000000028","{""judgement"":0}","[0]","survey-likert","127","1920556","0.0-127.0","yo2qhtaz","","","","","","","","0"
"1560.1949999998324","{""confidence"":3}","[0]","survey-likert","128","1922118","0.0-128.0","yo2qhtaz","","","","","","","",""
"","","","call-function","129","1922118","0.0-129.0","yo2qhtaz","","","","","","","",""
"null","","","html-keyboard-response","130","1923620","0.0-130.0","yo2qhtaz","","<span style=""color:Black; font-size:50px;"">Agent A","null","","","","",""
"null","","","video-keyboard-response","131","1926714","0.0-131.0","yo2qhtaz","","","null","","Agent A","scrambled","STIM_SET_3/61513.bmp_pp75_L1_V2_veridical_freeview_isoFalsemismatch_1159784.bmp_L3_fps90.mp4",""
"null","","","html-keyboard-response","132","1928217","0.0-132.0","yo2qhtaz","","<span style=""color:Black; font-size:50px;"">Agent B","null","","","","",""
"null","","","video-keyboard-response","133","1931321","0.0-133.0","yo2qhtaz","","","null","","Agent B","veridical","STIM_SET_1_REAL/1159784.bmp_pp73_L3_V1.0_veridical_freeview_isoFalse_fps144.mp4",""
"","","","call-function","134","1931321","0.0-134.0","yo2qhtaz","","","","","","","",""
"7461.594999999972","{""judgement"":1}","[0]","survey-likert","135","1938784","0.0-135.0","yo2qhtaz","","","","","","","","1"
"1585.1599999999162","{""confidence"":0}","[0]","survey-likert","136","1940370","0.0-136.0","yo2qhtaz","","","","","","","",""
"","","","call-function","137","1940370","0.0-137.0","yo2qhtaz","","","","","","","",""
"null","","","html-keyboard-response","138","1941876","0.0-138.0","yo2qhtaz","","<span style=""color:Black; font-size:50px;"">Agent A","null","","","","",""
"null","","","video-keyboard-response","139","1944978","0.0-139.0","yo2qhtaz","","","null","","Agent A","veridical","STIM_SET_1_REAL/713371.bmp_pp68_L1_V1.0_veridical_freeview_isoFalse_fps144.mp4",""
"null","","","html-keyboard-response","140","1946480","0.0-140.0","yo2qhtaz","","<span style=""color:Black; font-size:50px;"">Agent B","null","","","","",""
"null","","","video-keyboard-response","141","1949577","0.0-141.0","yo2qhtaz","","","null","","Agent B","scrambled","STIM_SET_3/498396.bmp_pp99_L2_V2_veridical_freeview_isoFalsemismatch_713371.bmp_L1_fps90.mp4",""
"","","","call-function","142","1949577","0.0-142.0","yo2qhtaz","","","","","","","",""
"2053.0799999998417","{""judgement"":0}","[0]","survey-likert","143","1951631","0.0-143.0","yo2qhtaz","","","","","","","","0"
"1483.3950000000186","{""confidence"":3}","[0]","survey-likert","144","1953116","0.0-144.0","yo2qhtaz","","","","","","","",""
"","","","call-function","145","1953116","0.0-145.0","yo2qhtaz","","","","","","","",""
"null","","","html-keyboard-response","146","1954622","0.0-146.0","yo2qhtaz","","<span style=""color:Black; font-size:50px;"">Agent A","null","","","","",""
"null","","","video-keyboard-response","147","1957689","0.0-147.0","yo2qhtaz","","","null","","Agent A","veridical","STIM_SET_1_REAL/285905.bmp_pp57_L1_V1.0_veridical_freeview_isoFalse_fps144.mp4",""
"null","","","html-keyboard-response","148","1959191","0.0-148.0","yo2qhtaz","","<span style=""color:Black; font-size:50px;"">Agent B","null","","","","",""
"null","","","video-keyboard-response","149","1962280","0.0-149.0","yo2qhtaz","","","null","","Agent B","scrambled","STIM_SET_3/1592568.bmp_pp71_L1_V2_veridical_freeview_isoFalsemismatch_285905.bmp_L1_fps90.mp4",""
"","","","call-function","150","1962280","0.0-150.0","yo2qhtaz","","","","","","","",""
"1525.4899999999907","{""judgement"":0}","[0]","survey-likert","151","1963807","0.0-151.0","yo2qhtaz","","","","","","","","0"
"1269.1999999999534","{""confidence"":3}","[0]","survey-likert","152","1965077","0.0-152.0","yo2qhtaz","","","","","","","",""
"","","","call-function","153","1965078","0.0-153.0","yo2qhtaz","","","","","","","",""
"null","","","html-keyboard-response","154","1966581","0.0-154.0","yo2qhtaz","","<span style=""color:Black; font-size:50px;"">Agent A","null","","","","",""
"null","","","video-keyboard-response","155","1969644","0.0-155.0","yo2qhtaz","","","null","","Agent A","veridical","STIM_SET_1_REAL/1159572.bmp_pp71_L1_V1.0_veridical_freeview_isoFalse_fps144.mp4",""
"null","","","html-keyboard-response","156","1971149","0.0-156.0","yo2qhtaz","","<span style=""color:Black; font-size:50px;"">Agent B","null","","","","",""
"null","","","video-keyboard-response","157","1974225","0.0-157.0","yo2qhtaz","","","null","","Agent B","scrambled","STIM_SET_3/713381.bmp_pp82_L2_V2_veridical_freeview_isoFalsemismatch_1159572.bmp_L1_fps90.mp4",""
"","","","call-function","158","1974226","0.0-158.0","yo2qhtaz","","","","","","","",""
"2137.4150000000373","{""judgement"":0}","[0]","survey-likert","159","1976365","0.0-159.0","yo2qhtaz","","","","","","","","0"
"1741.8950000000186","{""confidence"":2}","[0]","survey-likert","160","1978108","0.0-160.0","yo2qhtaz","","","","","","","",""
"","","","call-function","161","1978108","0.0-161.0","yo2qhtaz","","","","","","","",""
"null","","","html-keyboard-response","162","1979614","0.0-162.0","yo2qhtaz","","<span style=""color:Black; font-size:50px;"">Agent A","null","","","","",""
"null","","","video-keyboard-response","163","1982714","0.0-163.0","yo2qhtaz","","","null","","Agent A","scrambled","STIM_SET_3/498261.bmp_pp84_L3_V2_veridical_freeview_isoFalsemismatch_1592657.bmp_L1_fps90.mp4",""
"null","","","html-keyboard-response","164","1984219","0.0-164.0","yo2qhtaz","","<span style=""color:Black; font-size:50px;"">Agent B","null","","","","",""
"null","","","video-keyboard-response","165","1987324","0.0-165.0","yo2qhtaz","","","null","","Agent B","veridical","STIM_SET_1_REAL/1592657.bmp_pp98_L1_V1.0_veridical_freeview_isoFalse_fps144.mp4",""
"","","","call-function","166","1987325","0.0-166.0","yo2qhtaz","","","","","","","",""
"1626.744999999879","{""judgement"":1}","[0]","survey-likert","167","1988952","0.0-167.0","yo2qhtaz","","","","","","","","1"
"4674.290000000037","{""confidence"":3}","[0]","survey-likert","168","1993628","0.0-168.0","yo2qhtaz","","","","","","","",""
"21334.820000000065","","","instructions","169","2014964","0.0-169.0","yo2qhtaz","[{""page_index"":0,""viewing_time"":9272.689999999944},{""page_index"":1,""viewing_time"":8980.110000000102},{""page_index"":2,""viewing_time"":3081.8599999998696}]","","","","","","",""
"3513.774999999907","","","instructions","170","2018479","0.0-170.0","yo2qhtaz","[{""page_index"":0,""viewing_time"":944.6699999999255},{""page_index"":1,""viewing_time"":1423.0700000000652},{""page_index"":2,""viewing_time"":1145.9250000000466}]","","","","","","",""
"","","","call-function","171","2018480","0.0-171.0","yo2qhtaz","","","","","","","",""
"null","","","html-keyboard-response","172","2019984","0.0-172.0","yo2qhtaz","","<span style=""color:Black; font-size:50px;"">Agent A","null","","","","",""
"null","","","video-keyboard-response","173","2023051","0.0-173.0","yo2qhtaz","","","null","","Agent A","veridical","STIM_SET_1_REAL/713135.bmp_pp54_L2_V1.0_veridical_freeview_isoFalse_fps144.mp4",""
"null","","","html-keyboard-response","174","2024554","0.0-174.0","yo2qhtaz","","<span style=""color:Black; font-size:50px;"">Agent B","null","","","","",""
"null","","","video-keyboard-response","175","2027639","0.0-175.0","yo2qhtaz","","","null","","Agent B","scrambled","STIM_SET_3/1592567.bmp_pp70_L2_V2_veridical_freeview_isoFalsemismatch_713135.bmp_L2_fps90.mp4",""
"","","","call-function","176","2027639","0.0-176.0","yo2qhtaz","","","","","","","",""
"1812.155000000028","{""judgement"":0}","[0]","survey-likert","177","2029452","0.0-177.0","yo2qhtaz","","","","","","","","0"
"1625.035000000149","{""confidence"":3}","[0]","survey-likert","178","2031079","0.0-178.0","yo2qhtaz","","","","","","","",""
"","","","call-function","179","2031080","0.0-179.0","yo2qhtaz","","","","","","","",""
"null","","","html-keyboard-response","180","2032581","0.0-180.0","yo2qhtaz","","<span style=""color:Black; font-size:50px;"">Agent A","null","","","","",""
"null","","","video-keyboard-response","181","2035642","0.0-181.0","yo2qhtaz","","","null","","Agent A","scrambled","STIM_SET_3/713328.bmp_pp86_L2_V2_veridical_freeview_isoFalsemismatch_1591994.bmp_L3_fps90.mp4",""
"null","","","html-keyboard-response","182","2037146","0.0-182.0","yo2qhtaz","","<span style=""color:Black; font-size:50px;"">Agent B","null","","","","",""
"null","","","video-keyboard-response","183","2040221","0.0-183.0","yo2qhtaz","","","null","","Agent B","veridical","STIM_SET_1_REAL/1591994.bmp_pp69_L3_V1.0_veridical_freeview_isoFalse_fps144.mp4",""
"","","","call-function","184","2040222","0.0-184.0","yo2qhtaz","","","","","","","",""
"3489.2600000000093","{""judgement"":1}","[0]","survey-likert","185","2043712","0.0-185.0","yo2qhtaz","","","","","","","","1"
"3313.815000000177","{""confidence"":2}","[0]","survey-likert","186","2047027","0.0-186.0","yo2qhtaz","","","","","","","",""
"","","","call-function","187","2047028","0.0-187.0","yo2qhtaz","","","","","","","",""
"null","","","html-keyboard-response","188","2048529","0.0-188.0","yo2qhtaz","","<span style=""color:Black; font-size:50px;"">Agent A","null","","","","",""
"null","","","video-keyboard-response","189","2051631","0.0-189.0","yo2qhtaz","","","null","","Agent A","scrambled","STIM_SET_3/1159973.bmp_pp98_L1_V2_veridical_freeview_isoFalsemismatch_285933.bmp_L1_fps90.mp4",""
"null","","","html-keyboard-response","190","2053134","0.0-190.0","yo2qhtaz","","<span style=""color:Black; font-size:50px;"">Agent B","null","","","","",""
"null","","","video-keyboard-response","191","2056231","0.0-191.0","yo2qhtaz","","","null","","Agent B","veridical","STIM_SET_1_REAL/285933.bmp_pp81_L1_V1.0_veridical_freeview_isoFalse_fps144.mp4",""
"","","","call-function","192","2056232","0.0-192.0","yo2qhtaz","","","","","","","",""
"2298.3499999998603","{""judgement"":1}","[0]","survey-likert","193","2058531","0.0-193.0","yo2qhtaz","","","","","","","","1"
"1750.8199999998324","{""confidence"":1}","[0]","survey-likert","194","2060283","0.0-194.0","yo2qhtaz","","","","","","","",""
"","","","call-function","195","2060284","0.0-195.0","yo2qhtaz","","","","","","","",""
"null","","","html-keyboard-response","196","2061786","0.0-196.0","yo2qhtaz","","<span style=""color:Black; font-size:50px;"">Agent A","null","","","","",""
"null","","","video-keyboard-response","197","2064883","0.0-197.0","yo2qhtaz","","","null","","Agent A","scrambled","STIM_SET_3/150463.bmp_pp55_L3_V2_veridical_freeview_isoFalsemismatch_1592619.bmp_L3_fps90.mp4",""
"null","","","html-keyboard-response","198","2066389","0.0-198.0","yo2qhtaz","","<span style=""color:Black; font-size:50px;"">Agent B","null","","","","",""
"null","","","video-keyboard-response","199","2069483","0.0-199.0","yo2qhtaz","","","null","","Agent B","veridical","STIM_SET_1_REAL/1592619.bmp_pp56_L3_V1.0_veridical_freeview_isoFalse_fps144.mp4",""
"","","","call-function","200","2069484","0.0-200.0","yo2qhtaz","","","","","","","",""
"2159.054999999935","{""judgement"":1}","[0]","survey-likert","201","2071644","0.0-201.0","yo2qhtaz","","","","","","","","1"
"1377.2350000001024","{""confidence"":2}","[0]","survey-likert","202","2073022","0.0-202.0","yo2qhtaz","","","","","","","",""
"","","","call-function","203","2073023","0.0-203.0","yo2qhtaz","","","","","","","",""
"null","","","html-keyboard-response","204","2074525","0.0-204.0","yo2qhtaz","","<span style=""color:Black; font-size:50px;"">Agent A","null","","","","",""
"null","","","video-keyboard-response","205","2077621","0.0-205.0","yo2qhtaz","","","null","","Agent A","scrambled","STIM_SET_3/1592025.bmp_pp68_L1_V2_veridical_freeview_isoFalsemismatch_1592351.bmp_L1_fps90.mp4",""
"null","","","html-keyboard-response","206","2079124","0.0-206.0","yo2qhtaz","","<span style=""color:Black; font-size:50px;"">Agent B","null","","","","",""
"null","","","video-keyboard-response","207","2082218","0.0-207.0","yo2qhtaz","","","null","","Agent B","veridical","STIM_SET_1_REAL/1592351.bmp_pp51_L1_V1.0_veridical_freeview_isoFalse_fps144.mp4",""
"","","","call-function","208","2082219","0.0-208.0","yo2qhtaz","","","","","","","",""
"1792.8600000001024","{""judgement"":1}","[0]","survey-likert","209","2084013","0.0-209.0","yo2qhtaz","","","","","","","","1"
"1569.3200000000652","{""confidence"":3}","[0]","survey-likert","210","2085583","0.0-210.0","yo2qhtaz","","","","","","","",""
"","","","call-function","211","2085584","0.0-211.0","yo2qhtaz","","","","","","","",""
"null","","","html-keyboard-response","212","2087086","0.0-212.0","yo2qhtaz","","<span style=""color:Black; font-size:50px;"">Agent A","null","","","","",""
"null","","","video-keyboard-response","213","2090161","0.0-213.0","yo2qhtaz","","","null","","Agent A","scrambled","STIM_SET_3/713858.bmp_pp57_L1_V2_veridical_freeview_isoFalsemismatch_713749.bmp_L2_fps90.mp4",""
"null","","","html-keyboard-response","214","2091662","0.0-214.0","yo2qhtaz","","<span style=""color:Black; font-size:50px;"">Agent B","null","","","","",""
"null","","","video-keyboard-response","215","2094737","0.0-215.0","yo2qhtaz","","","null","","Agent B","veridical","STIM_SET_1_REAL/713749.bmp_pp88_L2_V1.0_veridical_freeview_isoFalse_fps144.mp4",""
"","","","call-function","216","2094738","0.0-216.0","yo2qhtaz","","","","","","","",""
"1726.4899999999907","{""judgement"":1}","[0]","survey-likert","217","2096465","0.0-217.0","yo2qhtaz","","","","","","","","1"
"3278.2949999999255","{""confidence"":2}","[0]","survey-likert","218","2099744","0.0-218.0","yo2qhtaz","","","","","","","",""
"","","","call-function","219","2099745","0.0-219.0","yo2qhtaz","","","","","","","",""
"null","","","html-keyboard-response","220","2101249","0.0-220.0","yo2qhtaz","","<span style=""color:Black; font-size:50px;"">Agent A","null","","","","",""
"null","","","video-keyboard-response","221","2104312","0.0-221.0","yo2qhtaz","","","null","","Agent A","scrambled","STIM_SET_3/498326.bmp_pp57_L1_V2_veridical_freeview_isoFalsemismatch_1592286.bmp_L1_fps90.mp4",""
"null","","","html-keyboard-response","222","2105815","0.0-222.0","yo2qhtaz","","<span style=""color:Black; font-size:50px;"">Agent B","null","","","","",""
"null","","","video-keyboard-response","223","2108882","0.0-223.0","yo2qhtaz","","","null","","Agent B","veridical","STIM_SET_1_REAL/1592286.bmp_pp52_L1_V1.0_veridical_freeview_isoFalse_fps144.mp4",""
"","","","call-function","224","2108883","0.0-224.0","yo2qhtaz","","","","","","","",""
"2217.6550000002608","{""judgement"":1}","[0]","survey-likert","225","2111102","0.0-225.0","yo2qhtaz","","","","","","","","1"
"2102.5500000002794","{""confidence"":3}","[0]","survey-likert","226","2113206","0.0-226.0","yo2qhtaz","","","","","","","",""
"","","","call-function","227","2113208","0.0-227.0","yo2qhtaz","","","","","","","",""
"null","","","html-keyboard-response","228","2114710","0.0-228.0","yo2qhtaz","","<span style=""color:Black; font-size:50px;"">Agent A","null","","","","",""
"null","","","video-keyboard-response","229","2117774","0.0-229.0","yo2qhtaz","","","null","","Agent A","veridical","STIM_SET_1_REAL/1159882.bmp_pp61_L2_V1.0_veridical_freeview_isoFalse_fps144.mp4",""
"null","","","html-keyboard-response","230","2119277","0.0-230.0","yo2qhtaz","","<span style=""color:Black; font-size:50px;"">Agent B","null","","","","",""
"null","","","video-keyboard-response","231","2122387","0.0-231.0","yo2qhtaz","","","null","","Agent B","scrambled","STIM_SET_3/285715.bmp_pp67_L2_V2_veridical_freeview_isoFalsemismatch_1159882.bmp_L2_fps90.mp4",""
"","","","call-function","232","2122388","0.0-232.0","yo2qhtaz","","","","","","","",""
"4459.430000000168","{""judgement"":0}","[0]","survey-likert","233","2126848","0.0-233.0","yo2qhtaz","","","","","","","","0"
"3058.8900000001304","{""confidence"":3}","[0]","survey-likert","234","2129908","0.0-234.0","yo2qhtaz","","","","","","","",""
"","","","call-function","235","2129909","0.0-235.0","yo2qhtaz","","","","","","","",""
"null","","","html-keyboard-response","236","2131413","0.0-236.0","yo2qhtaz","","<span style=""color:Black; font-size:50px;"">Agent A","null","","","","",""
"null","","","video-keyboard-response","237","2134484","0.0-237.0","yo2qhtaz","","","null","","Agent A","scrambled","STIM_SET_3/1159819.bmp_pp151_L1_V2_veridical_freeview_isoFalsemismatch_1592499.bmp_L2_fps90.mp4",""
"null","","","html-keyboard-response","238","2135990","0.0-238.0","yo2qhtaz","","<span style=""color:Black; font-size:50px;"">Agent B","null","","","","",""
"null","","","video-keyboard-response","239","2139058","0.0-239.0","yo2qhtaz","","","null","","Agent B","veridical","STIM_SET_1_REAL/1592499.bmp_pp96_L2_V1.0_veridical_freeview_isoFalse_fps144.mp4",""
"","","","call-function","240","2139059","0.0-240.0","yo2qhtaz","","","","","","","",""
"1722.2050000000745","{""judgement"":1}","[0]","survey-likert","241","2140782","0.0-241.0","yo2qhtaz","","","","","","","","1"
"1783.2599999997765","{""confidence"":1}","[0]","survey-likert","242","2142566","0.0-242.0","yo2qhtaz","","","","","","","",""
"","","","call-function","243","2142567","0.0-243.0","yo2qhtaz","","","","","","","",""
"null","","","html-keyboard-response","244","2144074","0.0-244.0","yo2qhtaz","","<span style=""color:Black; font-size:50px;"">Agent A","null","","","","",""
"null","","","video-keyboard-response","245","2147164","0.0-245.0","yo2qhtaz","","","null","","Agent A","veridical","STIM_SET_1_REAL/285994.bmp_pp92_L3_V1.0_veridical_freeview_isoFalse_fps144.mp4",""
"null","","","html-keyboard-response","246","2148670","0.0-246.0","yo2qhtaz","","<span style=""color:Black; font-size:50px;"">Agent B","null","","","","",""
"null","","","video-keyboard-response","247","2151775","0.0-247.0","yo2qhtaz","","","null","","Agent B","scrambled","STIM_SET_3/1159592.bmp_pp91_L3_V2_veridical_freeview_isoFalsemismatch_285994.bmp_L3_fps90.mp4",""
"","","","call-function","248","2151775","0.0-248.0","yo2qhtaz","","","","","","","",""
"6300.679999999702","{""judgement"":0}","[0]","survey-likert","249","2158077","0.0-249.0","yo2qhtaz","","","","","","","","0"
"1492.9499999997206","{""confidence"":0}","[0]","survey-likert","250","2159571","0.0-250.0","yo2qhtaz","","","","","","","",""
"7035.535000000149","","","instructions","251","2166607","0.0-251.0","yo2qhtaz","[{""page_index"":0,""viewing_time"":3247.225000000093},{""page_index"":1,""viewing_time"":2554.0400000000373},{""page_index"":2,""viewing_time"":1234.0099999997765}]","","","","","","",""
"4238.299999999814","","","instructions","252","2170846","0.0-252.0","yo2qhtaz","[{""page_index"":0,""viewing_time"":1391.2099999999627},{""page_index"":1,""viewing_time"":1816.9900000002235},{""page_index"":2,""viewing_time"":1029.994999999646}]","","","","","","",""
"","","","call-function","253","2170846","0.0-253.0","yo2qhtaz","","","","","","","",""
"null","","","html-keyboard-response","254","2172348","0.0-254.0","yo2qhtaz","","<span style=""color:Black; font-size:50px;"">Agent A","null","","","","",""
"null","","","video-keyboard-response","255","2175436","0.0-255.0","yo2qhtaz","","","null","","Agent A","veridical","STIM_SET_1_REAL/286001.bmp_pp54_L2_V1.0_veridical_freeview_isoFalse_fps144.mp4",""
"null","","","html-keyboard-response","256","2176942","0.0-256.0","yo2qhtaz","","<span style=""color:Black; font-size:50px;"">Agent B","null","","","","",""
"null","","","video-keyboard-response","257","2180038","0.0-257.0","yo2qhtaz","","","null","","Agent B","scrambled","STIM_SET_3/1160204.bmp_pp54_L2_V2_veridical_freeview_isoFalsemismatch_286001.bmp_L2_fps90.mp4",""
"","","","call-function","258","2180039","0.0-258.0","yo2qhtaz","","","","","","","",""
"1365.3849999997765","{""judgement"":0}","[0]","survey-likert","259","2181405","0.0-259.0","yo2qhtaz","","","","","","","","0"
"4263.8300000000745","{""confidence"":3}","[0]","survey-likert","260","2185670","0.0-260.0","yo2qhtaz","","","","","","","",""
"","","","call-function","261","2185671","0.0-261.0","yo2qhtaz","","","","","","","",""
"null","","","html-keyboard-response","262","2187176","0.0-262.0","yo2qhtaz","","<span style=""color:Black; font-size:50px;"">Agent A","null","","","","",""
"null","","","video-keyboard-response","263","2190242","0.0-263.0","yo2qhtaz","","","null","","Agent A","scrambled","STIM_SET_3/1159956.bmp_pp59_L3_V2_veridical_freeview_isoFalsemismatch_1159829.bmp_L3_fps90.mp4",""
"null","","","html-keyboard-response","264","2191744","0.0-264.0","yo2qhtaz","","<span style=""color:Black; font-size:50px;"">Agent B","null","","","","",""
"null","","","video-keyboard-response","265","2194814","0.0-265.0","yo2qhtaz","","","null","","Agent B","veridical","STIM_SET_1_REAL/1159829.bmp_pp91_L3_V1.0_veridical_freeview_isoFalse_fps144.mp4",""
"","","","call-function","266","2194815","0.0-266.0","yo2qhtaz","","","","","","","",""
"1541.9500000001863","{""judgement"":1}","[0]","survey-likert","267","2196357","0.0-267.0","yo2qhtaz","","","","","","","","1"
"1658.25","{""confidence"":2}","[0]","survey-likert","268","2198017","0.0-268.0","yo2qhtaz","","","","","","","",""
"","","","call-function","269","2198018","0.0-269.0","yo2qhtaz","","","","","","","",""
"null","","","html-keyboard-response","270","2199522","0.0-270.0","yo2qhtaz","","<span style=""color:Black; font-size:50px;"">Agent A","null","","","","",""
"null","","","video-keyboard-response","271","2202584","0.0-271.0","yo2qhtaz","","","null","","Agent A","scrambled","STIM_SET_3/285932.bmp_pp64_L1_V2_veridical_freeview_isoFalsemismatch_1159855.bmp_L2_fps90.mp4",""
"null","","","html-keyboard-response","272","2204090","0.0-272.0","yo2qhtaz","","<span style=""color:Black; font-size:50px;"">Agent B","null","","","","",""
"null","","","video-keyboard-response","273","2207167","0.0-273.0","yo2qhtaz","","","null","","Agent B","veridical","STIM_SET_1_REAL/1159855.bmp_pp99_L2_V1.0_veridical_freeview_isoFalse_fps144.mp4",""
"","","","call-function","274","2207167","0.0-274.0","yo2qhtaz","","","","","","","",""
"1797.0400000000373","{""judgement"":1}","[0]","survey-likert","275","2208965","0.0-275.0","yo2qhtaz","","","","","","","","1"
"1219.4599999999627","{""confidence"":3}","[0]","survey-likert","276","2210186","0.0-276.0","yo2qhtaz","","","","","","","",""
"","","","call-function","277","2210186","0.0-277.0","yo2qhtaz","","","","","","","",""
"null","","","html-keyboard-response","278","2211689","0.0-278.0","yo2qhtaz","","<span style=""color:Black; font-size:50px;"">Agent A","null","","","","",""
"null","","","video-keyboard-response","279","2214778","0.0-279.0","yo2qhtaz","","","null","","Agent A","scrambled","STIM_SET_3/1159427.bmp_pp98_L1_V2_veridical_freeview_isoFalsemismatch_1591876.bmp_L1_fps90.mp4",""
"null","","","html-keyboard-response","280","2216285","0.0-280.0","yo2qhtaz","","<span style=""color:Black; font-size:50px;"">Agent B","null","","","","",""
"null","","","video-keyboard-response","281","2219391","0.0-281.0","yo2qhtaz","","","null","","Agent B","veridical","STIM_SET_1_REAL/1591876.bmp_pp63_L1_V1.0_veridical_freeview_isoFalse_fps144.mp4",""
"","","","call-function","282","2219392","0.0-282.0","yo2qhtaz","","","","","","","",""
"1620.3299999996088","{""judgement"":1}","[0]","survey-likert","283","2221013","0.0-283.0","yo2qhtaz","","","","","","","","1"
"1698.0049999998882","{""confidence"":2}","[0]","survey-likert","284","2222712","0.0-284.0","yo2qhtaz","","","","","","","",""
"","","","call-function","285","2222712","0.0-285.0","yo2qhtaz","","","","","","","",""
"null","","","html-keyboard-response","286","2224216","0.0-286.0","yo2qhtaz","","<span style=""color:Black; font-size:50px;"">Agent A","null","","","","",""
"null","","","video-keyboard-response","287","2227309","0.0-287.0","yo2qhtaz","","","null","","Agent A","scrambled","STIM_SET_3/1591975.bmp_pp88_L2_V2_veridical_freeview_isoFalsemismatch_713017.bmp_L2_fps90.mp4",""
"null","","","html-keyboard-response","288","2228815","0.0-288.0","yo2qhtaz","","<span style=""color:Black; font-size:50px;"">Agent B","null","","","","",""
"null","","","video-keyboard-response","289","2231882","0.0-289.0","yo2qhtaz","","","null","","Agent B","veridical","STIM_SET_1_REAL/713017.bmp_pp152_L2_V1.0_veridical_freeview_isoFalse_fps144.mp4",""
"","","","call-function","290","2231883","0.0-290.0","yo2qhtaz","","","","","","","",""
"1680.2949999999255","{""judgement"":1}","[0]","survey-likert","291","2233564","0.0-291.0","yo2qhtaz","","","","","","","","1"
"3559.6200000001118","{""confidence"":2}","[0]","survey-likert","292","2237126","0.0-292.0","yo2qhtaz","","","","","","","",""
"","","","call-function","293","2237127","0.0-293.0","yo2qhtaz","","","","","","","",""
"null","","","html-keyboard-response","294","2238631","0.0-294.0","yo2qhtaz","","<span style=""color:Black; font-size:50px;"">Agent A","null","","","","",""
"null","","","video-keyboard-response","295","2241698","0.0-295.0","yo2qhtaz","","","null","","Agent A","veridical","STIM_SET_1_REAL/1592362.bmp_pp95_L2_V1.0_veridical_freeview_isoFalse_fps144.mp4",""
"null","","","html-keyboard-response","296","2243200","0.0-296.0","yo2qhtaz","","<span style=""color:Black; font-size:50px;"">Agent B","null","","","","",""
"null","","","video-keyboard-response","297","2246270","0.0-297.0","yo2qhtaz","","","null","","Agent B","scrambled","STIM_SET_3/150277.bmp_pp65_L3_V2_veridical_freeview_isoFalsemismatch_1592362.bmp_L2_fps90.mp4",""
"","","","call-function","298","2246270","0.0-298.0","yo2qhtaz","","","","","","","",""
"1699.1749999998137","{""judgement"":0}","[0]","survey-likert","299","2247970","0.0-299.0","yo2qhtaz","","","","","","","","0"
"1962.3999999999069","{""confidence"":3}","[0]","survey-likert","300","2249934","0.0-300.0","yo2qhtaz","","","","","","","",""
"","","","call-function","301","2249935","0.0-301.0","yo2qhtaz","","","","","","","",""
"null","","","html-keyboard-response","302","2251441","0.0-302.0","yo2qhtaz","","<span style=""color:Black; font-size:50px;"">Agent A","null","","","","",""
"null","","","video-keyboard-response","303","2254510","0.0-303.0","yo2qhtaz","","","null","","Agent A","scrambled","STIM_SET_3/713274.bmp_pp73_L3_V2_veridical_freeview_isoFalsemismatch_497950.bmp_L1_fps90.mp4",""
"null","","","html-keyboard-response","304","2256013","0.0-304.0","yo2qhtaz","","<span style=""color:Black; font-size:50px;"">Agent B","null","","","","",""
"null","","","video-keyboard-response","305","2259075","0.0-305.0","yo2qhtaz","","","null","","Agent B","veridical","STIM_SET_1_REAL/497950.bmp_pp151_L1_V1.0_veridical_freeview_isoFalse_fps144.mp4",""
"","","","call-function","306","2259075","0.0-306.0","yo2qhtaz","","","","","","","",""
"1243.9950000001118","{""judgement"":1}","[0]","survey-likert","307","2260320","0.0-307.0","yo2qhtaz","","","","","","","","1"
"4068.929999999702","{""confidence"":3}","[0]","survey-likert","308","2264390","0.0-308.0","yo2qhtaz","","","","","","","",""
"","","","call-function","309","2264391","0.0-309.0","yo2qhtaz","","","","","","","",""
"null","","","html-keyboard-response","310","2265894","0.0-310.0","yo2qhtaz","","<span style=""color:Black; font-size:50px;"">Agent A","null","","","","",""
"null","","","video-keyboard-response","311","2268996","0.0-311.0","yo2qhtaz","","","null","","Agent A","scrambled","STIM_SET_3/498258.bmp_pp51_L1_V2_veridical_freeview_isoFalsemismatch_498155.bmp_L2_fps90.mp4",""
"null","","","html-keyboard-response","312","2270503","0.0-312.0","yo2qhtaz","","<span style=""color:Black; font-size:50px;"">Agent B","null","","","","",""
"null","","","video-keyboard-response","313","2273612","0.0-313.0","yo2qhtaz","","","null","","Agent B","veridical","STIM_SET_1_REAL/498155.bmp_pp61_L2_V1.0_veridical_freeview_isoFalse_fps144.mp4",""
"","","","call-function","314","2273612","0.0-314.0","yo2qhtaz","","","","","","","",""
"2196.3499999996275","{""judgement"":1}","[0]","survey-likert","315","2275809","0.0-315.0","yo2qhtaz","","","","","","","","1"
"1970.9300000001676","{""confidence"":3}","[0]","survey-likert","316","2277781","0.0-316.0","yo2qhtaz","","","","","","","",""
"","","","call-function","317","2277782","0.0-317.0","yo2qhtaz","","","","","","","",""
"null","","","html-keyboard-response","318","2279287","0.0-318.0","yo2qhtaz","","<span style=""color:Black; font-size:50px;"">Agent A","null","","","","",""
"null","","","video-keyboard-response","319","2282374","0.0-319.0","yo2qhtaz","","","null","","Agent A","veridical","STIM_SET_1_REAL/713779.bmp_pp152_L2_V1.0_veridical_freeview_isoFalse_fps144.mp4",""
"null","","","html-keyboard-response","320","2283881","0.0-320.0","yo2qhtaz","","<span style=""color:Black; font-size:50px;"">Agent B","null","","","","",""
"null","","","video-keyboard-response","321","2286974","0.0-321.0","yo2qhtaz","","","null","","Agent B","scrambled","STIM_SET_3/1592305.bmp_pp65_L3_V2_veridical_freeview_isoFalsemismatch_713779.bmp_L2_fps90.mp4",""
"","","","call-function","322","2286975","0.0-322.0","yo2qhtaz","","","","","","","",""
"1506.2399999997579","{""judgement"":1}","[0]","survey-likert","323","2288482","0.0-323.0","yo2qhtaz","","","","","","","","0"
"951.4150000000373","{""confidence"":1}","[0]","survey-likert","324","2289434","0.0-324.0","yo2qhtaz","","","","","","","",""
"","","","call-function","325","2289435","0.0-325.0","yo2qhtaz","","","","","","","",""
"null","","","html-keyboard-response","326","2290941","0.0-326.0","yo2qhtaz","","<span style=""color:Black; font-size:50px;"">Agent A","null","","","","",""
"null","","","video-keyboard-response","327","2294037","0.0-327.0","yo2qhtaz","","","null","","Agent A","veridical","STIM_SET_1_REAL/1592890.bmp_pp82_L2_V1.0_veridical_freeview_isoFalse_fps144.mp4",""
"null","","","html-keyboard-response","328","2295541","0.0-328.0","yo2qhtaz","","<span style=""color:Black; font-size:50px;"">Agent B","null","","","","",""
"null","","","video-keyboard-response","329","2298648","0.0-329.0","yo2qhtaz","","","null","","Agent B","scrambled","STIM_SET_3/1592168.bmp_pp71_L1_V2_veridical_freeview_isoFalsemismatch_1592890.bmp_L2_fps90.mp4",""
"","","","call-function","330","2298649","0.0-330.0","yo2qhtaz","","","","","","","",""
"3428.185000000056","{""judgement"":0}","[0]","survey-likert","331","2302078","0.0-331.0","yo2qhtaz","","","","","","","","0"
"2000.845000000205","{""confidence"":1}","[0]","survey-likert","332","2304081","0.0-332.0","yo2qhtaz","","","","","","","",""
"8334.01500000013","","","instructions","333","2312415","0.0-333.0","yo2qhtaz","[{""page_index"":0,""viewing_time"":1294.5649999999441},{""page_index"":1,""viewing_time"":5735.0800000000745},{""page_index"":2,""viewing_time"":1304.125}]","","","","","","",""
"3229.25","","","instructions","334","2315645","0.0-334.0","yo2qhtaz","[{""page_index"":0,""viewing_time"":1034.0449999999255},{""page_index"":1,""viewing_time"":1378.125},{""page_index"":2,""viewing_time"":816.9699999997392}]","","","","","","",""
"","","","call-function","335","2315646","0.0-335.0","yo2qhtaz","","","","","","","",""
"null","","","html-keyboard-response","336","2317149","0.0-336.0","yo2qhtaz","","<span style=""color:Black; font-size:50px;"">Agent A","null","","","","",""
"null","","","video-keyboard-response","337","2320224","0.0-337.0","yo2qhtaz","","","null","","Agent A","veridical","STIM_SET_1_REAL/712977.bmp_pp51_L1_V1.0_veridical_freeview_isoFalse_fps144.mp4",""
"null","","","html-keyboard-response","338","2321731","0.0-338.0","yo2qhtaz","","<span style=""color:Black; font-size:50px;"">Agent B","null","","","","",""
"null","","","video-keyboard-response","339","2324793","0.0-339.0","yo2qhtaz","","","null","","Agent B","scrambled","STIM_SET_3/1592951.bmp_pp80_L3_V2_veridical_freeview_isoFalsemismatch_712977.bmp_L1_fps90.mp4",""
"","","","call-function","340","2324794","0.0-340.0","yo2qhtaz","","","","","","","",""
"4617.850000000093","{""judgement"":0}","[0]","survey-likert","341","2329412","0.0-341.0","yo2qhtaz","","","","","","","","0"
"2531.605000000447","{""confidence"":3}","[0]","survey-likert","342","2331945","0.0-342.0","yo2qhtaz","","","","","","","",""
"","","","call-function","343","2331946","0.0-343.0","yo2qhtaz","","","","","","","",""
"null","","","html-keyboard-response","344","2333449","0.0-344.0","yo2qhtaz","","<span style=""color:Black; font-size:50px;"">Agent A","null","","","","",""
"null","","","video-keyboard-response","345","2336530","0.0-345.0","yo2qhtaz","","","null","","Agent A","scrambled","STIM_SET_3/285946.bmp_pp79_L2_V2_veridical_freeview_isoFalsemismatch_285751.bmp_L3_fps90.mp4",""
"null","","","html-keyboard-response","346","2338032","0.0-346.0","yo2qhtaz","","<span style=""color:Black; font-size:50px;"">Agent B","null","","","","",""
"null","","","video-keyboard-response","347","2341104","0.0-347.0","yo2qhtaz","","","null","","Agent B","veridical","STIM_SET_1_REAL/285751.bmp_pp55_L3_V1.0_veridical_freeview_isoFalse_fps144.mp4",""
"","","","call-function","348","2341106","0.0-348.0","yo2qhtaz","","","","","","","",""
"1758.8549999999814","{""judgement"":1}","[0]","survey-likert","349","2342866","0.0-349.0","yo2qhtaz","","","","","","","","1"
"2589.0749999997206","{""confidence"":3}","[0]","survey-likert","350","2345457","0.0-350.0","yo2qhtaz","","","","","","","",""
"","","","call-function","351","2345457","0.0-351.0","yo2qhtaz","","","","","","","",""
"null","","","html-keyboard-response","352","2346959","0.0-352.0","yo2qhtaz","","<span style=""color:Black; font-size:50px;"">Agent A","null","","","","",""
"null","","","video-keyboard-response","353","2350035","0.0-353.0","yo2qhtaz","","","null","","Agent A","veridical","STIM_SET_1_REAL/498111.bmp_pp88_L2_V1.0_veridical_freeview_isoFalse_fps144.mp4",""
"null","","","html-keyboard-response","354","2351541","0.0-354.0","yo2qhtaz","","<span style=""color:Black; font-size:50px;"">Agent B","null","","","","",""
"null","","","video-keyboard-response","355","2354611","0.0-355.0","yo2qhtaz","","","null","","Agent B","scrambled","STIM_SET_3/1592350.bmp_pp55_L3_V2_veridical_freeview_isoFalsemismatch_498111.bmp_L2_fps90.mp4",""
"","","","call-function","356","2354612","0.0-356.0","yo2qhtaz","","","","","","","",""
"1554.3050000001676","{""judgement"":0}","[0]","survey-likert","357","2356167","0.0-357.0","yo2qhtaz","","","","","","","","0"
"1469.4449999998324","{""confidence"":2}","[0]","survey-likert","358","2357638","0.0-358.0","yo2qhtaz","","","","","","","",""
"","","","call-function","359","2357639","0.0-359.0","yo2qhtaz","","","","","","","",""
"null","","","html-keyboard-response","360","2359144","0.0-360.0","yo2qhtaz","","<span style=""color:Black; font-size:50px;"">Agent A","null","","","","",""
"null","","","video-keyboard-response","361","2362211","0.0-361.0","yo2qhtaz","","","null","","Agent A","scrambled","STIM_SET_3/1592530.bmp_pp75_L1_V2_veridical_freeview_isoFalsemismatch_1591961.bmp_L2_fps90.mp4",""
"null","","","html-keyboard-response","362","2363713","0.0-362.0","yo2qhtaz","","<span style=""color:Black; font-size:50px;"">Agent B","null","","","","",""
"null","","","video-keyboard-response","363","2366784","0.0-363.0","yo2qhtaz","","","null","","Agent B","veridical","STIM_SET_1_REAL/1591961.bmp_pp67_L2_V1.0_veridical_freeview_isoFalse_fps144.mp4",""
"","","","call-function","364","2366785","0.0-364.0","yo2qhtaz","","","","","","","",""
"2324.3849999997765","{""judgement"":1}","[0]","survey-likert","365","2369110","0.0-365.0","yo2qhtaz","","","","","","","","1"
"1237.5400000000373","{""confidence"":3}","[0]","survey-likert","366","2370349","0.0-366.0","yo2qhtaz","","","","","","","",""
"","","","call-function","367","2370349","0.0-367.0","yo2qhtaz","","","","","","","",""
"null","","","html-keyboard-response","368","2371850","0.0-368.0","yo2qhtaz","","<span style=""color:Black; font-size:50px;"">Agent A","null","","","","",""
"null","","","video-keyboard-response","369","2374957","0.0-369.0","yo2qhtaz","","","null","","Agent A","scrambled","STIM_SET_3/1592047.bmp_pp51_L1_V2_veridical_freeview_isoFalsemismatch_713513.bmp_L2_fps90.mp4",""
"null","","","html-keyboard-response","370","2376458","0.0-370.0","yo2qhtaz","","<span style=""color:Black; font-size:50px;"">Agent B","null","","","","",""
"null","","","video-keyboard-response","371","2379549","0.0-371.0","yo2qhtaz","","","null","","Agent B","veridical","STIM_SET_1_REAL/713513.bmp_pp62_L2_V1.0_veridical_freeview_isoFalse_fps144.mp4",""
"","","","call-function","372","2379549","0.0-372.0","yo2qhtaz","","","","","","","",""
"1663.3649999997579","{""judgement"":1}","[0]","survey-likert","373","2381214","0.0-373.0","yo2qhtaz","","","","","","","","1"
"1058.8650000002235","{""confidence"":2}","[0]","survey-likert","374","2382274","0.0-374.0","yo2qhtaz","","","","","","","",""
"","","","call-function","375","2382274","0.0-375.0","yo2qhtaz","","","","","","","",""
"null","","","html-keyboard-response","376","2383777","0.0-376.0","yo2qhtaz","","<span style=""color:Black; font-size:50px;"">Agent A","null","","","","",""
"null","","","video-keyboard-response","377","2386867","0.0-377.0","yo2qhtaz","","","null","","Agent A","scrambled","STIM_SET_3/286034.bmp_pp69_L3_V2_veridical_freeview_isoFalsemismatch_713403.bmp_L3_fps90.mp4",""
"null","","","html-keyboard-response","378","2388371","0.0-378.0","yo2qhtaz","","<span style=""color:Black; font-size:50px;"">Agent B","null","","","","",""
"null","","","video-keyboard-response","379","2391460","0.0-379.0","yo2qhtaz","","","null","","Agent B","veridical","STIM_SET_1_REAL/713403.bmp_pp80_L3_V1.0_veridical_freeview_isoFalse_fps144.mp4",""
"","","","call-function","380","2391461","0.0-380.0","yo2qhtaz","","","","","","","",""
"2094.3549999999814","{""judgement"":1}","[0]","survey-likert","381","2393556","0.0-381.0","yo2qhtaz","","","","","","","","1"
"3944.4850000003353","{""confidence"":2}","[0]","survey-likert","382","2397502","0.0-382.0","yo2qhtaz","","","","","","","",""
"","","","call-function","383","2397502","0.0-383.0","yo2qhtaz","","","","","","","",""
"null","","","html-keyboard-response","384","2399008","0.0-384.0","yo2qhtaz","","<span style=""color:Black; font-size:50px;"">Agent A","null","","","","",""
"null","","","video-keyboard-response","385","2402115","0.0-385.0","yo2qhtaz","","","null","","Agent A","veridical","STIM_SET_1_REAL/1160127.bmp_pp90_L2_V1.0_veridical_freeview_isoFalse_fps144.mp4",""
"null","","","html-keyboard-response","386","2403621","0.0-386.0","yo2qhtaz","","<span style=""color:Black; font-size:50px;"">Agent B","null","","","","",""
"null","","","video-keyboard-response","387","2406731","0.0-387.0","yo2qhtaz","","","null","","Agent B","scrambled","STIM_SET_3/498372.bmp_pp95_L2_V2_veridical_freeview_isoFalsemismatch_1160127.bmp_L2_fps90.mp4",""
"","","","call-function","388","2406732","0.0-388.0","yo2qhtaz","","","","","","","",""
"2938.470000000205","{""judgement"":1}","[0]","survey-likert","389","2409671","0.0-389.0","yo2qhtaz","","","","","","","","0"
"2593.3799999998882","{""confidence"":1}","[0]","survey-likert","390","2412266","0.0-390.0","yo2qhtaz","","","","","","","",""
"","","","call-function","391","2412267","0.0-391.0","yo2qhtaz","","","","","","","",""
"null","","","html-keyboard-response","392","2413768","0.0-392.0","yo2qhtaz","","<span style=""color:Black; font-size:50px;"">Agent A","null","","","","",""
"null","","","video-keyboard-response","393","2416831","0.0-393.0","yo2qhtaz","","","null","","Agent A","veridical","STIM_SET_1_REAL/498170.bmp_pp153_L3_V1.0_veridical_freeview_isoFalse_fps144.mp4",""
"null","","","html-keyboard-response","394","2418334","0.0-394.0","yo2qhtaz","","<span style=""color:Black; font-size:50px;"">Agent B","null","","","","",""
"null","","","video-keyboard-response","395","2421432","0.0-395.0","yo2qhtaz","","","null","","Agent B","scrambled","STIM_SET_3/713742.bmp_pp91_L3_V2_veridical_freeview_isoFalsemismatch_498170.bmp_L3_fps90.mp4",""
"","","","call-function","396","2421432","0.0-396.0","yo2qhtaz","","","","","","","",""
"4597.199999999721","{""judgement"":1}","[0]","survey-likert","397","2426030","0.0-397.0","yo2qhtaz","","","","","","","","0"
"1738.3500000000931","{""confidence"":0}","[0]","survey-likert","398","2427770","0.0-398.0","yo2qhtaz","","","","","","","",""
"","","","call-function","399","2427770","0.0-399.0","yo2qhtaz","","","","","","","",""
"null","","","html-keyboard-response","400","2429273","0.0-400.0","yo2qhtaz","","<span style=""color:Black; font-size:50px;"">Agent A","null","","","","",""
"null","","","video-keyboard-response","401","2432350","0.0-401.0","yo2qhtaz","","","null","","Agent A","veridical","STIM_SET_1_REAL/1592372.bmp_pp76_L1_V1.0_veridical_freeview_isoFalse_fps144.mp4",""
"null","","","html-keyboard-response","402","2433853","0.0-402.0","yo2qhtaz","","<span style=""color:Black; font-size:50px;"">Agent B","null","","","","",""
"null","","","video-keyboard-response","403","2436926","0.0-403.0","yo2qhtaz","","","null","","Agent B","scrambled","STIM_SET_3/107909.bmp_pp95_L2_V2_veridical_freeview_isoFalsemismatch_1592372.bmp_L1_fps90.mp4",""
"","","","call-function","404","2436927","0.0-404.0","yo2qhtaz","","","","","","","",""
"1882.755000000354","{""judgement"":0}","[0]","survey-likert","405","2438811","0.0-405.0","yo2qhtaz","","","","","","","","0"
"1903.1949999998324","{""confidence"":2}","[0]","survey-likert","406","2440715","0.0-406.0","yo2qhtaz","","","","","","","",""
"","","","call-function","407","2440716","0.0-407.0","yo2qhtaz","","","","","","","",""
"null","","","html-keyboard-response","408","2442218","0.0-408.0","yo2qhtaz","","<span style=""color:Black; font-size:50px;"">Agent A","null","","","","",""
"null","","","video-keyboard-response","409","2445324","0.0-409.0","yo2qhtaz","","","null","","Agent A","scrambled","STIM_SET_3/1160247.bmp_pp54_L2_V2_veridical_freeview_isoFalsemismatch_1592133.bmp_L1_fps90.mp4",""
"null","","","html-keyboard-response","410","2446829","0.0-410.0","yo2qhtaz","","<span style=""color:Black; font-size:50px;"">Agent B","null","","","","",""
"null","","","video-keyboard-response","411","2449924","0.0-411.0","yo2qhtaz","","","null","","Agent B","veridical","STIM_SET_1_REAL/1592133.bmp_pp75_L1_V1.0_veridical_freeview_isoFalse_fps144.mp4",""
"","","","call-function","412","2449925","0.0-412.0","yo2qhtaz","","","","","","","",""
"1871.1400000001304","{""judgement"":1}","[0]","survey-likert","413","2451797","0.0-413.0","yo2qhtaz","","","","","","","","1"
"2873.75","{""confidence"":1}","[0]","survey-likert","414","2454672","0.0-414.0","yo2qhtaz","","","","","","","",""
"4164","","","instructions","415","2458837","0.0-415.0","yo2qhtaz","[{""page_index"":0,""viewing_time"":2044.5600000000559},{""page_index"":1,""viewing_time"":1048.0649999999441},{""page_index"":2,""viewing_time"":1071.2099999999627}]","","","","","","",""
"64947.06500000041","","","instructions","416","2523785","0.0-416.0","yo2qhtaz","[{""page_index"":0,""viewing_time"":1223.9799999999814},{""page_index"":1,""viewing_time"":1508.9850000003353},{""page_index"":2,""viewing_time"":62213.89500000002}]","","","","","","",""
"","","","call-function","417","2523786","0.0-417.0","yo2qhtaz","","","","","","","",""
"null","","","html-keyboard-response","418","2525291","0.0-418.0","yo2qhtaz","","<span style=""color:Black; font-size:50px;"">Agent A","null","","","","",""
"null","","","video-keyboard-response","419","2528359","0.0-419.0","yo2qhtaz","","","null","","Agent A","scrambled","STIM_SET_3/1592747.bmp_pp53_L2_V2_veridical_freeview_isoFalsemismatch_713593.bmp_L1_fps90.mp4",""
"null","","","html-keyboard-response","420","2529861","0.0-420.0","yo2qhtaz","","<span style=""color:Black; font-size:50px;"">Agent B","null","","","","",""
"null","","","video-keyboard-response","421","2532936","0.0-421.0","yo2qhtaz","","","null","","Agent B","veridical","STIM_SET_1_REAL/713593.bmp_pp64_L1_V1.0_veridical_freeview_isoFalse_fps144.mp4",""
"","","","call-function","422","2532936","0.0-422.0","yo2qhtaz","","","","","","","",""
"2169.3900000001304","{""judgement"":1}","[0]","survey-likert","423","2535107","0.0-423.0","yo2qhtaz","","","","","","","","1"
"1920.8700000001118","{""confidence"":2}","[0]","survey-likert","424","2537029","0.0-424.0","yo2qhtaz","","","","","","","",""
"","","","call-function","425","2537030","0.0-425.0","yo2qhtaz","","","","","","","",""
"null","","","html-keyboard-response","426","2538533","0.0-426.0","yo2qhtaz","","<span style=""color:Black; font-size:50px;"">Agent A","null","","","","",""
"null","","","video-keyboard-response","427","2541596","0.0-427.0","yo2qhtaz","","","null","","Agent A","veridical","STIM_SET_1_REAL/1593035.bmp_pp94_L2_V1.0_veridical_freeview_isoFalse_fps144.mp4",""
"null","","","html-keyboard-response","428","2543101","0.0-428.0","yo2qhtaz","","<span style=""color:Black; font-size:50px;"">Agent B","null","","","","",""
"null","","","video-keyboard-response","429","2546162","0.0-429.0","yo2qhtaz","","","null","","Agent B","scrambled","STIM_SET_3/1159325.bmp_pp67_L2_V2_veridical_freeview_isoFalsemismatch_1593035.bmp_L2_fps90.mp4",""
"","","","call-function","430","2546162","0.0-430.0","yo2qhtaz","","","","","","","",""
"1897.2600000002421","{""judgement"":0}","[0]","survey-likert","431","2548061","0.0-431.0","yo2qhtaz","","","","","","","","0"
"1418.9699999997392","{""confidence"":2}","[0]","survey-likert","432","2549481","0.0-432.0","yo2qhtaz","","","","","","","",""
"","","","call-function","433","2549481","0.0-433.0","yo2qhtaz","","","","","","","",""
"null","","","html-keyboard-response","434","2550984","0.0-434.0","yo2qhtaz","","<span style=""color:Black; font-size:50px;"">Agent A","null","","","","",""
"null","","","video-keyboard-response","435","2554080","0.0-435.0","yo2qhtaz","","","null","","Agent A","veridical","STIM_SET_1_REAL/1592934.bmp_pp63_L1_V1.0_veridical_freeview_isoFalse_fps144.mp4",""
"null","","","html-keyboard-response","436","2555587","0.0-436.0","yo2qhtaz","","<span style=""color:Black; font-size:50px;"">Agent B","null","","","","",""
"null","","","video-keyboard-response","437","2558679","0.0-437.0","yo2qhtaz","","","null","","Agent B","scrambled","STIM_SET_3/1159392.bmp_pp96_L2_V2_veridical_freeview_isoFalsemismatch_1592934.bmp_L1_fps90.mp4",""
"","","","call-function","438","2558679","0.0-438.0","yo2qhtaz","","","","","","","",""
"7598.805000000168","{""judgement"":0}","[0]","survey-likert","439","2566279","0.0-439.0","yo2qhtaz","","","","","","","","0"
"1362.3950000000186","{""confidence"":0}","[0]","survey-likert","440","2567643","0.0-440.0","yo2qhtaz","","","","","","","",""
"","","","call-function","441","2567643","0.0-441.0","yo2qhtaz","","","","","","","",""
"null","","","html-keyboard-response","442","2569145","0.0-442.0","yo2qhtaz","","<span style=""color:Black; font-size:50px;"">Agent A","null","","","","",""
"null","","","video-keyboard-response","443","2572244","0.0-443.0","yo2qhtaz","","","null","","Agent A","scrambled","STIM_SET_3/1160049.bmp_pp53_L2_V2_veridical_freeview_isoFalsemismatch_1591954.bmp_L2_fps90.mp4",""
"null","","","html-keyboard-response","444","2573746","0.0-444.0","yo2qhtaz","","<span style=""color:Black; font-size:50px;"">Agent B","null","","","","",""
"null","","","video-keyboard-response","445","2576857","0.0-445.0","yo2qhtaz","","","null","","Agent B","veridical","STIM_SET_1_REAL/1591954.bmp_pp62_L2_V1.0_veridical_freeview_isoFalse_fps144.mp4",""
"","","","call-function","446","2576858","0.0-446.0","yo2qhtaz","","","","","","","",""
"1657.779999999795","{""judgement"":0}","[0]","survey-likert","447","2578517","0.0-447.0","yo2qhtaz","","","","","","","","1"
"1457.4500000001863","{""confidence"":1}","[0]","survey-likert","448","2579975","0.0-448.0","yo2qhtaz","","","","","","","",""
"","","","call-function","449","2579976","0.0-449.0","yo2qhtaz","","","","","","","",""
"null","","","html-keyboard-response","450","2581482","0.0-450.0","yo2qhtaz","","<span style=""color:Black; font-size:50px;"">Agent A","null","","","","",""
"null","","","video-keyboard-response","451","2584572","0.0-451.0","yo2qhtaz","","","null","","Agent A","scrambled","STIM_SET_3/1592017.bmp_pp154_L1_V2_veridical_freeview_isoFalsemismatch_1159777.bmp_L3_fps90.mp4",""
"null","","","html-keyboard-response","452","2586073","0.0-452.0","yo2qhtaz","","<span style=""color:Black; font-size:50px;"">Agent B","null","","","","",""
"null","","","video-keyboard-response","453","2589181","0.0-453.0","yo2qhtaz","","","null","","Agent B","veridical","STIM_SET_1_REAL/1159777.bmp_pp77_L3_V1.0_veridical_freeview_isoFalse_fps144.mp4",""
"","","","call-function","454","2589182","0.0-454.0","yo2qhtaz","","","","","","","",""
"1398.7599999997765","{""judgement"":0}","[0]","survey-likert","455","2590581","0.0-455.0","yo2qhtaz","","","","","","","","1"
"1465.7800000002608","{""confidence"":2}","[0]","survey-likert","456","2592048","0.0-456.0","yo2qhtaz","","","","","","","",""
"","","","call-function","457","2592049","0.0-457.0","yo2qhtaz","","","","","","","",""
"null","","","html-keyboard-response","458","2593551","0.0-458.0","yo2qhtaz","","<span style=""color:Black; font-size:50px;"">Agent A","null","","","","",""
"null","","","video-keyboard-response","459","2596618","0.0-459.0","yo2qhtaz","","","null","","Agent A","veridical","STIM_SET_1_REAL/1592581.bmp_pp100_L3_V1.0_veridical_freeview_isoFalse_fps144.mp4",""
"null","","","html-keyboard-response","460","2598122","0.0-460.0","yo2qhtaz","","<span style=""color:Black; font-size:50px;"">Agent B","null","","","","",""
"null","","","video-keyboard-response","461","2601189","0.0-461.0","yo2qhtaz","","","null","","Agent B","scrambled","STIM_SET_3/1160189.bmp_pp64_L1_V2_veridical_freeview_isoFalsemismatch_1592581.bmp_L3_fps90.mp4",""
"","","","call-function","462","2601189","0.0-462.0","yo2qhtaz","","","","","","","",""
"3352.9099999996834","{""judgement"":0}","[0]","survey-likert","463","2604543","0.0-463.0","yo2qhtaz","","","","","","","","0"
"1058.3249999997206","{""confidence"":1}","[0]","survey-likert","464","2605603","0.0-464.0","yo2qhtaz","","","","","","","",""
"","","","call-function","465","2605603","0.0-465.0","yo2qhtaz","","","","","","","",""
"null","","","html-keyboard-response","466","2607105","0.0-466.0","yo2qhtaz","","<span style=""color:Black; font-size:50px;"">Agent A","null","","","","",""
"null","","","video-keyboard-response","467","2610189","0.0-467.0","yo2qhtaz","","","null","","Agent A","scrambled","STIM_SET_3/498025.bmp_pp81_L1_V2_veridical_freeview_isoFalsemismatch_713681.bmp_L2_fps90.mp4",""
"null","","","html-keyboard-response","468","2611696","0.0-468.0","yo2qhtaz","","<span style=""color:Black; font-size:50px;"">Agent B","null","","","","",""
"null","","","video-keyboard-response","469","2614759","0.0-469.0","yo2qhtaz","","","null","","Agent B","veridical","STIM_SET_1_REAL/713681.bmp_pp86_L2_V1.0_veridical_freeview_isoFalse_fps144.mp4",""
"","","","call-function","470","2614760","0.0-470.0","yo2qhtaz","","","","","","","",""
"2388.2750000003725","{""judgement"":1}","[0]","survey-likert","471","2617149","0.0-471.0","yo2qhtaz","","","","","","","","1"
"1003.6350000002421","{""confidence"":1}","[0]","survey-likert","472","2618154","0.0-472.0","yo2qhtaz","","","","","","","",""
"","","","call-function","473","2618154","0.0-473.0","yo2qhtaz","","","","","","","",""
"null","","","html-keyboard-response","474","2619658","0.0-474.0","yo2qhtaz","","<span style=""color:Black; font-size:50px;"">Agent A","null","","","","",""
"null","","","video-keyboard-response","475","2622764","0.0-475.0","yo2qhtaz","","","null","","Agent A","veridical","STIM_SET_1_REAL/713684.bmp_pp85_L3_V1.0_veridical_freeview_isoFalse_fps144.mp4",""
"null","","","html-keyboard-response","476","2624268","0.0-476.0","yo2qhtaz","","<span style=""color:Black; font-size:50px;"">Agent B","null","","","","",""
"null","","","video-keyboard-response","477","2627368","0.0-477.0","yo2qhtaz","","","null","","Agent B","scrambled","STIM_SET_3/713920.bmp_pp76_L1_V2_veridical_freeview_isoFalsemismatch_713684.bmp_L3_fps90.mp4",""
"","","","call-function","478","2627369","0.0-478.0","yo2qhtaz","","","","","","","",""
"2765.5499999998137","{""judgement"":1}","[0]","survey-likert","479","2630136","0.0-479.0","yo2qhtaz","","","","","","","","0"
"2524.720000000205","{""confidence"":1}","[0]","survey-likert","480","2632662","0.0-480.0","yo2qhtaz","","","","","","","",""
"","","","call-function","481","2632662","0.0-481.0","yo2qhtaz","","","","","","","",""
"null","","","html-keyboard-response","482","2634165","0.0-482.0","yo2qhtaz","","<span style=""color:Black; font-size:50px;"">Agent A","null","","","","",""
"null","","","video-keyboard-response","483","2637254","0.0-483.0","yo2qhtaz","","","null","","Agent A","veridical","STIM_SET_1_REAL/713089.bmp_pp60_L3_V1.0_veridical_freeview_isoFalse_fps144.mp4",""
"null","","","html-keyboard-response","484","2638757","0.0-484.0","yo2qhtaz","","<span style=""color:Black; font-size:50px;"">Agent B","null","","","","",""
"null","","","video-keyboard-response","485","2641856","0.0-485.0","yo2qhtaz","","","null","","Agent B","scrambled","STIM_SET_3/1592201.bmp_pp97_L3_V2_veridical_freeview_isoFalsemismatch_713089.bmp_L3_fps90.mp4",""
"","","","call-function","486","2641857","0.0-486.0","yo2qhtaz","","","","","","","",""
"1530.3050000001676","{""judgement"":0}","[0]","survey-likert","487","2643388","0.0-487.0","yo2qhtaz","","","","","","","","0"
"1833.1949999998324","{""confidence"":3}","[0]","survey-likert","488","2645223","0.0-488.0","yo2qhtaz","","","","","","","",""
"","","","call-function","489","2645223","0.0-489.0","yo2qhtaz","","","","","","","",""
"null","","","html-keyboard-response","490","2646729","0.0-490.0","yo2qhtaz","","<span style=""color:Black; font-size:50px;"">Agent A","null","","","","",""
"null","","","video-keyboard-response","491","2649825","0.0-491.0","yo2qhtaz","","","null","","Agent A","scrambled","STIM_SET_3/713652.bmp_pp89_L1_V2_veridical_freeview_isoFalsemismatch_1592807.bmp_L1_fps90.mp4",""
"null","","","html-keyboard-response","492","2651331","0.0-492.0","yo2qhtaz","","<span style=""color:Black; font-size:50px;"">Agent B","null","","","","",""
"null","","","video-keyboard-response","493","2654406","0.0-493.0","yo2qhtaz","","","null","","Agent B","veridical","STIM_SET_1_REAL/1592807.bmp_pp68_L1_V1.0_veridical_freeview_isoFalse_fps144.mp4",""
"","","","call-function","494","2654407","0.0-494.0","yo2qhtaz","","","","","","","",""
"2206.0949999997392","{""judgement"":0}","[0]","survey-likert","495","2656614","0.0-495.0","yo2qhtaz","","","","","","","","1"
"3055.0749999997206","{""confidence"":2}","[0]","survey-likert","496","2659671","0.0-496.0","yo2qhtaz","","","","","","","",""
"10732.055000000168","","","instructions","497","2670404","0.0-497.0","yo2qhtaz","[{""page_index"":0,""viewing_time"":1123.470000000205},{""page_index"":1,""viewing_time"":2560.0400000000373},{""page_index"":2,""viewing_time"":7048.370000000112}]","","","","","","",""
"5884.915000000037","","","instructions","498","2676290","0.0-498.0","yo2qhtaz","[{""page_index"":0,""viewing_time"":1074.7999999998137},{""page_index"":1,""viewing_time"":3824.1049999999814},{""page_index"":2,""viewing_time"":985.9050000002608}]","","","","","","",""
"","","","call-function","499","2676291","0.0-499.0","yo2qhtaz","","","","","","","",""
"null","","","html-keyboard-response","500","2677795","0.0-500.0","yo2qhtaz","","<span style=""color:Black; font-size:50px;"">Agent A","null","","","","",""
"null","","","video-keyboard-response","501","2680872","0.0-501.0","yo2qhtaz","","","null","","Agent A","veridical","STIM_SET_1_REAL/1159675.bmp_pp77_L3_V1.0_veridical_freeview_isoFalse_fps144.mp4",""
"null","","","html-keyboard-response","502","2682376","0.0-502.0","yo2qhtaz","","<span style=""color:Black; font-size:50px;"">Agent B","null","","","","",""
"null","","","video-keyboard-response","503","2685445","0.0-503.0","yo2qhtaz","","","null","","Agent B","scrambled","STIM_SET_3/1159508.bmp_pp151_L1_V2_veridical_freeview_isoFalsemismatch_1159675.bmp_L3_fps90.mp4",""
"","","","call-function","504","2685446","0.0-504.0","yo2qhtaz","","","","","","","",""
"1920.5300000002608","{""judgement"":0}","[0]","survey-likert","505","2687368","0.0-505.0","yo2qhtaz","","","","","","","","0"
"1378.8050000001676","{""confidence"":3}","[0]","survey-likert","506","2688748","0.0-506.0","yo2qhtaz","","","","","","","",""
"","","","call-function","507","2688749","0.0-507.0","yo2qhtaz","","","","","","","",""
"null","","","html-keyboard-response","508","2690250","0.0-508.0","yo2qhtaz","","<span style=""color:Black; font-size:50px;"">Agent A","null","","","","",""
"null","","","video-keyboard-response","509","2693325","0.0-509.0","yo2qhtaz","","","null","","Agent A","scrambled","STIM_SET_3/1592038.bmp_pp79_L2_V2_veridical_freeview_isoFalsemismatch_1592727.bmp_L3_fps90.mp4",""
"null","","","html-keyboard-response","510","2694829","0.0-510.0","yo2qhtaz","","<span style=""color:Black; font-size:50px;"">Agent B","null","","","","",""
"null","","","video-keyboard-response","511","2697895","0.0-511.0","yo2qhtaz","","","null","","Agent B","veridical","STIM_SET_1_REAL/1592727.bmp_pp59_L3_V1.0_veridical_freeview_isoFalse_fps144.mp4",""
"","","","call-function","512","2697896","0.0-512.0","yo2qhtaz","","","","","","","",""
"3086.8950000000186","{""judgement"":1}","[0]","survey-likert","513","2700984","0.0-513.0","yo2qhtaz","","","","","","","","1"
"1054.7400000002235","{""confidence"":3}","[0]","survey-likert","514","2702040","0.0-514.0","yo2qhtaz","","","","","","","",""
"","","","call-function","515","2702040","0.0-515.0","yo2qhtaz","","","","","","","",""
"null","","","html-keyboard-response","516","2703544","0.0-516.0","yo2qhtaz","","<span style=""color:Black; font-size:50px;"">Agent A","null","","","","",""
"null","","","video-keyboard-response","517","2706633","0.0-517.0","yo2qhtaz","","","null","","Agent A","scrambled","STIM_SET_3/107955.bmp_pp90_L2_V2_veridical_freeview_isoFalsemismatch_498149.bmp_L2_fps90.mp4",""
"null","","","html-keyboard-response","518","2708139","0.0-518.0","yo2qhtaz","","<span style=""color:Black; font-size:50px;"">Agent B","null","","","","",""
"null","","","video-keyboard-response","519","2711227","0.0-519.0","yo2qhtaz","","","null","","Agent B","veridical","STIM_SET_1_REAL/498149.bmp_pp99_L2_V1.0_veridical_freeview_isoFalse_fps144.mp4",""
"","","","call-function","520","2711228","0.0-520.0","yo2qhtaz","","","","","","","",""
"1684.0699999998324","{""judgement"":1}","[0]","survey-likert","521","2712912","0.0-521.0","yo2qhtaz","","","","","","","","1"
"1653.2299999999814","{""confidence"":2}","[0]","survey-likert","522","2714567","0.0-522.0","yo2qhtaz","","","","","","","",""
"","","","call-function","523","2714567","0.0-523.0","yo2qhtaz","","","","","","","",""
"null","","","html-keyboard-response","524","2716072","0.0-524.0","yo2qhtaz","","<span style=""color:Black; font-size:50px;"">Agent A","null","","","","",""
"null","","","video-keyboard-response","525","2719165","0.0-525.0","yo2qhtaz","","","null","","Agent A","scrambled","STIM_SET_3/1592314.bmp_pp100_L3_V2_veridical_freeview_isoFalsemismatch_713707.bmp_L1_fps90.mp4",""
"null","","","html-keyboard-response","526","2720668","0.0-526.0","yo2qhtaz","","<span style=""color:Black; font-size:50px;"">Agent B","null","","","","",""
"null","","","video-keyboard-response","527","2723775","0.0-527.0","yo2qhtaz","","","null","","Agent B","veridical","STIM_SET_1_REAL/713707.bmp_pp154_L1_V1.0_veridical_freeview_isoFalse_fps144.mp4",""
"","","","call-function","528","2723776","0.0-528.0","yo2qhtaz","","","","","","","",""
"6056.274999999907","{""judgement"":1}","[0]","survey-likert","529","2729833","0.0-529.0","yo2qhtaz","","","","","","","","1"
"1114.6949999998324","{""confidence"":1}","[0]","survey-likert","530","2730949","0.0-530.0","yo2qhtaz","","","","","","","",""
"","","","call-function","531","2730949","0.0-531.0","yo2qhtaz","","","","","","","",""
"null","","","html-keyboard-response","532","2732452","0.0-532.0","yo2qhtaz","","<span style=""color:Black; font-size:50px;"">Agent A","null","","","","",""
"null","","","video-keyboard-response","533","2735545","0.0-533.0","yo2qhtaz","","","null","","Agent A","veridical","STIM_SET_1_REAL/1159621.bmp_pp92_L3_V1.0_veridical_freeview_isoFalse_fps144.mp4",""
"null","","","html-keyboard-response","534","2737051","0.0-534.0","yo2qhtaz","","<span style=""color:Black; font-size:50px;"">Agent B","null","","","","",""
"null","","","video-keyboard-response","535","2740143","0.0-535.0","yo2qhtaz","","","null","","Agent B","scrambled","STIM_SET_3/1159860.bmp_pp152_L2_V2_veridical_freeview_isoFalsemismatch_1159621.bmp_L3_fps90.mp4",""
"","","","call-function","536","2740144","0.0-536.0","yo2qhtaz","","","","","","","",""
"4698","{""judgement"":0}","[0]","survey-likert","537","2744843","0.0-537.0","yo2qhtaz","","","","","","","","0"
"1385.3300000000745","{""confidence"":0}","[0]","survey-likert","538","2746229","0.0-538.0","yo2qhtaz","","","","","","","",""
"","","","call-function","539","2746230","0.0-539.0","yo2qhtaz","","","","","","","",""
"null","","","html-keyboard-response","540","2747736","0.0-540.0","yo2qhtaz","","<span style=""color:Black; font-size:50px;"">Agent A","null","","","","",""
"null","","","video-keyboard-response","541","2750805","0.0-541.0","yo2qhtaz","","","null","","Agent A","scrambled","STIM_SET_3/1159329.bmp_pp61_L2_V2_veridical_freeview_isoFalsemismatch_1592817.bmp_L3_fps90.mp4",""
"null","","","html-keyboard-response","542","2752312","0.0-542.0","yo2qhtaz","","<span style=""color:Black; font-size:50px;"">Agent B","null","","","","",""
"null","","","video-keyboard-response","543","2755374","0.0-543.0","yo2qhtaz","","","null","","Agent B","veridical","STIM_SET_1_REAL/1592817.bmp_pp55_L3_V1.0_veridical_freeview_isoFalse_fps144.mp4",""
"","","","call-function","544","2755374","0.0-544.0","yo2qhtaz","","","","","","","",""
"1369.410000000149","{""judgement"":1}","[0]","survey-likert","545","2756745","0.0-545.0","yo2qhtaz","","","","","","","","1"
"1447.625","{""confidence"":2}","[0]","survey-likert","546","2758194","0.0-546.0","yo2qhtaz","","","","","","","",""
"","","","call-function","547","2758195","0.0-547.0","yo2qhtaz","","","","","","","",""
"null","","","html-keyboard-response","548","2759701","0.0-548.0","yo2qhtaz","","<span style=""color:Black; font-size:50px;"">Agent A","null","","","","",""
"null","","","video-keyboard-response","549","2762773","0.0-549.0","yo2qhtaz","","","null","","Agent A","scrambled","STIM_SET_3/713788.bmp_pp52_L1_V2_veridical_freeview_isoFalsemismatch_1159768.bmp_L1_fps90.mp4",""
"null","","","html-keyboard-response","550","2764275","0.0-550.0","yo2qhtaz","","<span style=""color:Black; font-size:50px;"">Agent B","null","","","","",""
"null","","","video-keyboard-response","551","2767344","0.0-551.0","yo2qhtaz","","","null","","Agent B","veridical","STIM_SET_1_REAL/1159768.bmp_pp89_L1_V1.0_veridical_freeview_isoFalse_fps144.mp4",""
"","","","call-function","552","2767345","0.0-552.0","yo2qhtaz","","","","","","","",""
"1486.0750000001863","{""judgement"":0}","[0]","survey-likert","553","2768832","0.0-553.0","yo2qhtaz","","","","","","","","1"
"954.2700000000186","{""confidence"":1}","[0]","survey-likert","554","2769787","0.0-554.0","yo2qhtaz","","","","","","","",""
"","","","call-function","555","2769788","0.0-555.0","yo2qhtaz","","","","","","","",""
"null","","","html-keyboard-response","556","2771291","0.0-556.0","yo2qhtaz","","<span style=""color:Black; font-size:50px;"">Agent A","null","","","","",""
"null","","","video-keyboard-response","557","2774395","0.0-557.0","yo2qhtaz","","","null","","Agent A","scrambled","STIM_SET_3/713829.bmp_pp60_L3_V2_veridical_freeview_isoFalsemismatch_1159440.bmp_L1_fps90.mp4",""
"null","","","html-keyboard-response","558","2775901","0.0-558.0","yo2qhtaz","","<span style=""color:Black; font-size:50px;"">Agent B","null","","","","",""
"null","","","video-keyboard-response","559","2779006","0.0-559.0","yo2qhtaz","","","null","","Agent B","veridical","STIM_SET_1_REAL/1159440.bmp_pp98_L1_V1.0_veridical_freeview_isoFalse_fps144.mp4",""
"","","","call-function","560","2779006","0.0-560.0","yo2qhtaz","","","","","","","",""
"1292.7650000001304","{""judgement"":1}","[0]","survey-likert","561","2780300","0.0-561.0","yo2qhtaz","","","","","","","","1"
"1425.7250000000931","{""confidence"":3}","[0]","survey-likert","562","2781727","0.0-562.0","yo2qhtaz","","","","","","","",""
"","","","call-function","563","2781728","0.0-563.0","yo2qhtaz","","","","","","","",""
"null","","","html-keyboard-response","564","2783231","0.0-564.0","yo2qhtaz","","<span style=""color:Black; font-size:50px;"">Agent A","null","","","","",""
"null","","","video-keyboard-response","565","2786324","0.0-565.0","yo2qhtaz","","","null","","Agent A","scrambled","STIM_SET_3/1591920.bmp_pp97_L3_V2_veridical_freeview_isoFalsemismatch_1592804.bmp_L3_fps90.mp4",""
"null","","","html-keyboard-response","566","2787832","0.0-566.0","yo2qhtaz","","<span style=""color:Black; font-size:50px;"">Agent B","null","","","","",""
"null","","","video-keyboard-response","567","2790942","0.0-567.0","yo2qhtaz","","","null","","Agent B","veridical","STIM_SET_1_REAL/1592804.bmp_pp91_L3_V1.0_veridical_freeview_isoFalse_fps144.mp4",""
"","","","call-function","568","2790943","0.0-568.0","yo2qhtaz","","","","","","","",""
"7062.7050000000745","{""judgement"":1}","[0]","survey-likert","569","2798007","0.0-569.0","yo2qhtaz","","","","","","","","1"
"2906.364999999758","{""confidence"":0}","[0]","survey-likert","570","2800916","0.0-570.0","yo2qhtaz","","","","","","","",""
"","","","call-function","571","2800917","0.0-571.0","yo2qhtaz","","","","","","","",""
"null","","","html-keyboard-response","572","2802422","0.0-572.0","yo2qhtaz","","<span style=""color:Black; font-size:50px;"">Agent A","null","","","","",""
"null","","","video-keyboard-response","573","2805497","0.0-573.0","yo2qhtaz","","","null","","Agent A","scrambled","STIM_SET_3/713633.bmp_pp58_L1_V2_veridical_freeview_isoFalsemismatch_713796.bmp_L3_fps90.mp4",""
"null","","","html-keyboard-response","574","2807003","0.0-574.0","yo2qhtaz","","<span style=""color:Black; font-size:50px;"">Agent B","null","","","","",""
"null","","","video-keyboard-response","575","2810073","0.0-575.0","yo2qhtaz","","","null","","Agent B","veridical","STIM_SET_1_REAL/713796.bmp_pp84_L3_V1.0_veridical_freeview_isoFalse_fps144.mp4",""
"","","","call-function","576","2810074","0.0-576.0","yo2qhtaz","","","","","","","",""
"2722.005000000354","{""judgement"":1}","[0]","survey-likert","577","2812797","0.0-577.0","yo2qhtaz","","","","","","","","1"
"1268.4449999998324","{""confidence"":2}","[0]","survey-likert","578","2814067","0.0-578.0","yo2qhtaz","","","","","","","",""
"3482.0049999998882","","","instructions","579","2817550","0.0-579.0","yo2qhtaz","[{""page_index"":0,""viewing_time"":3481.8300000000745}]","","","","","","",""
"43062.54000000004","","","instructions","580","2860613","0.0-580.0","yo2qhtaz","[{""page_index"":0,""viewing_time"":43062.435000000056}]","","","","","","",""
"19448.114999999758","{""post-1"":3}","[0]","survey-likert","581","2880063","0.0-581.0","yo2qhtaz","","","","","","","",""
"9920.974999999627","{""post-1"":0}","[0]","survey-likert","582","2889985","0.0-582.0","yo2qhtaz","","","","","","","",""
"18639.89000000013","{""post-2"":2}","[0]","survey-likert","583","2908626","0.0-583.0","yo2qhtaz","","","","","","","",""
"7729.549999999814","{""post-2"":0}","[0]","survey-likert","584","2916357","0.0-584.0","yo2qhtaz","","","","","","","",""
"5939.825000000186","{""post-3"":3}","[0]","survey-likert","585","2922298","0.0-585.0","yo2qhtaz","","","","","","","",""
"3493.4849999998696","{""post-3"":0}","[0]","survey-likert","586","2925793","0.0-586.0","yo2qhtaz","","","","","","","",""
"13434.55999999959","{""post-4"":0}","[0]","survey-likert","587","2939230","0.0-587.0","yo2qhtaz","","","","","","","",""
"2547.195000000298","{""post-4"":0}","[0]","survey-likert","588","2941779","0.0-588.0","yo2qhtaz","","","","","","","",""
"5745.770000000019","{""post-5"":0}","[0]","survey-likert","589","2947526","0.0-589.0","yo2qhtaz","","","","","","","",""
"6102.895000000019","{""post-5"":2}","[0]","survey-likert","590","2953631","0.0-590.0","yo2qhtaz","","","","","","","",""
"119685.86000000034","{""Q0"":""I felt that I judged whether an agent seemed more human or more fake based on whether it followed the pattern of where I directed my attention, but also based on how much attention the agent would pay to faces, signs/writing, and whether their attention would come back to the same spot (like a \""double-take\"") to try and figure out what something was.""}","","survey-text","591","3073323","0.0-591.0","yo2qhtaz","","","","","","","",""
"169739.03499999968","{""Q0"":""I found the experiment easiest when there were a lot of faces involved because I knew that an average human being would spend most of their time assessing faces than they would the surrounding environment. If the attention didn't immediately go to faces, I would automatically kind of assume that it was fake. Additionally, I found that I would sometimes glance multiple times at something that was oddly shaped or confusing or stand-out, and if the attention did a similar thing, it also seemed more human to me. Also, if the person seemed to be paying attention to signage, writing, or bold colors, that pointed to it being human.""}","","survey-text","592","3243066","0.0-592.0","yo2qhtaz","","","","","","","",""
"60416.30000000028","{""Q0"":""I found landscapes most difficult because often they did not have any extremely stand out features and your eye can naturally kind of drift anywhere. ""}","","survey-text","593","3303487","0.0-593.0","yo2qhtaz","","","","","","","",""
"12376.92500000028","","","instructions","594","3315865","0.0-594.0","yo2qhtaz","[{""page_index"":0,""viewing_time"":12376.334999999963}]","","","","","","",""
"27569.739999999758","{""Experimenter_end"":[""Printed ID# yo2qhtaz on consent form"",""Given subject SONA credit or payment"",""Given the subject debrief form""]}","[0]","survey-multi-select","595","3343437","0.0-595.0","yo2qhtaz","","","","","","","",""
