"rt","responses","question_order","trial_type","trial_index","time_elapsed","internal_node_id","ID","view_history","stimulus","key_press","value","agent","condition","image","correct_answer"
"53983.115","{""Experimenter"":[""Confirmed subject's identity (ID card)"",""Confirmed normal or corrected-to-normal vision"",""Obtained consent (signature and date)"",""Checked the test room lighting"",""Checked computer screen lighting"",""Checked distance from screen to chin rest (50cm)"",""Cleaned and adjusted chin rest"",""Counterbalanced the order of the tasks"",""Opened the experiment in Firefox"",""Made the experiment full screen"",""Encouraged subject to silence phone, put away distractors, etc.""]}","[0]","survey-multi-select","0","53991","0.0-0.0","yufk5om2","","","","","","","",""
"64674.244999999995","","","instructions","1","118668","0.0-1.0","yufk5om2","[{""page_index"":0,""viewing_time"":64674.09}]","","","","","","",""
"19407.690000000002","","","instructions","2","138077","0.0-2.0","yufk5om2","[{""page_index"":0,""viewing_time"":1496.2749999999942},{""page_index"":1,""viewing_time"":7358.7300000000105},{""page_index"":2,""viewing_time"":10552.559999999998}]","","","","","","",""
"3101.4949999999953","","","instructions","3","141179","0.0-3.0","yufk5om2","[{""page_index"":0,""viewing_time"":3101.334999999992}]","","","","","","",""
"null","","","video-keyboard-response","4","144259","0.0-4.0","yufk5om2","","","null","","","","",""
"30711.235000000015","","","instructions","5","174971","0.0-5.0","yufk5om2","[{""page_index"":0,""viewing_time"":6541.6050000000105},{""page_index"":1,""viewing_time"":5124.184999999998},{""page_index"":2,""viewing_time"":1546.2700000000186},{""page_index"":3,""viewing_time"":5136.375},{""page_index"":4,""viewing_time"":12362.669999999984}]","","","","","","",""
"4583.154999999999","","","instructions","6","179555","0.0-6.0","yufk5om2","[{""page_index"":0,""viewing_time"":4583.024999999994}]","","","","","","",""
"","","","call-function","7","179557","0.0-7.0","yufk5om2","","","","","","","",""
"null","","","html-keyboard-response","8","181059","0.0-8.0","yufk5om2","","<span style=""color:Black; font-size:50px;"">Agent A","null","","","","",""
"null","","","video-keyboard-response","9","184140","0.0-9.0","yufk5om2","","","null","","Agent A","veridical","STIM_SET_1_REAL/713749.bmp_pp88_L2_V1.0_veridical_freeview_isoFalse_fps144.mp4",""
"null","","","html-keyboard-response","10","185643","0.0-10.0","yufk5om2","","<span style=""color:Black; font-size:50px;"">Agent B","null","","","","",""
"null","","","video-keyboard-response","11","188719","0.0-11.0","yufk5om2","","","null","","Agent B","scrambled","STIM_SET_3/713858.bmp_pp57_L1_V2_veridical_freeview_isoFalsemismatch_713749.bmp_L2_fps90.mp4",""
"","","","call-function","12","188720","0.0-12.0","yufk5om2","","","","","","","",""
"7191.49000000002","{""judgement"":1}","[0]","survey-likert","13","195912","0.0-13.0","yufk5om2","","","","","","","","0"
"3890.430000000022","{""confidence"":2}","[0]","survey-likert","14","199805","0.0-14.0","yufk5om2","","","","","","","",""
"","","","call-function","15","199806","0.0-15.0","yufk5om2","","","","","","","",""
"null","","","html-keyboard-response","16","201309","0.0-16.0","yufk5om2","","<span style=""color:Black; font-size:50px;"">Agent A","null","","","","",""
"null","","","video-keyboard-response","17","204381","0.0-17.0","yufk5om2","","","null","","Agent A","veridical","STIM_SET_1_REAL/285933.bmp_pp81_L1_V1.0_veridical_freeview_isoFalse_fps144.mp4",""
"null","","","html-keyboard-response","18","205885","0.0-18.0","yufk5om2","","<span style=""color:Black; font-size:50px;"">Agent B","null","","","","",""
"null","","","video-keyboard-response","19","208954","0.0-19.0","yufk5om2","","","null","","Agent B","scrambled","STIM_SET_3/1159973.bmp_pp98_L1_V2_veridical_freeview_isoFalsemismatch_285933.bmp_L1_fps90.mp4",""
"","","","call-function","20","208955","0.0-20.0","yufk5om2","","","","","","","",""
"2586.3550000000105","{""judgement"":0}","[0]","survey-likert","21","211544","0.0-21.0","yufk5om2","","","","","","","","0"
"2656.875","{""confidence"":2}","[0]","survey-likert","22","214202","0.0-22.0","yufk5om2","","","","","","","",""
"","","","call-function","23","214203","0.0-23.0","yufk5om2","","","","","","","",""
"null","","","html-keyboard-response","24","215704","0.0-24.0","yufk5om2","","<span style=""color:Black; font-size:50px;"">Agent A","null","","","","",""
"null","","","video-keyboard-response","25","218810","0.0-25.0","yufk5om2","","","null","","Agent A","scrambled","STIM_SET_3/1592350.bmp_pp55_L3_V2_veridical_freeview_isoFalsemismatch_498111.bmp_L2_fps90.mp4",""
"null","","","html-keyboard-response","26","220313","0.0-26.0","yufk5om2","","<span style=""color:Black; font-size:50px;"">Agent B","null","","","","",""
"null","","","video-keyboard-response","27","223419","0.0-27.0","yufk5om2","","","null","","Agent B","veridical","STIM_SET_1_REAL/498111.bmp_pp88_L2_V1.0_veridical_freeview_isoFalse_fps144.mp4",""
"","","","call-function","28","223420","0.0-28.0","yufk5om2","","","","","","","",""
"2514.764999999985","{""judgement"":0}","[0]","survey-likert","29","225935","0.0-29.0","yufk5om2","","","","","","","","1"
"3477.1200000000244","{""confidence"":2}","[0]","survey-likert","30","229414","0.0-30.0","yufk5om2","","","","","","","",""
"","","","call-function","31","229415","0.0-31.0","yufk5om2","","","","","","","",""
"null","","","html-keyboard-response","32","230919","0.0-32.0","yufk5om2","","<span style=""color:Black; font-size:50px;"">Agent A","null","","","","",""
"null","","","video-keyboard-response","33","234007","0.0-33.0","yufk5om2","","","null","","Agent A","scrambled","STIM_SET_3/498398.bmp_pp81_L1_V2_veridical_freeview_isoFalsemismatch_713620.bmp_L3_fps90.mp4",""
"null","","","html-keyboard-response","34","235515","0.0-34.0","yufk5om2","","<span style=""color:Black; font-size:50px;"">Agent B","null","","","","",""
"null","","","video-keyboard-response","35","238615","0.0-35.0","yufk5om2","","","null","","Agent B","veridical","STIM_SET_1_REAL/713620.bmp_pp65_L3_V1.0_veridical_freeview_isoFalse_fps144.mp4",""
"","","","call-function","36","238616","0.0-36.0","yufk5om2","","","","","","","",""
"6715.369999999995","{""judgement"":1}","[0]","survey-likert","37","245332","0.0-37.0","yufk5om2","","","","","","","","1"
"1484.304999999993","{""confidence"":1}","[0]","survey-likert","38","246818","0.0-38.0","yufk5om2","","","","","","","",""
"","","","call-function","39","246819","0.0-39.0","yufk5om2","","","","","","","",""
"null","","","html-keyboard-response","40","248323","0.0-40.0","yufk5om2","","<span style=""color:Black; font-size:50px;"">Agent A","null","","","","",""
"null","","","video-keyboard-response","41","251385","0.0-41.0","yufk5om2","","","null","","Agent A","scrambled","STIM_SET_3/285932.bmp_pp64_L1_V2_veridical_freeview_isoFalsemismatch_1159855.bmp_L2_fps90.mp4",""
"null","","","html-keyboard-response","42","252890","0.0-42.0","yufk5om2","","<span style=""color:Black; font-size:50px;"">Agent B","null","","","","",""
"null","","","video-keyboard-response","43","255968","0.0-43.0","yufk5om2","","","null","","Agent B","veridical","STIM_SET_1_REAL/1159855.bmp_pp99_L2_V1.0_veridical_freeview_isoFalse_fps144.mp4",""
"","","","call-function","44","255969","0.0-44.0","yufk5om2","","","","","","","",""
"2936.5599999999977","{""judgement"":0}","[0]","survey-likert","45","258906","0.0-45.0","yufk5om2","","","","","","","","1"
"1302.5199999999895","{""confidence"":1}","[0]","survey-likert","46","260210","0.0-46.0","yufk5om2","","","","","","","",""
"","","","call-function","47","260211","0.0-47.0","yufk5om2","","","","","","","",""
"null","","","html-keyboard-response","48","261713","0.0-48.0","yufk5om2","","<span style=""color:Black; font-size:50px;"">Agent A","null","","","","",""
"null","","","video-keyboard-response","49","264802","0.0-49.0","yufk5om2","","","null","","Agent A","scrambled","STIM_SET_3/1592951.bmp_pp80_L3_V2_veridical_freeview_isoFalsemismatch_712977.bmp_L1_fps90.mp4",""
"null","","","html-keyboard-response","50","266314","0.0-50.0","yufk5om2","","<span style=""color:Black; font-size:50px;"">Agent B","null","","","","",""
"null","","","video-keyboard-response","51","269390","0.0-51.0","yufk5om2","","","null","","Agent B","veridical","STIM_SET_1_REAL/712977.bmp_pp51_L1_V1.0_veridical_freeview_isoFalse_fps144.mp4",""
"","","","call-function","52","269392","0.0-52.0","yufk5om2","","","","","","","",""
"1897.0100000000093","{""judgement"":0}","[0]","survey-likert","53","271290","0.0-53.0","yufk5om2","","","","","","","","1"
"1971.820000000007","{""confidence"":1}","[0]","survey-likert","54","273264","0.0-54.0","yufk5om2","","","","","","","",""
"","","","call-function","55","273266","0.0-55.0","yufk5om2","","","","","","","",""
"null","","","html-keyboard-response","56","274769","0.0-56.0","yufk5om2","","<span style=""color:Black; font-size:50px;"">Agent A","null","","","","",""
"null","","","video-keyboard-response","57","277846","0.0-57.0","yufk5om2","","","null","","Agent A","scrambled","STIM_SET_3/1592568.bmp_pp71_L1_V2_veridical_freeview_isoFalsemismatch_285905.bmp_L1_fps90.mp4",""
"null","","","html-keyboard-response","58","279349","0.0-58.0","yufk5om2","","<span style=""color:Black; font-size:50px;"">Agent B","null","","","","",""
"null","","","video-keyboard-response","59","282423","0.0-59.0","yufk5om2","","","null","","Agent B","veridical","STIM_SET_1_REAL/285905.bmp_pp57_L1_V1.0_veridical_freeview_isoFalse_fps144.mp4",""
"","","","call-function","60","282424","0.0-60.0","yufk5om2","","","","","","","",""
"2604.929999999993","{""judgement"":1}","[0]","survey-likert","61","285030","0.0-61.0","yufk5om2","","","","","","","","1"
"1486.079999999958","{""confidence"":1}","[0]","survey-likert","62","286518","0.0-62.0","yufk5om2","","","","","","","",""
"","","","call-function","63","286519","0.0-63.0","yufk5om2","","","","","","","",""
"null","","","html-keyboard-response","64","288020","0.0-64.0","yufk5om2","","<span style=""color:Black; font-size:50px;"">Agent A","null","","","","",""
"null","","","video-keyboard-response","65","291095","0.0-65.0","yufk5om2","","","null","","Agent A","veridical","STIM_SET_1_REAL/498253.bmp_pp67_L2_V1.0_veridical_freeview_isoFalse_fps144.mp4",""
"null","","","html-keyboard-response","66","292599","0.0-66.0","yufk5om2","","<span style=""color:Black; font-size:50px;"">Agent B","null","","","","",""
"null","","","video-keyboard-response","67","295706","0.0-67.0","yufk5om2","","","null","","Agent B","scrambled","STIM_SET_3/285959.bmp_pp93_L1_V2_veridical_freeview_isoFalsemismatch_498253.bmp_L2_fps90.mp4",""
"","","","call-function","68","295708","0.0-68.0","yufk5om2","","","","","","","",""
"2883.3300000000163","{""judgement"":0}","[0]","survey-likert","69","298592","0.0-69.0","yufk5om2","","","","","","","","0"
"1350.75","{""confidence"":2}","[0]","survey-likert","70","299945","0.0-70.0","yufk5om2","","","","","","","",""
"","","","call-function","71","299946","0.0-71.0","yufk5om2","","","","","","","",""
"null","","","html-keyboard-response","72","301447","0.0-72.0","yufk5om2","","<span style=""color:Black; font-size:50px;"">Agent A","null","","","","",""
"null","","","video-keyboard-response","73","304553","0.0-73.0","yufk5om2","","","null","","Agent A","scrambled","STIM_SET_3/713770.bmp_pp89_L1_V2_veridical_freeview_isoFalsemismatch_61537.bmp_L3_fps90.mp4",""
"null","","","html-keyboard-response","74","306056","0.0-74.0","yufk5om2","","<span style=""color:Black; font-size:50px;"">Agent B","null","","","","",""
"null","","","video-keyboard-response","75","309158","0.0-75.0","yufk5om2","","","null","","Agent B","veridical","STIM_SET_1_REAL/61537.bmp_pp73_L3_V1.0_veridical_freeview_isoFalse_fps144.mp4",""
"","","","call-function","76","309159","0.0-76.0","yufk5om2","","","","","","","",""
"3365.2999999999884","{""judgement"":1}","[0]","survey-likert","77","312525","0.0-77.0","yufk5om2","","","","","","","","1"
"1596.100000000035","{""confidence"":1}","[0]","survey-likert","78","314123","0.0-78.0","yufk5om2","","","","","","","",""
"","","","call-function","79","314123","0.0-79.0","yufk5om2","","","","","","","",""
"null","","","html-keyboard-response","80","315628","0.0-80.0","yufk5om2","","<span style=""color:Black; font-size:50px;"">Agent A","null","","","","",""
"null","","","video-keyboard-response","81","318718","0.0-81.0","yufk5om2","","","null","","Agent A","veridical","STIM_SET_1_REAL/1592817.bmp_pp55_L3_V1.0_veridical_freeview_isoFalse_fps144.mp4",""
"null","","","html-keyboard-response","82","320223","0.0-82.0","yufk5om2","","<span style=""color:Black; font-size:50px;"">Agent B","null","","","","",""
"null","","","video-keyboard-response","83","323319","0.0-83.0","yufk5om2","","","null","","Agent B","scrambled","STIM_SET_3/1159329.bmp_pp61_L2_V2_veridical_freeview_isoFalsemismatch_1592817.bmp_L3_fps90.mp4",""
"","","","call-function","84","323320","0.0-84.0","yufk5om2","","","","","","","",""
"7117.09500000003","{""judgement"":0}","[0]","survey-likert","85","330438","0.0-85.0","yufk5om2","","","","","","","","0"
"1293.280000000028","{""confidence"":0}","[0]","survey-likert","86","331733","0.0-86.0","yufk5om2","","","","","","","",""
"132494.16500000004","","","instructions","87","464228","0.0-87.0","yufk5om2","[{""page_index"":0,""viewing_time"":2996.75},{""page_index"":1,""viewing_time"":127830.15000000002},{""page_index"":2,""viewing_time"":1667.0250000000233}]","","","","","","",""
"1853.7000000000116","","","instructions","88","466083","0.0-88.0","yufk5om2","[{""page_index"":0,""viewing_time"":873.015000000014},{""page_index"":1,""viewing_time"":80.8399999999674},{""page_index"":2,""viewing_time"":899.734999999986}]","","","","","","",""
"","","","call-function","89","466084","0.0-89.0","yufk5om2","","","","","","","",""
"null","","","html-keyboard-response","90","467588","0.0-90.0","yufk5om2","","<span style=""color:Black; font-size:50px;"">Agent A","null","","","","",""
"null","","","video-keyboard-response","91","470649","0.0-91.0","yufk5om2","","","null","","Agent A","scrambled","STIM_SET_3/713689.bmp_pp153_L3_V2_veridical_freeview_isoFalsemismatch_498175.bmp_L1_fps90.mp4",""
"null","","","html-keyboard-response","92","472154","0.0-92.0","yufk5om2","","<span style=""color:Black; font-size:50px;"">Agent B","null","","","","",""
"null","","","video-keyboard-response","93","475232","0.0-93.0","yufk5om2","","","null","","Agent B","veridical","STIM_SET_1_REAL/498175.bmp_pp154_L1_V1.0_veridical_freeview_isoFalse_fps144.mp4",""
"","","","call-function","94","475233","0.0-94.0","yufk5om2","","","","","","","",""
"4907.820000000007","{""judgement"":0}","[0]","survey-likert","95","480143","0.0-95.0","yufk5om2","","","","","","","","1"
"1620.6549999999697","{""confidence"":1}","[0]","survey-likert","96","481765","0.0-96.0","yufk5om2","","","","","","","",""
"","","","call-function","97","481766","0.0-97.0","yufk5om2","","","","","","","",""
"null","","","html-keyboard-response","98","483270","0.0-98.0","yufk5om2","","<span style=""color:Black; font-size:50px;"">Agent A","null","","","","",""
"null","","","video-keyboard-response","99","486341","0.0-99.0","yufk5om2","","","null","","Agent A","veridical","STIM_SET_1_REAL/1159440.bmp_pp98_L1_V1.0_veridical_freeview_isoFalse_fps144.mp4",""
"null","","","html-keyboard-response","100","487845","0.0-100.0","yufk5om2","","<span style=""color:Black; font-size:50px;"">Agent B","null","","","","",""
"null","","","video-keyboard-response","101","490911","0.0-101.0","yufk5om2","","","null","","Agent B","scrambled","STIM_SET_3/713829.bmp_pp60_L3_V2_veridical_freeview_isoFalsemismatch_1159440.bmp_L1_fps90.mp4",""
"","","","call-function","102","490912","0.0-102.0","yufk5om2","","","","","","","",""
"2152.9949999999953","{""judgement"":1}","[0]","survey-likert","103","493066","0.0-103.0","yufk5om2","","","","","","","","0"
"3137.2300000000396","{""confidence"":2}","[0]","survey-likert","104","496205","0.0-104.0","yufk5om2","","","","","","","",""
"","","","call-function","105","496206","0.0-105.0","yufk5om2","","","","","","","",""
"null","","","html-keyboard-response","106","497710","0.0-106.0","yufk5om2","","<span style=""color:Black; font-size:50px;"">Agent A","null","","","","",""
"null","","","video-keyboard-response","107","500825","0.0-107.0","yufk5om2","","","null","","Agent A","scrambled","STIM_SET_3/498025.bmp_pp81_L1_V2_veridical_freeview_isoFalsemismatch_713681.bmp_L2_fps90.mp4",""
"null","","","html-keyboard-response","108","502327","0.0-108.0","yufk5om2","","<span style=""color:Black; font-size:50px;"">Agent B","null","","","","",""
"null","","","video-keyboard-response","109","505420","0.0-109.0","yufk5om2","","","null","","Agent B","veridical","STIM_SET_1_REAL/713681.bmp_pp86_L2_V1.0_veridical_freeview_isoFalse_fps144.mp4",""
"","","","call-function","110","505421","0.0-110.0","yufk5om2","","","","","","","",""
"2239.7399999999907","{""judgement"":0}","[0]","survey-likert","111","507662","0.0-111.0","yufk5om2","","","","","","","","1"
"2019.9499999999534","{""confidence"":1}","[0]","survey-likert","112","509683","0.0-112.0","yufk5om2","","","","","","","",""
"","","","call-function","113","509684","0.0-113.0","yufk5om2","","","","","","","",""
"null","","","html-keyboard-response","114","511185","0.0-114.0","yufk5om2","","<span style=""color:Black; font-size:50px;"">Agent A","null","","","","",""
"null","","","video-keyboard-response","115","514283","0.0-115.0","yufk5om2","","","null","","Agent A","scrambled","STIM_SET_3/498396.bmp_pp99_L2_V2_veridical_freeview_isoFalsemismatch_713371.bmp_L1_fps90.mp4",""
"null","","","html-keyboard-response","116","515786","0.0-116.0","yufk5om2","","<span style=""color:Black; font-size:50px;"">Agent B","null","","","","",""
"null","","","video-keyboard-response","117","518892","0.0-117.0","yufk5om2","","","null","","Agent B","veridical","STIM_SET_1_REAL/713371.bmp_pp68_L1_V1.0_veridical_freeview_isoFalse_fps144.mp4",""
"","","","call-function","118","518893","0.0-118.0","yufk5om2","","","","","","","",""
"2102.445000000007","{""judgement"":0}","[0]","survey-likert","119","520998","0.0-119.0","yufk5om2","","","","","","","","1"
"1591.9500000000116","{""confidence"":2}","[0]","survey-likert","120","522591","0.0-120.0","yufk5om2","","","","","","","",""
"","","","call-function","121","522593","0.0-121.0","yufk5om2","","","","","","","",""
"null","","","html-keyboard-response","122","524096","0.0-122.0","yufk5om2","","<span style=""color:Black; font-size:50px;"">Agent A","null","","","","",""
"null","","","video-keyboard-response","123","527169","0.0-123.0","yufk5om2","","","null","","Agent A","scrambled","STIM_SET_3/498261.bmp_pp84_L3_V2_veridical_freeview_isoFalsemismatch_1592657.bmp_L1_fps90.mp4",""
"null","","","html-keyboard-response","124","528672","0.0-124.0","yufk5om2","","<span style=""color:Black; font-size:50px;"">Agent B","null","","","","",""
"null","","","video-keyboard-response","125","531750","0.0-125.0","yufk5om2","","","null","","Agent B","veridical","STIM_SET_1_REAL/1592657.bmp_pp98_L1_V1.0_veridical_freeview_isoFalse_fps144.mp4",""
"","","","call-function","126","531752","0.0-126.0","yufk5om2","","","","","","","",""
"2430.0999999999767","{""judgement"":0}","[0]","survey-likert","127","534183","0.0-127.0","yufk5om2","","","","","","","","1"
"1397.4250000000466","{""confidence"":1}","[0]","survey-likert","128","535583","0.0-128.0","yufk5om2","","","","","","","",""
"","","","call-function","129","535584","0.0-129.0","yufk5om2","","","","","","","",""
"null","","","html-keyboard-response","130","537085","0.0-130.0","yufk5om2","","<span style=""color:Black; font-size:50px;"">Agent A","null","","","","",""
"null","","","video-keyboard-response","131","540147","0.0-131.0","yufk5om2","","","null","","Agent A","veridical","STIM_SET_1_REAL/1159621.bmp_pp92_L3_V1.0_veridical_freeview_isoFalse_fps144.mp4",""
"null","","","html-keyboard-response","132","541653","0.0-132.0","yufk5om2","","<span style=""color:Black; font-size:50px;"">Agent B","null","","","","",""
"null","","","video-keyboard-response","133","544717","0.0-133.0","yufk5om2","","","null","","Agent B","scrambled","STIM_SET_3/1159860.bmp_pp152_L2_V2_veridical_freeview_isoFalsemismatch_1159621.bmp_L3_fps90.mp4",""
"","","","call-function","134","544719","0.0-134.0","yufk5om2","","","","","","","",""
"1453.6449999999022","{""judgement"":0}","[0]","survey-likert","135","546173","0.0-135.0","yufk5om2","","","","","","","","0"
"1175.6649999999208","{""confidence"":2}","[0]","survey-likert","136","547351","0.0-136.0","yufk5om2","","","","","","","",""
"","","","call-function","137","547352","0.0-137.0","yufk5om2","","","","","","","",""
"null","","","html-keyboard-response","138","548854","0.0-138.0","yufk5om2","","<span style=""color:Black; font-size:50px;"">Agent A","null","","","","",""
"null","","","video-keyboard-response","139","551959","0.0-139.0","yufk5om2","","","null","","Agent A","veridical","STIM_SET_1_REAL/1159768.bmp_pp89_L1_V1.0_veridical_freeview_isoFalse_fps144.mp4",""
"null","","","html-keyboard-response","140","553462","0.0-140.0","yufk5om2","","<span style=""color:Black; font-size:50px;"">Agent B","null","","","","",""
"null","","","video-keyboard-response","141","556567","0.0-141.0","yufk5om2","","","null","","Agent B","scrambled","STIM_SET_3/713788.bmp_pp52_L1_V2_veridical_freeview_isoFalsemismatch_1159768.bmp_L1_fps90.mp4",""
"","","","call-function","142","556568","0.0-142.0","yufk5om2","","","","","","","",""
"2455.734999999986","{""judgement"":1}","[0]","survey-likert","143","559025","0.0-143.0","yufk5om2","","","","","","","","0"
"1554.7449999999953","{""confidence"":2}","[0]","survey-likert","144","560582","0.0-144.0","yufk5om2","","","","","","","",""
"","","","call-function","145","560583","0.0-145.0","yufk5om2","","","","","","","",""
"null","","","html-keyboard-response","146","562085","0.0-146.0","yufk5om2","","<span style=""color:Black; font-size:50px;"">Agent A","null","","","","",""
"null","","","video-keyboard-response","147","565185","0.0-147.0","yufk5om2","","","null","","Agent A","veridical","STIM_SET_1_REAL/1592934.bmp_pp63_L1_V1.0_veridical_freeview_isoFalse_fps144.mp4",""
"null","","","html-keyboard-response","148","566689","0.0-148.0","yufk5om2","","<span style=""color:Black; font-size:50px;"">Agent B","null","","","","",""
"null","","","video-keyboard-response","149","569783","0.0-149.0","yufk5om2","","","null","","Agent B","scrambled","STIM_SET_3/1159392.bmp_pp96_L2_V2_veridical_freeview_isoFalsemismatch_1592934.bmp_L1_fps90.mp4",""
"","","","call-function","150","569784","0.0-150.0","yufk5om2","","","","","","","",""
"4098","{""judgement"":0}","[0]","survey-likert","151","573883","0.0-151.0","yufk5om2","","","","","","","","0"
"2328.234999999986","{""confidence"":0}","[0]","survey-likert","152","576213","0.0-152.0","yufk5om2","","","","","","","",""
"","","","call-function","153","576214","0.0-153.0","yufk5om2","","","","","","","",""
"null","","","html-keyboard-response","154","577719","0.0-154.0","yufk5om2","","<span style=""color:Black; font-size:50px;"">Agent A","null","","","","",""
"null","","","video-keyboard-response","155","580816","0.0-155.0","yufk5om2","","","null","","Agent A","scrambled","STIM_SET_3/1159819.bmp_pp151_L1_V2_veridical_freeview_isoFalsemismatch_1592499.bmp_L2_fps90.mp4",""
"null","","","html-keyboard-response","156","582323","0.0-156.0","yufk5om2","","<span style=""color:Black; font-size:50px;"">Agent B","null","","","","",""
"null","","","video-keyboard-response","157","585422","0.0-157.0","yufk5om2","","","null","","Agent B","veridical","STIM_SET_1_REAL/1592499.bmp_pp96_L2_V1.0_veridical_freeview_isoFalse_fps144.mp4",""
"","","","call-function","158","585423","0.0-158.0","yufk5om2","","","","","","","",""
"2749.725000000093","{""judgement"":1}","[0]","survey-likert","159","588174","0.0-159.0","yufk5om2","","","","","","","","1"
"1328.5549999999348","{""confidence"":0}","[0]","survey-likert","160","589504","0.0-160.0","yufk5om2","","","","","","","",""
"","","","call-function","161","589506","0.0-161.0","yufk5om2","","","","","","","",""
"null","","","html-keyboard-response","162","591009","0.0-162.0","yufk5om2","","<span style=""color:Black; font-size:50px;"">Agent A","null","","","","",""
"null","","","video-keyboard-response","163","594072","0.0-163.0","yufk5om2","","","null","","Agent A","scrambled","STIM_SET_3/1591920.bmp_pp97_L3_V2_veridical_freeview_isoFalsemismatch_1592804.bmp_L3_fps90.mp4",""
"null","","","html-keyboard-response","164","595577","0.0-164.0","yufk5om2","","<span style=""color:Black; font-size:50px;"">Agent B","null","","","","",""
"null","","","video-keyboard-response","165","598653","0.0-165.0","yufk5om2","","","null","","Agent B","veridical","STIM_SET_1_REAL/1592804.bmp_pp91_L3_V1.0_veridical_freeview_isoFalse_fps144.mp4",""
"","","","call-function","166","598654","0.0-166.0","yufk5om2","","","","","","","",""
"4238.20000000007","{""judgement"":1}","[0]","survey-likert","167","602893","0.0-167.0","yufk5om2","","","","","","","","1"
"1225.7150000000838","{""confidence"":1}","[0]","survey-likert","168","604120","0.0-168.0","yufk5om2","","","","","","","",""
"64545.03000000003","","","instructions","169","668667","0.0-169.0","yufk5om2","[{""page_index"":0,""viewing_time"":2134.20000000007},{""page_index"":1,""viewing_time"":61226.03999999992},{""page_index"":2,""viewing_time"":1184.5850000000792}]","","","","","","",""
"5075.984999999986","","","instructions","170","673744","0.0-170.0","yufk5om2","[{""page_index"":0,""viewing_time"":1054.079999999958},{""page_index"":1,""viewing_time"":3183.7700000000186},{""page_index"":2,""viewing_time"":838.0250000000233}]","","","","","","",""
"","","","call-function","171","673745","0.0-171.0","yufk5om2","","","","","","","",""
"null","","","html-keyboard-response","172","675246","0.0-172.0","yufk5om2","","<span style=""color:Black; font-size:50px;"">Agent A","null","","","","",""
"null","","","video-keyboard-response","173","678308","0.0-173.0","yufk5om2","","","null","","Agent A","scrambled","STIM_SET_3/107955.bmp_pp90_L2_V2_veridical_freeview_isoFalsemismatch_498149.bmp_L2_fps90.mp4",""
"null","","","html-keyboard-response","174","679811","0.0-174.0","yufk5om2","","<span style=""color:Black; font-size:50px;"">Agent B","null","","","","",""
"null","","","video-keyboard-response","175","682874","0.0-175.0","yufk5om2","","","null","","Agent B","veridical","STIM_SET_1_REAL/498149.bmp_pp99_L2_V1.0_veridical_freeview_isoFalse_fps144.mp4",""
"","","","call-function","176","682875","0.0-176.0","yufk5om2","","","","","","","",""
"4768.789999999921","{""judgement"":1}","[0]","survey-likert","177","687645","0.0-177.0","yufk5om2","","","","","","","","1"
"1663.140000000014","{""confidence"":0}","[0]","survey-likert","178","689310","0.0-178.0","yufk5om2","","","","","","","",""
"","","","call-function","179","689311","0.0-179.0","yufk5om2","","","","","","","",""
"null","","","html-keyboard-response","180","690812","0.0-180.0","yufk5om2","","<span style=""color:Black; font-size:50px;"">Agent A","null","","","","",""
"null","","","video-keyboard-response","181","693874","0.0-181.0","yufk5om2","","","null","","Agent A","veridical","STIM_SET_1_REAL/497950.bmp_pp151_L1_V1.0_veridical_freeview_isoFalse_fps144.mp4",""
"null","","","html-keyboard-response","182","695381","0.0-182.0","yufk5om2","","<span style=""color:Black; font-size:50px;"">Agent B","null","","","","",""
"null","","","video-keyboard-response","183","698451","0.0-183.0","yufk5om2","","","null","","Agent B","scrambled","STIM_SET_3/713274.bmp_pp73_L3_V2_veridical_freeview_isoFalsemismatch_497950.bmp_L1_fps90.mp4",""
"","","","call-function","184","698453","0.0-184.0","yufk5om2","","","","","","","",""
"1613.515000000014","{""judgement"":0}","[0]","survey-likert","185","700067","0.0-185.0","yufk5om2","","","","","","","","0"
"1715.2799999999115","{""confidence"":2}","[0]","survey-likert","186","701784","0.0-186.0","yufk5om2","","","","","","","",""
"","","","call-function","187","701785","0.0-187.0","yufk5om2","","","","","","","",""
"null","","","html-keyboard-response","188","703288","0.0-188.0","yufk5om2","","<span style=""color:Black; font-size:50px;"">Agent A","null","","","","",""
"null","","","video-keyboard-response","189","706393","0.0-189.0","yufk5om2","","","null","","Agent A","scrambled","STIM_SET_3/1159874.bmp_pp96_L2_V2_veridical_freeview_isoFalsemismatch_1159515.bmp_L3_fps90.mp4",""
"null","","","html-keyboard-response","190","707899","0.0-190.0","yufk5om2","","<span style=""color:Black; font-size:50px;"">Agent B","null","","","","",""
"null","","","video-keyboard-response","191","710998","0.0-191.0","yufk5om2","","","null","","Agent B","veridical","STIM_SET_1_REAL/1159515.bmp_pp84_L3_V1.0_veridical_freeview_isoFalse_fps144.mp4",""
"","","","call-function","192","711000","0.0-192.0","yufk5om2","","","","","","","",""
"2306.719999999972","{""judgement"":0}","[0]","survey-likert","193","713308","0.0-193.0","yufk5om2","","","","","","","","1"
"1493.6699999999255","{""confidence"":1}","[0]","survey-likert","194","714804","0.0-194.0","yufk5om2","","","","","","","",""
"","","","call-function","195","714805","0.0-195.0","yufk5om2","","","","","","","",""
"null","","","html-keyboard-response","196","716310","0.0-196.0","yufk5om2","","<span style=""color:Black; font-size:50px;"">Agent A","null","","","","",""
"null","","","video-keyboard-response","197","719382","0.0-197.0","yufk5om2","","","null","","Agent A","veridical","STIM_SET_1_REAL/1592397.bmp_pp85_L3_V1.0_veridical_freeview_isoFalse_fps144.mp4",""
"null","","","html-keyboard-response","198","720886","0.0-198.0","yufk5om2","","<span style=""color:Black; font-size:50px;"">Agent B","null","","","","",""
"null","","","video-keyboard-response","199","723962","0.0-199.0","yufk5om2","","","null","","Agent B","scrambled","STIM_SET_3/713790.bmp_pp100_L3_V2_veridical_freeview_isoFalsemismatch_1592397.bmp_L3_fps90.mp4",""
"","","","call-function","200","723963","0.0-200.0","yufk5om2","","","","","","","",""
"1945.5999999999767","{""judgement"":0}","[0]","survey-likert","201","725910","0.0-201.0","yufk5om2","","","","","","","","0"
"2192.219999999972","{""confidence"":2}","[0]","survey-likert","202","728104","0.0-202.0","yufk5om2","","","","","","","",""
"","","","call-function","203","728105","0.0-203.0","yufk5om2","","","","","","","",""
"null","","","html-keyboard-response","204","729611","0.0-204.0","yufk5om2","","<span style=""color:Black; font-size:50px;"">Agent A","null","","","","",""
"null","","","video-keyboard-response","205","732682","0.0-205.0","yufk5om2","","","null","","Agent A","scrambled","STIM_SET_3/1160189.bmp_pp64_L1_V2_veridical_freeview_isoFalsemismatch_1592581.bmp_L3_fps90.mp4",""
"null","","","html-keyboard-response","206","734185","0.0-206.0","yufk5om2","","<span style=""color:Black; font-size:50px;"">Agent B","null","","","","",""
"null","","","video-keyboard-response","207","737254","0.0-207.0","yufk5om2","","","null","","Agent B","veridical","STIM_SET_1_REAL/1592581.bmp_pp100_L3_V1.0_veridical_freeview_isoFalse_fps144.mp4",""
"","","","call-function","208","737255","0.0-208.0","yufk5om2","","","","","","","",""
"1923.8950000000186","{""judgement"":0}","[0]","survey-likert","209","739180","0.0-209.0","yufk5om2","","","","","","","","1"
"3087.554999999935","{""confidence"":1}","[0]","survey-likert","210","742269","0.0-210.0","yufk5om2","","","","","","","",""
"","","","call-function","211","742270","0.0-211.0","yufk5om2","","","","","","","",""
"null","","","html-keyboard-response","212","743774","0.0-212.0","yufk5om2","","<span style=""color:Black; font-size:50px;"">Agent A","null","","","","",""
"null","","","video-keyboard-response","213","746871","0.0-213.0","yufk5om2","","","null","","Agent A","scrambled","STIM_SET_3/713920.bmp_pp76_L1_V2_veridical_freeview_isoFalsemismatch_713684.bmp_L3_fps90.mp4",""
"null","","","html-keyboard-response","214","748377","0.0-214.0","yufk5om2","","<span style=""color:Black; font-size:50px;"">Agent B","null","","","","",""
"null","","","video-keyboard-response","215","751482","0.0-215.0","yufk5om2","","","null","","Agent B","veridical","STIM_SET_1_REAL/713684.bmp_pp85_L3_V1.0_veridical_freeview_isoFalse_fps144.mp4",""
"","","","call-function","216","751483","0.0-216.0","yufk5om2","","","","","","","",""
"1807.7600000000093","{""judgement"":0}","[0]","survey-likert","217","753293","0.0-217.0","yufk5om2","","","","","","","","1"
"2405.265000000014","{""confidence"":3}","[0]","survey-likert","218","755700","0.0-218.0","yufk5om2","","","","","","","",""
"","","","call-function","219","755701","0.0-219.0","yufk5om2","","","","","","","",""
"null","","","html-keyboard-response","220","757202","0.0-220.0","yufk5om2","","<span style=""color:Black; font-size:50px;"">Agent A","null","","","","",""
"null","","","video-keyboard-response","221","760294","0.0-221.0","yufk5om2","","","null","","Agent A","scrambled","STIM_SET_3/285715.bmp_pp67_L2_V2_veridical_freeview_isoFalsemismatch_1159882.bmp_L2_fps90.mp4",""
"null","","","html-keyboard-response","222","761801","0.0-222.0","yufk5om2","","<span style=""color:Black; font-size:50px;"">Agent B","null","","","","",""
"null","","","video-keyboard-response","223","764890","0.0-223.0","yufk5om2","","","null","","Agent B","veridical","STIM_SET_1_REAL/1159882.bmp_pp61_L2_V1.0_veridical_freeview_isoFalse_fps144.mp4",""
"","","","call-function","224","764891","0.0-224.0","yufk5om2","","","","","","","",""
"3203.9799999999814","{""judgement"":1}","[0]","survey-likert","225","768096","0.0-225.0","yufk5om2","","","","","","","","1"
"1547.5100000000093","{""confidence"":0}","[0]","survey-likert","226","769645","0.0-226.0","yufk5om2","","","","","","","",""
"","","","call-function","227","769646","0.0-227.0","yufk5om2","","","","","","","",""
"null","","","html-keyboard-response","228","771148","0.0-228.0","yufk5om2","","<span style=""color:Black; font-size:50px;"">Agent A","null","","","","",""
"null","","","video-keyboard-response","229","774234","0.0-229.0","yufk5om2","","","null","","Agent A","veridical","STIM_SET_1_REAL/713089.bmp_pp60_L3_V1.0_veridical_freeview_isoFalse_fps144.mp4",""
"null","","","html-keyboard-response","230","775738","0.0-230.0","yufk5om2","","<span style=""color:Black; font-size:50px;"">Agent B","null","","","","",""
"null","","","video-keyboard-response","231","778835","0.0-231.0","yufk5om2","","","null","","Agent B","scrambled","STIM_SET_3/1592201.bmp_pp97_L3_V2_veridical_freeview_isoFalsemismatch_713089.bmp_L3_fps90.mp4",""
"","","","call-function","232","778836","0.0-232.0","yufk5om2","","","","","","","",""
"3149.305000000051","{""judgement"":0}","[0]","survey-likert","233","781986","0.0-233.0","yufk5om2","","","","","","","","0"
"1070.0550000000512","{""confidence"":1}","[0]","survey-likert","234","783058","0.0-234.0","yufk5om2","","","","","","","",""
"","","","call-function","235","783059","0.0-235.0","yufk5om2","","","","","","","",""
"null","","","html-keyboard-response","236","784565","0.0-236.0","yufk5om2","","<span style=""color:Black; font-size:50px;"">Agent A","null","","","","",""
"null","","","video-keyboard-response","237","787629","0.0-237.0","yufk5om2","","","null","","Agent A","veridical","STIM_SET_1_REAL/1159446.bmp_pp60_L3_V1.0_veridical_freeview_isoFalse_fps144.mp4",""
"null","","","html-keyboard-response","238","789133","0.0-238.0","yufk5om2","","<span style=""color:Black; font-size:50px;"">Agent B","null","","","","",""
"null","","","video-keyboard-response","239","792200","0.0-239.0","yufk5om2","","","null","","Agent B","scrambled","STIM_SET_3/1592044.bmp_pp94_L2_V2_veridical_freeview_isoFalsemismatch_1159446.bmp_L3_fps90.mp4",""
"","","","call-function","240","792201","0.0-240.0","yufk5om2","","","","","","","",""
"2487.3800000000047","{""judgement"":0}","[0]","survey-likert","241","794690","0.0-241.0","yufk5om2","","","","","","","","0"
"1076.8399999999674","{""confidence"":0}","[0]","survey-likert","242","795768","0.0-242.0","yufk5om2","","","","","","","",""
"","","","call-function","243","795769","0.0-243.0","yufk5om2","","","","","","","",""
"null","","","html-keyboard-response","244","797271","0.0-244.0","yufk5om2","","<span style=""color:Black; font-size:50px;"">Agent A","null","","","","",""
"null","","","video-keyboard-response","245","800351","0.0-245.0","yufk5om2","","","null","","Agent A","veridical","STIM_SET_1_REAL/1160127.bmp_pp90_L2_V1.0_veridical_freeview_isoFalse_fps144.mp4",""
"null","","","html-keyboard-response","246","801855","0.0-246.0","yufk5om2","","<span style=""color:Black; font-size:50px;"">Agent B","null","","","","",""
"null","","","video-keyboard-response","247","804933","0.0-247.0","yufk5om2","","","null","","Agent B","scrambled","STIM_SET_3/498372.bmp_pp95_L2_V2_veridical_freeview_isoFalsemismatch_1160127.bmp_L2_fps90.mp4",""
"","","","call-function","248","804934","0.0-248.0","yufk5om2","","","","","","","",""
"6378.280000000028","{""judgement"":0}","[0]","survey-likert","249","811313","0.0-249.0","yufk5om2","","","","","","","","0"
"2010.3950000000186","{""confidence"":0}","[0]","survey-likert","250","813325","0.0-250.0","yufk5om2","","","","","","","",""
"27875.034999999916","","","instructions","251","841201","0.0-251.0","yufk5om2","[{""page_index"":0,""viewing_time"":2939.784999999916},{""page_index"":1,""viewing_time"":24103.89500000002},{""page_index"":2,""viewing_time"":831.1450000000186}]","","","","","","",""
"4762.67499999993","","","instructions","252","845966","0.0-252.0","yufk5om2","[{""page_index"":0,""viewing_time"":1923.5999999999767},{""page_index"":1,""viewing_time"":2247.109999999986},{""page_index"":2,""viewing_time"":591.859999999986}]","","","","","","",""
"","","","call-function","253","845968","0.0-253.0","yufk5om2","","","","","","","",""
"null","","","html-keyboard-response","254","847470","0.0-254.0","yufk5om2","","<span style=""color:Black; font-size:50px;"">Agent A","null","","","","",""
"null","","","video-keyboard-response","255","850538","0.0-255.0","yufk5om2","","","null","","Agent A","veridical","STIM_SET_1_REAL/1159829.bmp_pp91_L3_V1.0_veridical_freeview_isoFalse_fps144.mp4",""
"null","","","html-keyboard-response","256","852046","0.0-256.0","yufk5om2","","<span style=""color:Black; font-size:50px;"">Agent B","null","","","","",""
"null","","","video-keyboard-response","257","855119","0.0-257.0","yufk5om2","","","null","","Agent B","scrambled","STIM_SET_3/1159956.bmp_pp59_L3_V2_veridical_freeview_isoFalsemismatch_1159829.bmp_L3_fps90.mp4",""
"","","","call-function","258","855120","0.0-258.0","yufk5om2","","","","","","","",""
"2928.155000000028","{""judgement"":0}","[0]","survey-likert","259","858050","0.0-259.0","yufk5om2","","","","","","","","0"
"1176.454999999958","{""confidence"":2}","[0]","survey-likert","260","859229","0.0-260.0","yufk5om2","","","","","","","",""
"","","","call-function","261","859230","0.0-261.0","yufk5om2","","","","","","","",""
"null","","","html-keyboard-response","262","860732","0.0-262.0","yufk5om2","","<span style=""color:Black; font-size:50px;"">Agent A","null","","","","",""
"null","","","video-keyboard-response","263","863796","0.0-263.0","yufk5om2","","","null","","Agent A","veridical","STIM_SET_1_REAL/1592133.bmp_pp75_L1_V1.0_veridical_freeview_isoFalse_fps144.mp4",""
"null","","","html-keyboard-response","264","865303","0.0-264.0","yufk5om2","","<span style=""color:Black; font-size:50px;"">Agent B","null","","","","",""
"null","","","video-keyboard-response","265","868393","0.0-265.0","yufk5om2","","","null","","Agent B","scrambled","STIM_SET_3/1160247.bmp_pp54_L2_V2_veridical_freeview_isoFalsemismatch_1592133.bmp_L1_fps90.mp4",""
"","","","call-function","266","868394","0.0-266.0","yufk5om2","","","","","","","",""
"2339.265000000014","{""judgement"":0}","[0]","survey-likert","267","870735","0.0-267.0","yufk5om2","","","","","","","","0"
"2462.0050000000047","{""confidence"":2}","[0]","survey-likert","268","873199","0.0-268.0","yufk5om2","","","","","","","",""
"","","","call-function","269","873200","0.0-269.0","yufk5om2","","","","","","","",""
"null","","","html-keyboard-response","270","874703","0.0-270.0","yufk5om2","","<span style=""color:Black; font-size:50px;"">Agent A","null","","","","",""
"null","","","video-keyboard-response","271","877804","0.0-271.0","yufk5om2","","","null","","Agent A","scrambled","STIM_SET_3/1592747.bmp_pp53_L2_V2_veridical_freeview_isoFalsemismatch_713593.bmp_L1_fps90.mp4",""
"null","","","html-keyboard-response","272","879313","0.0-272.0","yufk5om2","","<span style=""color:Black; font-size:50px;"">Agent B","null","","","","",""
"null","","","video-keyboard-response","273","882414","0.0-273.0","yufk5om2","","","null","","Agent B","veridical","STIM_SET_1_REAL/713593.bmp_pp64_L1_V1.0_veridical_freeview_isoFalse_fps144.mp4",""
"","","","call-function","274","882415","0.0-274.0","yufk5om2","","","","","","","",""
"3666.965000000084","{""judgement"":1}","[0]","survey-likert","275","886083","0.0-275.0","yufk5om2","","","","","","","","1"
"1580.625","{""confidence"":0}","[0]","survey-likert","276","887666","0.0-276.0","yufk5om2","","","","","","","",""
"","","","call-function","277","887667","0.0-277.0","yufk5om2","","","","","","","",""
"null","","","html-keyboard-response","278","889169","0.0-278.0","yufk5om2","","<span style=""color:Black; font-size:50px;"">Agent A","null","","","","",""
"null","","","video-keyboard-response","279","892265","0.0-279.0","yufk5om2","","","null","","Agent A","veridical","STIM_SET_1_REAL/1159447.bmp_pp70_L2_V1.0_veridical_freeview_isoFalse_fps144.mp4",""
"null","","","html-keyboard-response","280","893771","0.0-280.0","yufk5om2","","<span style=""color:Black; font-size:50px;"">Agent B","null","","","","",""
"null","","","video-keyboard-response","281","896860","0.0-281.0","yufk5om2","","","null","","Agent B","scrambled","STIM_SET_3/1592150.bmp_pp77_L3_V2_veridical_freeview_isoFalsemismatch_1159447.bmp_L2_fps90.mp4",""
"","","","call-function","282","896861","0.0-282.0","yufk5om2","","","","","","","",""
"2056.9400000000605","{""judgement"":1}","[0]","survey-likert","283","898919","0.0-283.0","yufk5om2","","","","","","","","0"
"1171.4149999999208","{""confidence"":1}","[0]","survey-likert","284","900092","0.0-284.0","yufk5om2","","","","","","","",""
"","","","call-function","285","900093","0.0-285.0","yufk5om2","","","","","","","",""
"null","","","html-keyboard-response","286","901596","0.0-286.0","yufk5om2","","<span style=""color:Black; font-size:50px;"">Agent A","null","","","","",""
"null","","","video-keyboard-response","287","904689","0.0-287.0","yufk5om2","","","null","","Agent A","veridical","STIM_SET_1_REAL/1159572.bmp_pp71_L1_V1.0_veridical_freeview_isoFalse_fps144.mp4",""
"null","","","html-keyboard-response","288","906193","0.0-288.0","yufk5om2","","<span style=""color:Black; font-size:50px;"">Agent B","null","","","","",""
"null","","","video-keyboard-response","289","909295","0.0-289.0","yufk5om2","","","null","","Agent B","scrambled","STIM_SET_3/713381.bmp_pp82_L2_V2_veridical_freeview_isoFalsemismatch_1159572.bmp_L1_fps90.mp4",""
"","","","call-function","290","909296","0.0-290.0","yufk5om2","","","","","","","",""
"1843.390000000014","{""judgement"":1}","[0]","survey-likert","291","911140","0.0-291.0","yufk5om2","","","","","","","","0"
"1407.030000000028","{""confidence"":1}","[0]","survey-likert","292","912549","0.0-292.0","yufk5om2","","","","","","","",""
"","","","call-function","293","912550","0.0-293.0","yufk5om2","","","","","","","",""
"null","","","html-keyboard-response","294","914054","0.0-294.0","yufk5om2","","<span style=""color:Black; font-size:50px;"">Agent A","null","","","","",""
"null","","","video-keyboard-response","295","917147","0.0-295.0","yufk5om2","","","null","","Agent A","scrambled","STIM_SET_3/1159592.bmp_pp91_L3_V2_veridical_freeview_isoFalsemismatch_285994.bmp_L3_fps90.mp4",""
"null","","","html-keyboard-response","296","918653","0.0-296.0","yufk5om2","","<span style=""color:Black; font-size:50px;"">Agent B","null","","","","",""
"null","","","video-keyboard-response","297","921717","0.0-297.0","yufk5om2","","","null","","Agent B","veridical","STIM_SET_1_REAL/285994.bmp_pp92_L3_V1.0_veridical_freeview_isoFalse_fps144.mp4",""
"","","","call-function","298","921718","0.0-298.0","yufk5om2","","","","","","","",""
"2061.2249999999767","{""judgement"":1}","[0]","survey-likert","299","923780","0.0-299.0","yufk5om2","","","","","","","","1"
"1264.765000000014","{""confidence"":2}","[0]","survey-likert","300","925046","0.0-300.0","yufk5om2","","","","","","","",""
"","","","call-function","301","925047","0.0-301.0","yufk5om2","","","","","","","",""
"null","","","html-keyboard-response","302","926550","0.0-302.0","yufk5om2","","<span style=""color:Black; font-size:50px;"">Agent A","null","","","","",""
"null","","","video-keyboard-response","303","929626","0.0-303.0","yufk5om2","","","null","","Agent A","veridical","STIM_SET_1_REAL/1592807.bmp_pp68_L1_V1.0_veridical_freeview_isoFalse_fps144.mp4",""
"null","","","html-keyboard-response","304","931130","0.0-304.0","yufk5om2","","<span style=""color:Black; font-size:50px;"">Agent B","null","","","","",""
"null","","","video-keyboard-response","305","934192","0.0-305.0","yufk5om2","","","null","","Agent B","scrambled","STIM_SET_3/713652.bmp_pp89_L1_V2_veridical_freeview_isoFalsemismatch_1592807.bmp_L1_fps90.mp4",""
"","","","call-function","306","934193","0.0-306.0","yufk5om2","","","","","","","",""
"2025.2399999999907","{""judgement"":0}","[0]","survey-likert","307","936219","0.0-307.0","yufk5om2","","","","","","","","0"
"1354.4199999999255","{""confidence"":2}","[0]","survey-likert","308","937576","0.0-308.0","yufk5om2","","","","","","","",""
"","","","call-function","309","937577","0.0-309.0","yufk5om2","","","","","","","",""
"null","","","html-keyboard-response","310","939083","0.0-310.0","yufk5om2","","<span style=""color:Black; font-size:50px;"">Agent A","null","","","","",""
"null","","","video-keyboard-response","311","942179","0.0-311.0","yufk5om2","","","null","","Agent A","scrambled","STIM_SET_3/1160204.bmp_pp54_L2_V2_veridical_freeview_isoFalsemismatch_286001.bmp_L2_fps90.mp4",""
"null","","","html-keyboard-response","312","943683","0.0-312.0","yufk5om2","","<span style=""color:Black; font-size:50px;"">Agent B","null","","","","",""
"null","","","video-keyboard-response","313","946772","0.0-313.0","yufk5om2","","","null","","Agent B","veridical","STIM_SET_1_REAL/286001.bmp_pp54_L2_V1.0_veridical_freeview_isoFalse_fps144.mp4",""
"","","","call-function","314","946773","0.0-314.0","yufk5om2","","","","","","","",""
"1867.655000000028","{""judgement"":0}","[0]","survey-likert","315","948642","0.0-315.0","yufk5om2","","","","","","","","1"
"2016.2799999999115","{""confidence"":2}","[0]","survey-likert","316","950660","0.0-316.0","yufk5om2","","","","","","","",""
"","","","call-function","317","950661","0.0-317.0","yufk5om2","","","","","","","",""
"null","","","html-keyboard-response","318","952163","0.0-318.0","yufk5om2","","<span style=""color:Black; font-size:50px;"">Agent A","null","","","","",""
"null","","","video-keyboard-response","319","955284","0.0-319.0","yufk5om2","","","null","","Agent A","veridical","STIM_SET_1_REAL/713403.bmp_pp80_L3_V1.0_veridical_freeview_isoFalse_fps144.mp4",""
"null","","","html-keyboard-response","320","956789","0.0-320.0","yufk5om2","","<span style=""color:Black; font-size:50px;"">Agent B","null","","","","",""
"null","","","video-keyboard-response","321","959853","0.0-321.0","yufk5om2","","","null","","Agent B","scrambled","STIM_SET_3/286034.bmp_pp69_L3_V2_veridical_freeview_isoFalsemismatch_713403.bmp_L3_fps90.mp4",""
"","","","call-function","322","959855","0.0-322.0","yufk5om2","","","","","","","",""
"1813.3450000000885","{""judgement"":1}","[0]","survey-likert","323","961669","0.0-323.0","yufk5om2","","","","","","","","0"
"1447.9799999999814","{""confidence"":2}","[0]","survey-likert","324","963120","0.0-324.0","yufk5om2","","","","","","","",""
"","","","call-function","325","963122","0.0-325.0","yufk5om2","","","","","","","",""
"null","","","html-keyboard-response","326","964625","0.0-326.0","yufk5om2","","<span style=""color:Black; font-size:50px;"">Agent A","null","","","","",""
"null","","","video-keyboard-response","327","967687","0.0-327.0","yufk5om2","","","null","","Agent A","veridical","STIM_SET_1_REAL/1593035.bmp_pp94_L2_V1.0_veridical_freeview_isoFalse_fps144.mp4",""
"null","","","html-keyboard-response","328","969193","0.0-328.0","yufk5om2","","<span style=""color:Black; font-size:50px;"">Agent B","null","","","","",""
"null","","","video-keyboard-response","329","972256","0.0-329.0","yufk5om2","","","null","","Agent B","scrambled","STIM_SET_3/1159325.bmp_pp67_L2_V2_veridical_freeview_isoFalsemismatch_1593035.bmp_L2_fps90.mp4",""
"","","","call-function","330","972257","0.0-330.0","yufk5om2","","","","","","","",""
"3755.8499999999767","{""judgement"":1}","[0]","survey-likert","331","976014","0.0-331.0","yufk5om2","","","","","","","","0"
"1115.8549999999814","{""confidence"":0}","[0]","survey-likert","332","977132","0.0-332.0","yufk5om2","","","","","","","",""
"39525.695000000065","","","instructions","333","1016659","0.0-333.0","yufk5om2","[{""page_index"":0,""viewing_time"":37936.265000000014},{""page_index"":1,""viewing_time"":724.2750000000233},{""page_index"":2,""viewing_time"":864.9499999999534}]","","","","","","",""
"1377.8249999999534","","","instructions","334","1018038","0.0-334.0","yufk5om2","[{""page_index"":0,""viewing_time"":497.75},{""page_index"":1,""viewing_time"":420.0899999999674},{""page_index"":2,""viewing_time"":459.88000000000466}]","","","","","","",""
"","","","call-function","335","1018039","0.0-335.0","yufk5om2","","","","","","","",""
"null","","","html-keyboard-response","336","1019542","0.0-336.0","yufk5om2","","<span style=""color:Black; font-size:50px;"">Agent A","null","","","","",""
"null","","","video-keyboard-response","337","1022614","0.0-337.0","yufk5om2","","","null","","Agent A","veridical","STIM_SET_1_REAL/713796.bmp_pp84_L3_V1.0_veridical_freeview_isoFalse_fps144.mp4",""
"null","","","html-keyboard-response","338","1024119","0.0-338.0","yufk5om2","","<span style=""color:Black; font-size:50px;"">Agent B","null","","","","",""
"null","","","video-keyboard-response","339","1027198","0.0-339.0","yufk5om2","","","null","","Agent B","scrambled","STIM_SET_3/713633.bmp_pp58_L1_V2_veridical_freeview_isoFalsemismatch_713796.bmp_L3_fps90.mp4",""
"","","","call-function","340","1027199","0.0-340.0","yufk5om2","","","","","","","",""
"1698.6149999999907","{""judgement"":1}","[0]","survey-likert","341","1028899","0.0-341.0","yufk5om2","","","","","","","","0"
"1472.1350000000093","{""confidence"":3}","[0]","survey-likert","342","1030373","0.0-342.0","yufk5om2","","","","","","","",""
"","","","call-function","343","1030375","0.0-343.0","yufk5om2","","","","","","","",""
"null","","","html-keyboard-response","344","1031878","0.0-344.0","yufk5om2","","<span style=""color:Black; font-size:50px;"">Agent A","null","","","","",""
"null","","","video-keyboard-response","345","1034942","0.0-345.0","yufk5om2","","","null","","Agent A","scrambled","STIM_SET_3/1160049.bmp_pp53_L2_V2_veridical_freeview_isoFalsemismatch_1591954.bmp_L2_fps90.mp4",""
"null","","","html-keyboard-response","346","1036446","0.0-346.0","yufk5om2","","<span style=""color:Black; font-size:50px;"">Agent B","null","","","","",""
"null","","","video-keyboard-response","347","1039525","0.0-347.0","yufk5om2","","","null","","Agent B","veridical","STIM_SET_1_REAL/1591954.bmp_pp62_L2_V1.0_veridical_freeview_isoFalse_fps144.mp4",""
"","","","call-function","348","1039526","0.0-348.0","yufk5om2","","","","","","","",""
"1644.7449999999953","{""judgement"":0}","[0]","survey-likert","349","1041172","0.0-349.0","yufk5om2","","","","","","","","1"
"2608.694999999949","{""confidence"":3}","[0]","survey-likert","350","1043782","0.0-350.0","yufk5om2","","","","","","","",""
"","","","call-function","351","1043783","0.0-351.0","yufk5om2","","","","","","","",""
"null","","","html-keyboard-response","352","1045287","0.0-352.0","yufk5om2","","<span style=""color:Black; font-size:50px;"">Agent A","null","","","","",""
"null","","","video-keyboard-response","353","1048379","0.0-353.0","yufk5om2","","","null","","Agent A","scrambled","STIM_SET_3/1592017.bmp_pp154_L1_V2_veridical_freeview_isoFalsemismatch_1159777.bmp_L3_fps90.mp4",""
"null","","","html-keyboard-response","354","1049884","0.0-354.0","yufk5om2","","<span style=""color:Black; font-size:50px;"">Agent B","null","","","","",""
"null","","","video-keyboard-response","355","1052987","0.0-355.0","yufk5om2","","","null","","Agent B","veridical","STIM_SET_1_REAL/1159777.bmp_pp77_L3_V1.0_veridical_freeview_isoFalse_fps144.mp4",""
"","","","call-function","356","1052989","0.0-356.0","yufk5om2","","","","","","","",""
"2044.3149999999441","{""judgement"":0}","[0]","survey-likert","357","1055034","0.0-357.0","yufk5om2","","","","","","","","1"
"1849.75","{""confidence"":1}","[0]","survey-likert","358","1056885","0.0-358.0","yufk5om2","","","","","","","",""
"","","","call-function","359","1056887","0.0-359.0","yufk5om2","","","","","","","",""
"null","","","html-keyboard-response","360","1058390","0.0-360.0","yufk5om2","","<span style=""color:Black; font-size:50px;"">Agent A","null","","","","",""
"null","","","video-keyboard-response","361","1061478","0.0-361.0","yufk5om2","","","null","","Agent A","veridical","STIM_SET_1_REAL/498170.bmp_pp153_L3_V1.0_veridical_freeview_isoFalse_fps144.mp4",""
"null","","","html-keyboard-response","362","1062987","0.0-362.0","yufk5om2","","<span style=""color:Black; font-size:50px;"">Agent B","null","","","","",""
"null","","","video-keyboard-response","363","1066092","0.0-363.0","yufk5om2","","","null","","Agent B","scrambled","STIM_SET_3/713742.bmp_pp91_L3_V2_veridical_freeview_isoFalsemismatch_498170.bmp_L3_fps90.mp4",""
"","","","call-function","364","1066093","0.0-364.0","yufk5om2","","","","","","","",""
"1981.0449999999255","{""judgement"":0}","[0]","survey-likert","365","1068075","0.0-365.0","yufk5om2","","","","","","","","0"
"1538.5649999999441","{""confidence"":1}","[0]","survey-likert","366","1069616","0.0-366.0","yufk5om2","","","","","","","",""
"","","","call-function","367","1069617","0.0-367.0","yufk5om2","","","","","","","",""
"null","","","html-keyboard-response","368","1071119","0.0-368.0","yufk5om2","","<span style=""color:Black; font-size:50px;"">Agent A","null","","","","",""
"null","","","video-keyboard-response","369","1074218","0.0-369.0","yufk5om2","","","null","","Agent A","veridical","STIM_SET_1_REAL/713513.bmp_pp62_L2_V1.0_veridical_freeview_isoFalse_fps144.mp4",""
"null","","","html-keyboard-response","370","1075723","0.0-370.0","yufk5om2","","<span style=""color:Black; font-size:50px;"">Agent B","null","","","","",""
"null","","","video-keyboard-response","371","1078807","0.0-371.0","yufk5om2","","","null","","Agent B","scrambled","STIM_SET_3/1592047.bmp_pp51_L1_V2_veridical_freeview_isoFalsemismatch_713513.bmp_L2_fps90.mp4",""
"","","","call-function","372","1078808","0.0-372.0","yufk5om2","","","","","","","",""
"2058.6049999999814","{""judgement"":1}","[0]","survey-likert","373","1080868","0.0-373.0","yufk5om2","","","","","","","","0"
"1329.3499999998603","{""confidence"":2}","[0]","survey-likert","374","1082199","0.0-374.0","yufk5om2","","","","","","","",""
"","","","call-function","375","1082200","0.0-375.0","yufk5om2","","","","","","","",""
"null","","","html-keyboard-response","376","1083702","0.0-376.0","yufk5om2","","<span style=""color:Black; font-size:50px;"">Agent A","null","","","","",""
"null","","","video-keyboard-response","377","1086780","0.0-377.0","yufk5om2","","","null","","Agent A","scrambled","STIM_SET_3/1592921.bmp_pp69_L3_V2_veridical_freeview_isoFalsemismatch_713211.bmp_L3_fps90.mp4",""
"null","","","html-keyboard-response","378","1088285","0.0-378.0","yufk5om2","","<span style=""color:Black; font-size:50px;"">Agent B","null","","","","",""
"null","","","video-keyboard-response","379","1091363","0.0-379.0","yufk5om2","","","null","","Agent B","veridical","STIM_SET_1_REAL/713211.bmp_pp100_L3_V1.0_veridical_freeview_isoFalse_fps144.mp4",""
"","","","call-function","380","1091364","0.0-380.0","yufk5om2","","","","","","","",""
"1944.3649999999907","{""judgement"":0}","[0]","survey-likert","381","1093309","0.0-381.0","yufk5om2","","","","","","","","1"
"949.3900000001304","{""confidence"":1}","[0]","survey-likert","382","1094260","0.0-382.0","yufk5om2","","","","","","","",""
"","","","call-function","383","1094261","0.0-383.0","yufk5om2","","","","","","","",""
"null","","","html-keyboard-response","384","1095766","0.0-384.0","yufk5om2","","<span style=""color:Black; font-size:50px;"">Agent A","null","","","","",""
"null","","","video-keyboard-response","385","1098827","0.0-385.0","yufk5om2","","","null","","Agent A","scrambled","STIM_SET_3/1592857.bmp_pp52_L1_V2_veridical_freeview_isoFalsemismatch_1160168.bmp_L2_fps90.mp4",""
"null","","","html-keyboard-response","386","1100333","0.0-386.0","yufk5om2","","<span style=""color:Black; font-size:50px;"">Agent B","null","","","","",""
"null","","","video-keyboard-response","387","1103404","0.0-387.0","yufk5om2","","","null","","Agent B","veridical","STIM_SET_1_REAL/1160168.bmp_pp53_L2_V1.0_veridical_freeview_isoFalse_fps144.mp4",""
"","","","call-function","388","1103406","0.0-388.0","yufk5om2","","","","","","","",""
"2507.1149999999907","{""judgement"":0}","[0]","survey-likert","389","1105914","0.0-389.0","yufk5om2","","","","","","","","1"
"1162.5150000001304","{""confidence"":0}","[0]","survey-likert","390","1107080","0.0-390.0","yufk5om2","","","","","","","",""
"","","","call-function","391","1107082","0.0-391.0","yufk5om2","","","","","","","",""
"null","","","html-keyboard-response","392","1108585","0.0-392.0","yufk5om2","","<span style=""color:Black; font-size:50px;"">Agent A","null","","","","",""
"null","","","video-keyboard-response","393","1111656","0.0-393.0","yufk5om2","","","null","","Agent A","scrambled","STIM_SET_3/1592289.bmp_pp92_L3_V2_veridical_freeview_isoFalsemismatch_713666.bmp_L3_fps90.mp4",""
"null","","","html-keyboard-response","394","1113158","0.0-394.0","yufk5om2","","<span style=""color:Black; font-size:50px;"">Agent B","null","","","","",""
"null","","","video-keyboard-response","395","1116234","0.0-395.0","yufk5om2","","","null","","Agent B","veridical","STIM_SET_1_REAL/713666.bmp_pp97_L3_V1.0_veridical_freeview_isoFalse_fps144.mp4",""
"","","","call-function","396","1116235","0.0-396.0","yufk5om2","","","","","","","",""
"1805.4299999999348","{""judgement"":0}","[0]","survey-likert","397","1118042","0.0-397.0","yufk5om2","","","","","","","","1"
"1498.1350000000093","{""confidence"":2}","[0]","survey-likert","398","1119542","0.0-398.0","yufk5om2","","","","","","","",""
"","","","call-function","399","1119543","0.0-399.0","yufk5om2","","","","","","","",""
"null","","","html-keyboard-response","400","1121046","0.0-400.0","yufk5om2","","<span style=""color:Black; font-size:50px;"">Agent A","null","","","","",""
"null","","","video-keyboard-response","401","1124123","0.0-401.0","yufk5om2","","","null","","Agent A","scrambled","STIM_SET_3/61513.bmp_pp75_L1_V2_veridical_freeview_isoFalsemismatch_1159784.bmp_L3_fps90.mp4",""
"null","","","html-keyboard-response","402","1125628","0.0-402.0","yufk5om2","","<span style=""color:Black; font-size:50px;"">Agent B","null","","","","",""
"null","","","video-keyboard-response","403","1128705","0.0-403.0","yufk5om2","","","null","","Agent B","veridical","STIM_SET_1_REAL/1159784.bmp_pp73_L3_V1.0_veridical_freeview_isoFalse_fps144.mp4",""
"","","","call-function","404","1128706","0.0-404.0","yufk5om2","","","","","","","",""
"1666.0249999999069","{""judgement"":0}","[0]","survey-likert","405","1130373","0.0-405.0","yufk5om2","","","","","","","","1"
"1019.1000000000931","{""confidence"":2}","[0]","survey-likert","406","1131395","0.0-406.0","yufk5om2","","","","","","","",""
"","","","call-function","407","1131396","0.0-407.0","yufk5om2","","","","","","","",""
"null","","","html-keyboard-response","408","1132899","0.0-408.0","yufk5om2","","<span style=""color:Black; font-size:50px;"">Agent A","null","","","","",""
"null","","","video-keyboard-response","409","1136001","0.0-409.0","yufk5om2","","","null","","Agent A","scrambled","STIM_SET_3/1159508.bmp_pp151_L1_V2_veridical_freeview_isoFalsemismatch_1159675.bmp_L3_fps90.mp4",""
"null","","","html-keyboard-response","410","1137505","0.0-410.0","yufk5om2","","<span style=""color:Black; font-size:50px;"">Agent B","null","","","","",""
"null","","","video-keyboard-response","411","1140608","0.0-411.0","yufk5om2","","","null","","Agent B","veridical","STIM_SET_1_REAL/1159675.bmp_pp77_L3_V1.0_veridical_freeview_isoFalse_fps144.mp4",""
"","","","call-function","412","1140609","0.0-412.0","yufk5om2","","","","","","","",""
"2131.7099999999627","{""judgement"":1}","[0]","survey-likert","413","1142742","0.0-413.0","yufk5om2","","","","","","","","1"
"1855.905000000028","{""confidence"":2}","[0]","survey-likert","414","1144600","0.0-414.0","yufk5om2","","","","","","","",""
"50428.38500000001","","","instructions","415","1195030","0.0-415.0","yufk5om2","[{""page_index"":0,""viewing_time"":27462.460000000196},{""page_index"":1,""viewing_time"":22255.764999999898},{""page_index"":2,""viewing_time"":710}]","","","","","","",""
"1259.1100000001024","","","instructions","416","1196290","0.0-416.0","yufk5om2","[{""page_index"":0,""viewing_time"":419.03000000002794},{""page_index"":1,""viewing_time"":418.14999999990687},{""page_index"":2,""viewing_time"":421.8200000000652}]","","","","","","",""
"","","","call-function","417","1196291","0.0-417.0","yufk5om2","","","","","","","",""
"null","","","html-keyboard-response","418","1197793","0.0-418.0","yufk5om2","","<span style=""color:Black; font-size:50px;"">Agent A","null","","","","",""
"null","","","video-keyboard-response","419","1200869","0.0-419.0","yufk5om2","","","null","","Agent A","scrambled","STIM_SET_3/107909.bmp_pp95_L2_V2_veridical_freeview_isoFalsemismatch_1592372.bmp_L1_fps90.mp4",""
"null","","","html-keyboard-response","420","1202372","0.0-420.0","yufk5om2","","<span style=""color:Black; font-size:50px;"">Agent B","null","","","","",""
"null","","","video-keyboard-response","421","1205450","0.0-421.0","yufk5om2","","","null","","Agent B","veridical","STIM_SET_1_REAL/1592372.bmp_pp76_L1_V1.0_veridical_freeview_isoFalse_fps144.mp4",""
"","","","call-function","422","1205452","0.0-422.0","yufk5om2","","","","","","","",""
"1746.0549999999348","{""judgement"":0}","[0]","survey-likert","423","1207198","0.0-423.0","yufk5om2","","","","","","","","1"
"1695.7849999999162","{""confidence"":0}","[0]","survey-likert","424","1208896","0.0-424.0","yufk5om2","","","","","","","",""
"","","","call-function","425","1208897","0.0-425.0","yufk5om2","","","","","","","",""
"null","","","html-keyboard-response","426","1210403","0.0-426.0","yufk5om2","","<span style=""color:Black; font-size:50px;"">Agent A","null","","","","",""
"null","","","video-keyboard-response","427","1213490","0.0-427.0","yufk5om2","","","null","","Agent A","scrambled","STIM_SET_3/285946.bmp_pp79_L2_V2_veridical_freeview_isoFalsemismatch_285751.bmp_L3_fps90.mp4",""
"null","","","html-keyboard-response","428","1214993","0.0-428.0","yufk5om2","","<span style=""color:Black; font-size:50px;"">Agent B","null","","","","",""
"null","","","video-keyboard-response","429","1218070","0.0-429.0","yufk5om2","","","null","","Agent B","veridical","STIM_SET_1_REAL/285751.bmp_pp55_L3_V1.0_veridical_freeview_isoFalse_fps144.mp4",""
"","","","call-function","430","1218071","0.0-430.0","yufk5om2","","","","","","","",""
"4953.114999999991","{""judgement"":1}","[0]","survey-likert","431","1223025","0.0-431.0","yufk5om2","","","","","","","","1"
"1780.3049999999348","{""confidence"":1}","[0]","survey-likert","432","1224807","0.0-432.0","yufk5om2","","","","","","","",""
"","","","call-function","433","1224809","0.0-433.0","yufk5om2","","","","","","","",""
"null","","","html-keyboard-response","434","1226312","0.0-434.0","yufk5om2","","<span style=""color:Black; font-size:50px;"">Agent A","null","","","","",""
"null","","","video-keyboard-response","435","1229374","0.0-435.0","yufk5om2","","","null","","Agent A","scrambled","STIM_SET_3/713328.bmp_pp86_L2_V2_veridical_freeview_isoFalsemismatch_1591994.bmp_L3_fps90.mp4",""
"null","","","html-keyboard-response","436","1230880","0.0-436.0","yufk5om2","","<span style=""color:Black; font-size:50px;"">Agent B","null","","","","",""
"null","","","video-keyboard-response","437","1233960","0.0-437.0","yufk5om2","","","null","","Agent B","veridical","STIM_SET_1_REAL/1591994.bmp_pp69_L3_V1.0_veridical_freeview_isoFalse_fps144.mp4",""
"","","","call-function","438","1233962","0.0-438.0","yufk5om2","","","","","","","",""
"2298.8299999998417","{""judgement"":0}","[0]","survey-likert","439","1236262","0.0-439.0","yufk5om2","","","","","","","","1"
"1460.3999999999069","{""confidence"":2}","[0]","survey-likert","440","1237724","0.0-440.0","yufk5om2","","","","","","","",""
"","","","call-function","441","1237725","0.0-441.0","yufk5om2","","","","","","","",""
"null","","","html-keyboard-response","442","1239228","0.0-442.0","yufk5om2","","<span style=""color:Black; font-size:50px;"">Agent A","null","","","","",""
"null","","","video-keyboard-response","443","1242301","0.0-443.0","yufk5om2","","","null","","Agent A","scrambled","STIM_SET_3/498258.bmp_pp51_L1_V2_veridical_freeview_isoFalsemismatch_498155.bmp_L2_fps90.mp4",""
"null","","","html-keyboard-response","444","1243805","0.0-444.0","yufk5om2","","<span style=""color:Black; font-size:50px;"">Agent B","null","","","","",""
"null","","","video-keyboard-response","445","1246883","0.0-445.0","yufk5om2","","","null","","Agent B","veridical","STIM_SET_1_REAL/498155.bmp_pp61_L2_V1.0_veridical_freeview_isoFalse_fps144.mp4",""
"","","","call-function","446","1246885","0.0-446.0","yufk5om2","","","","","","","",""
"2146.060000000056","{""judgement"":1}","[0]","survey-likert","447","1249032","0.0-447.0","yufk5om2","","","","","","","","1"
"1739.1149999999907","{""confidence"":3}","[0]","survey-likert","448","1250773","0.0-448.0","yufk5om2","","","","","","","",""
"","","","call-function","449","1250774","0.0-449.0","yufk5om2","","","","","","","",""
"null","","","html-keyboard-response","450","1252278","0.0-450.0","yufk5om2","","<span style=""color:Black; font-size:50px;"">Agent A","null","","","","",""
"null","","","video-keyboard-response","451","1255352","0.0-451.0","yufk5om2","","","null","","Agent A","scrambled","STIM_SET_3/1592530.bmp_pp75_L1_V2_veridical_freeview_isoFalsemismatch_1591961.bmp_L2_fps90.mp4",""
"null","","","html-keyboard-response","452","1256855","0.0-452.0","yufk5om2","","<span style=""color:Black; font-size:50px;"">Agent B","null","","","","",""
"null","","","video-keyboard-response","453","1259958","0.0-453.0","yufk5om2","","","null","","Agent B","veridical","STIM_SET_1_REAL/1591961.bmp_pp67_L2_V1.0_veridical_freeview_isoFalse_fps144.mp4",""
"","","","call-function","454","1259959","0.0-454.0","yufk5om2","","","","","","","",""
"1948.5200000000186","{""judgement"":1}","[0]","survey-likert","455","1261909","0.0-455.0","yufk5om2","","","","","","","","1"
"1095.2349999998696","{""confidence"":1}","[0]","survey-likert","456","1263006","0.0-456.0","yufk5om2","","","","","","","",""
"","","","call-function","457","1263007","0.0-457.0","yufk5om2","","","","","","","",""
"null","","","html-keyboard-response","458","1264511","0.0-458.0","yufk5om2","","<span style=""color:Black; font-size:50px;"">Agent A","null","","","","",""
"null","","","video-keyboard-response","459","1267606","0.0-459.0","yufk5om2","","","null","","Agent A","scrambled","STIM_SET_3/1592305.bmp_pp65_L3_V2_veridical_freeview_isoFalsemismatch_713779.bmp_L2_fps90.mp4",""
"null","","","html-keyboard-response","460","1269109","0.0-460.0","yufk5om2","","<span style=""color:Black; font-size:50px;"">Agent B","null","","","","",""
"null","","","video-keyboard-response","461","1272201","0.0-461.0","yufk5om2","","","null","","Agent B","veridical","STIM_SET_1_REAL/713779.bmp_pp152_L2_V1.0_veridical_freeview_isoFalse_fps144.mp4",""
"","","","call-function","462","1272202","0.0-462.0","yufk5om2","","","","","","","",""
"1846.8049999999348","{""judgement"":0}","[0]","survey-likert","463","1274049","0.0-463.0","yufk5om2","","","","","","","","1"
"2028.940000000177","{""confidence"":1}","[0]","survey-likert","464","1276080","0.0-464.0","yufk5om2","","","","","","","",""
"","","","call-function","465","1276081","0.0-465.0","yufk5om2","","","","","","","",""
"null","","","html-keyboard-response","466","1277587","0.0-466.0","yufk5om2","","<span style=""color:Black; font-size:50px;"">Agent A","null","","","","",""
"null","","","video-keyboard-response","467","1280688","0.0-467.0","yufk5om2","","","null","","Agent A","scrambled","STIM_SET_3/1591781.bmp_pp63_L1_V2_veridical_freeview_isoFalsemismatch_1593041.bmp_L1_fps90.mp4",""
"null","","","html-keyboard-response","468","1282191","0.0-468.0","yufk5om2","","<span style=""color:Black; font-size:50px;"">Agent B","null","","","","",""
"null","","","video-keyboard-response","469","1285305","0.0-469.0","yufk5om2","","","null","","Agent B","veridical","STIM_SET_1_REAL/1593041.bmp_pp58_L1_V1.0_veridical_freeview_isoFalse_fps144.mp4",""
"","","","call-function","470","1285306","0.0-470.0","yufk5om2","","","","","","","",""
"2092.2249999998603","{""judgement"":1}","[0]","survey-likert","471","1287399","0.0-471.0","yufk5om2","","","","","","","","1"
"1283.8499999998603","{""confidence"":0}","[0]","survey-likert","472","1288684","0.0-472.0","yufk5om2","","","","","","","",""
"","","","call-function","473","1288685","0.0-473.0","yufk5om2","","","","","","","",""
"null","","","html-keyboard-response","474","1290189","0.0-474.0","yufk5om2","","<span style=""color:Black; font-size:50px;"">Agent A","null","","","","",""
"null","","","video-keyboard-response","475","1293302","0.0-475.0","yufk5om2","","","null","","Agent A","scrambled","STIM_SET_3/1592168.bmp_pp71_L1_V2_veridical_freeview_isoFalsemismatch_1592890.bmp_L2_fps90.mp4",""
"null","","","html-keyboard-response","476","1294806","0.0-476.0","yufk5om2","","<span style=""color:Black; font-size:50px;"">Agent B","null","","","","",""
"null","","","video-keyboard-response","477","1297874","0.0-477.0","yufk5om2","","","null","","Agent B","veridical","STIM_SET_1_REAL/1592890.bmp_pp82_L2_V1.0_veridical_freeview_isoFalse_fps144.mp4",""
"","","","call-function","478","1297875","0.0-478.0","yufk5om2","","","","","","","",""
"2943.2249999998603","{""judgement"":1}","[0]","survey-likert","479","1300819","0.0-479.0","yufk5om2","","","","","","","","1"
"924.7900000000373","{""confidence"":2}","[0]","survey-likert","480","1301745","0.0-480.0","yufk5om2","","","","","","","",""
"","","","call-function","481","1301746","0.0-481.0","yufk5om2","","","","","","","",""
"null","","","html-keyboard-response","482","1303250","0.0-482.0","yufk5om2","","<span style=""color:Black; font-size:50px;"">Agent A","null","","","","",""
"null","","","video-keyboard-response","483","1306309","0.0-483.0","yufk5om2","","","null","","Agent A","veridical","STIM_SET_1_REAL/1592351.bmp_pp51_L1_V1.0_veridical_freeview_isoFalse_fps144.mp4",""
"null","","","html-keyboard-response","484","1307815","0.0-484.0","yufk5om2","","<span style=""color:Black; font-size:50px;"">Agent B","null","","","","",""
"null","","","video-keyboard-response","485","1310890","0.0-485.0","yufk5om2","","","null","","Agent B","scrambled","STIM_SET_3/1592025.bmp_pp68_L1_V2_veridical_freeview_isoFalsemismatch_1592351.bmp_L1_fps90.mp4",""
"","","","call-function","486","1310891","0.0-486.0","yufk5om2","","","","","","","",""
"2031.2549999998882","{""judgement"":0}","[0]","survey-likert","487","1312924","0.0-487.0","yufk5om2","","","","","","","","0"
"1828.4200000001583","{""confidence"":3}","[0]","survey-likert","488","1314754","0.0-488.0","yufk5om2","","","","","","","",""
"","","","call-function","489","1314755","0.0-489.0","yufk5om2","","","","","","","",""
"null","","","html-keyboard-response","490","1316259","0.0-490.0","yufk5om2","","<span style=""color:Black; font-size:50px;"">Agent A","null","","","","",""
"null","","","video-keyboard-response","491","1319328","0.0-491.0","yufk5om2","","","null","","Agent A","veridical","STIM_SET_1_REAL/713135.bmp_pp54_L2_V1.0_veridical_freeview_isoFalse_fps144.mp4",""
"null","","","html-keyboard-response","492","1320831","0.0-492.0","yufk5om2","","<span style=""color:Black; font-size:50px;"">Agent B","null","","","","",""
"null","","","video-keyboard-response","493","1323955","0.0-493.0","yufk5om2","","","null","","Agent B","scrambled","STIM_SET_3/1592567.bmp_pp70_L2_V2_veridical_freeview_isoFalsemismatch_713135.bmp_L2_fps90.mp4",""
"","","","call-function","494","1323956","0.0-494.0","yufk5om2","","","","","","","",""
"10431.290000000037","{""judgement"":0}","[0]","survey-likert","495","1334388","0.0-495.0","yufk5om2","","","","","","","","0"
"1401.4750000000931","{""confidence"":0}","[0]","survey-likert","496","1335792","0.0-496.0","yufk5om2","","","","","","","",""
"2464.195000000065","","","instructions","497","1338257","0.0-497.0","yufk5om2","[{""page_index"":0,""viewing_time"":1497.0500000000466},{""page_index"":1,""viewing_time"":508.96999999997206},{""page_index"":2,""viewing_time"":458.02499999990687}]","","","","","","",""
"62528.01500000013","","","instructions","498","1400787","0.0-498.0","yufk5om2","[{""page_index"":0,""viewing_time"":60795.87000000011},{""page_index"":1,""viewing_time"":1119.0999999998603},{""page_index"":2,""viewing_time"":612.8100000000559}]","","","","","","",""
"","","","call-function","499","1400789","0.0-499.0","yufk5om2","","","","","","","",""
"null","","","html-keyboard-response","500","1402290","0.0-500.0","yufk5om2","","<span style=""color:Black; font-size:50px;"">Agent A","null","","","","",""
"null","","","video-keyboard-response","501","1405354","0.0-501.0","yufk5om2","","","null","","Agent A","scrambled","STIM_SET_3/1159427.bmp_pp98_L1_V2_veridical_freeview_isoFalsemismatch_1591876.bmp_L1_fps90.mp4",""
"null","","","html-keyboard-response","502","1406856","0.0-502.0","yufk5om2","","<span style=""color:Black; font-size:50px;"">Agent B","null","","","","",""
"null","","","video-keyboard-response","503","1409934","0.0-503.0","yufk5om2","","","null","","Agent B","veridical","STIM_SET_1_REAL/1591876.bmp_pp63_L1_V1.0_veridical_freeview_isoFalse_fps144.mp4",""
"","","","call-function","504","1409935","0.0-504.0","yufk5om2","","","","","","","",""
"1877.9650000000838","{""judgement"":1}","[0]","survey-likert","505","1411814","0.0-505.0","yufk5om2","","","","","","","","1"
"1224.369999999879","{""confidence"":2}","[0]","survey-likert","506","1413041","0.0-506.0","yufk5om2","","","","","","","",""
"","","","call-function","507","1413042","0.0-507.0","yufk5om2","","","","","","","",""
"null","","","html-keyboard-response","508","1414544","0.0-508.0","yufk5om2","","<span style=""color:Black; font-size:50px;"">Agent A","null","","","","",""
"null","","","video-keyboard-response","509","1417622","0.0-509.0","yufk5om2","","","null","","Agent A","scrambled","STIM_SET_3/1592314.bmp_pp100_L3_V2_veridical_freeview_isoFalsemismatch_713707.bmp_L1_fps90.mp4",""
"null","","","html-keyboard-response","510","1419124","0.0-510.0","yufk5om2","","<span style=""color:Black; font-size:50px;"">Agent B","null","","","","",""
"null","","","video-keyboard-response","511","1422202","0.0-511.0","yufk5om2","","","null","","Agent B","veridical","STIM_SET_1_REAL/713707.bmp_pp154_L1_V1.0_veridical_freeview_isoFalse_fps144.mp4",""
"","","","call-function","512","1422204","0.0-512.0","yufk5om2","","","","","","","",""
"1431.880000000121","{""judgement"":0}","[0]","survey-likert","513","1423637","0.0-513.0","yufk5om2","","","","","","","","1"
"1482.530000000028","{""confidence"":2}","[0]","survey-likert","514","1425121","0.0-514.0","yufk5om2","","","","","","","",""
"","","","call-function","515","1425122","0.0-515.0","yufk5om2","","","","","","","",""
"null","","","html-keyboard-response","516","1426628","0.0-516.0","yufk5om2","","<span style=""color:Black; font-size:50px;"">Agent A","null","","","","",""
"null","","","video-keyboard-response","517","1429721","0.0-517.0","yufk5om2","","","null","","Agent A","scrambled","STIM_SET_3/150277.bmp_pp65_L3_V2_veridical_freeview_isoFalsemismatch_1592362.bmp_L2_fps90.mp4",""
"null","","","html-keyboard-response","518","1431225","0.0-518.0","yufk5om2","","<span style=""color:Black; font-size:50px;"">Agent B","null","","","","",""
"null","","","video-keyboard-response","519","1434321","0.0-519.0","yufk5om2","","","null","","Agent B","veridical","STIM_SET_1_REAL/1592362.bmp_pp95_L2_V1.0_veridical_freeview_isoFalse_fps144.mp4",""
"","","","call-function","520","1434322","0.0-520.0","yufk5om2","","","","","","","",""
"5131.274999999907","{""judgement"":1}","[0]","survey-likert","521","1439454","0.0-521.0","yufk5om2","","","","","","","","1"
"1317.3000000000466","{""confidence"":1}","[0]","survey-likert","522","1440773","0.0-522.0","yufk5om2","","","","","","","",""
"","","","call-function","523","1440774","0.0-523.0","yufk5om2","","","","","","","",""
"null","","","html-keyboard-response","524","1442276","0.0-524.0","yufk5om2","","<span style=""color:Black; font-size:50px;"">Agent A","null","","","","",""
"null","","","video-keyboard-response","525","1445376","0.0-525.0","yufk5om2","","","null","","Agent A","veridical","STIM_SET_1_REAL/1592286.bmp_pp52_L1_V1.0_veridical_freeview_isoFalse_fps144.mp4",""
"null","","","html-keyboard-response","526","1446878","0.0-526.0","yufk5om2","","<span style=""color:Black; font-size:50px;"">Agent B","null","","","","",""
"null","","","video-keyboard-response","527","1449969","0.0-527.0","yufk5om2","","","null","","Agent B","scrambled","STIM_SET_3/498326.bmp_pp57_L1_V2_veridical_freeview_isoFalsemismatch_1592286.bmp_L1_fps90.mp4",""
"","","","call-function","528","1449970","0.0-528.0","yufk5om2","","","","","","","",""
"2010.7250000000931","{""judgement"":0}","[0]","survey-likert","529","1451982","0.0-529.0","yufk5om2","","","","","","","","0"
"1559.1049999999814","{""confidence"":3}","[0]","survey-likert","530","1453543","0.0-530.0","yufk5om2","","","","","","","",""
"","","","call-function","531","1453544","0.0-531.0","yufk5om2","","","","","","","",""
"null","","","html-keyboard-response","532","1455047","0.0-532.0","yufk5om2","","<span style=""color:Black; font-size:50px;"">Agent A","null","","","","",""
"null","","","video-keyboard-response","533","1458137","0.0-533.0","yufk5om2","","","null","","Agent A","scrambled","STIM_SET_3/1592129.bmp_pp153_L3_V2_veridical_freeview_isoFalsemismatch_1159813.bmp_L2_fps90.mp4",""
"null","","","html-keyboard-response","534","1459645","0.0-534.0","yufk5om2","","<span style=""color:Black; font-size:50px;"">Agent B","null","","","","",""
"null","","","video-keyboard-response","535","1462765","0.0-535.0","yufk5om2","","","null","","Agent B","veridical","STIM_SET_1_REAL/1159813.bmp_pp79_L2_V1.0_veridical_freeview_isoFalse_fps144.mp4",""
"","","","call-function","536","1462766","0.0-536.0","yufk5om2","","","","","","","",""
"5689.945000000065","{""judgement"":1}","[0]","survey-likert","537","1468458","0.0-537.0","yufk5om2","","","","","","","","1"
"1691.6950000000652","{""confidence"":1}","[0]","survey-likert","538","1470152","0.0-538.0","yufk5om2","","","","","","","",""
"","","","call-function","539","1470153","0.0-539.0","yufk5om2","","","","","","","",""
"null","","","html-keyboard-response","540","1471658","0.0-540.0","yufk5om2","","<span style=""color:Black; font-size:50px;"">Agent A","null","","","","",""
"null","","","video-keyboard-response","541","1474731","0.0-541.0","yufk5om2","","","null","","Agent A","scrambled","STIM_SET_3/1592038.bmp_pp79_L2_V2_veridical_freeview_isoFalsemismatch_1592727.bmp_L3_fps90.mp4",""
"null","","","html-keyboard-response","542","1476237","0.0-542.0","yufk5om2","","<span style=""color:Black; font-size:50px;"">Agent B","null","","","","",""
"null","","","video-keyboard-response","543","1479310","0.0-543.0","yufk5om2","","","null","","Agent B","veridical","STIM_SET_1_REAL/1592727.bmp_pp59_L3_V1.0_veridical_freeview_isoFalse_fps144.mp4",""
"","","","call-function","544","1479311","0.0-544.0","yufk5om2","","","","","","","",""
"1619.815000000177","{""judgement"":1}","[0]","survey-likert","545","1480932","0.0-545.0","yufk5om2","","","","","","","","1"
"5937.324999999953","{""confidence"":1}","[0]","survey-likert","546","1486871","0.0-546.0","yufk5om2","","","","","","","",""
"","","","call-function","547","1486872","0.0-547.0","yufk5om2","","","","","","","",""
"null","","","html-keyboard-response","548","1488373","0.0-548.0","yufk5om2","","<span style=""color:Black; font-size:50px;"">Agent A","null","","","","",""
"null","","","video-keyboard-response","549","1491439","0.0-549.0","yufk5om2","","","null","","Agent A","scrambled","STIM_SET_3/1591975.bmp_pp88_L2_V2_veridical_freeview_isoFalsemismatch_713017.bmp_L2_fps90.mp4",""
"null","","","html-keyboard-response","550","1492945","0.0-550.0","yufk5om2","","<span style=""color:Black; font-size:50px;"">Agent B","null","","","","",""
"null","","","video-keyboard-response","551","1496018","0.0-551.0","yufk5om2","","","null","","Agent B","veridical","STIM_SET_1_REAL/713017.bmp_pp152_L2_V1.0_veridical_freeview_isoFalse_fps144.mp4",""
"","","","call-function","552","1496020","0.0-552.0","yufk5om2","","","","","","","",""
"1686.219999999972","{""judgement"":1}","[0]","survey-likert","553","1497708","0.0-553.0","yufk5om2","","","","","","","","1"
"1051.5100000000093","{""confidence"":3}","[0]","survey-likert","554","1498762","0.0-554.0","yufk5om2","","","","","","","",""
"","","","call-function","555","1498764","0.0-555.0","yufk5om2","","","","","","","",""
"null","","","html-keyboard-response","556","1500270","0.0-556.0","yufk5om2","","<span style=""color:Black; font-size:50px;"">Agent A","null","","","","",""
"null","","","video-keyboard-response","557","1503347","0.0-557.0","yufk5om2","","","null","","Agent A","veridical","STIM_SET_1_REAL/713760.bmp_pp81_L1_V1.0_veridical_freeview_isoFalse_fps144.mp4",""
"null","","","html-keyboard-response","558","1504849","0.0-558.0","yufk5om2","","<span style=""color:Black; font-size:50px;"">Agent B","null","","","","",""
"null","","","video-keyboard-response","559","1507915","0.0-559.0","yufk5om2","","","null","","Agent B","scrambled","STIM_SET_3/285684.bmp_pp80_L3_V2_veridical_freeview_isoFalsemismatch_713760.bmp_L1_fps90.mp4",""
"","","","call-function","560","1507916","0.0-560.0","yufk5om2","","","","","","","",""
"2279.5400000000373","{""judgement"":0}","[0]","survey-likert","561","1510197","0.0-561.0","yufk5om2","","","","","","","","0"
"2506.4799999999814","{""confidence"":3}","[0]","survey-likert","562","1512705","0.0-562.0","yufk5om2","","","","","","","",""
"","","","call-function","563","1512706","0.0-563.0","yufk5om2","","","","","","","",""
"null","","","html-keyboard-response","564","1514208","0.0-564.0","yufk5om2","","<span style=""color:Black; font-size:50px;"">Agent A","null","","","","",""
"null","","","video-keyboard-response","565","1517311","0.0-565.0","yufk5om2","","","null","","Agent A","scrambled","STIM_SET_3/1592298.bmp_pp56_L3_V2_veridical_freeview_isoFalsemismatch_1593146.bmp_L1_fps90.mp4",""
"null","","","html-keyboard-response","566","1518818","0.0-566.0","yufk5om2","","<span style=""color:Black; font-size:50px;"">Agent B","null","","","","",""
"null","","","video-keyboard-response","567","1521922","0.0-567.0","yufk5om2","","","null","","Agent B","veridical","STIM_SET_1_REAL/1593146.bmp_pp93_L1_V1.0_veridical_freeview_isoFalse_fps144.mp4",""
"","","","call-function","568","1521923","0.0-568.0","yufk5om2","","","","","","","",""
"1708.3000000000466","{""judgement"":1}","[0]","survey-likert","569","1523632","0.0-569.0","yufk5om2","","","","","","","","1"
"2315.1350000000093","{""confidence"":3}","[0]","survey-likert","570","1525949","0.0-570.0","yufk5om2","","","","","","","",""
"","","","call-function","571","1525950","0.0-571.0","yufk5om2","","","","","","","",""
"null","","","html-keyboard-response","572","1527454","0.0-572.0","yufk5om2","","<span style=""color:Black; font-size:50px;"">Agent A","null","","","","",""
"null","","","video-keyboard-response","573","1530664","0.0-573.0","yufk5om2","","","null","","Agent A","scrambled","STIM_SET_3/150463.bmp_pp55_L3_V2_veridical_freeview_isoFalsemismatch_1592619.bmp_L3_fps90.mp4",""
"null","","","html-keyboard-response","574","1532167","0.0-574.0","yufk5om2","","<span style=""color:Black; font-size:50px;"">Agent B","null","","","","",""
"null","","","video-keyboard-response","575","1535259","0.0-575.0","yufk5om2","","","null","","Agent B","veridical","STIM_SET_1_REAL/1592619.bmp_pp56_L3_V1.0_veridical_freeview_isoFalse_fps144.mp4",""
"","","","call-function","576","1535260","0.0-576.0","yufk5om2","","","","","","","",""
"1460.5800000000745","{""judgement"":0}","[0]","survey-likert","577","1536722","0.0-577.0","yufk5om2","","","","","","","","1"
"1464.9650000000838","{""confidence"":2}","[0]","survey-likert","578","1538189","0.0-578.0","yufk5om2","","","","","","","",""
"1961.9199999999255","","","instructions","579","1540152","0.0-579.0","yufk5om2","[{""page_index"":0,""viewing_time"":1961.7849999999162}]","","","","","","",""
"3744.089999999851","","","instructions","580","1543897","0.0-580.0","yufk5om2","[{""page_index"":0,""viewing_time"":3743.9799999999814}]","","","","","","",""
"24219.899999999907","{""post-1"":2}","[0]","survey-likert","581","1568119","0.0-581.0","yufk5om2","","","","","","","",""
"7042.534999999916","{""post-1"":1}","[0]","survey-likert","582","1575163","0.0-582.0","yufk5om2","","","","","","","",""
"7813.479999999981","{""post-2"":2}","[0]","survey-likert","583","1582978","0.0-583.0","yufk5om2","","","","","","","",""
"1465.8100000000559","{""post-2"":1}","[0]","survey-likert","584","1584446","0.0-584.0","yufk5om2","","","","","","","",""
"4320.364999999991","{""post-3"":1}","[0]","survey-likert","585","1588768","0.0-585.0","yufk5om2","","","","","","","",""
"5023.899999999907","{""post-3"":1}","[0]","survey-likert","586","1593794","0.0-586.0","yufk5om2","","","","","","","",""
"7732.665000000037","{""post-4"":1}","[0]","survey-likert","587","1601530","0.0-587.0","yufk5om2","","","","","","","",""
"3895.679999999935","{""post-4"":1}","[0]","survey-likert","588","1605428","0.0-588.0","yufk5om2","","","","","","","",""
"4077.695000000065","{""post-5"":1}","[0]","survey-likert","589","1609507","0.0-589.0","yufk5om2","","","","","","","",""
"4561.879999999888","{""post-5"":2}","[0]","survey-likert","590","1614071","0.0-590.0","yufk5om2","","","","","","","",""
"61619.02499999991","{""Q0"":""I think I thought the agent was more human if I noticed it looking more at the faces or key parts of the photo versus randomly looking around""}","","survey-text","591","1675699","0.0-591.0","yufk5om2","","","","","","","",""
"50360.570000000065","{""Q0"":""I tried to follow the hotspots with my eyes and if it felt like I was unable to because it was moving too fast or too far apart I judged it to be less human.""}","","survey-text","592","1726064","0.0-592.0","yufk5om2","","","","","","","",""
"32725.540000000037","{""Q0"":""Sometimes it was hard to even pay attention to what was in the photo because I was just watching the hospots""}","","survey-text","593","1758795","0.0-593.0","yufk5om2","","","","","","","",""
"1272.655000000028","","","instructions","594","1760070","0.0-594.0","yufk5om2","[{""page_index"":0,""viewing_time"":1272.5200000000186}]","","","","","","",""
"69108.82000000007","{""Experimenter_end"":[""Printed ID# yufk5om2 on consent form"",""Given subject SONA credit or payment"",""Given the subject debrief form""]}","[0]","survey-multi-select","595","1829181","0.0-595.0","yufk5om2","","","","","","","",""
