"rt","responses","question_order","trial_type","trial_index","time_elapsed","internal_node_id","ID","view_history","stimulus","key_press","value","agent","condition","image","correct_answer"
"45971.82","{""Experimenter"":[""Confirmed subject's identity"",""Confirmed normal or corrected-to-normal vision"",""Obtained consent (signature and date)"",""Checked the test room lighting"",""Checked computer screen lighting"",""Checked distance from screen to chin rest (50cm)"",""Cleaned and adjusted chin rest"",""Counterbalanced the order of the tasks"",""Opened the experiment in Firefox"",""Made the experiment full screen"",""Encouraged subject to silence phone, put away distractors, etc.""]}","[0]","survey-multi-select","0","45980","0.0-0.0","z5ryc1do","","","","","","","",""
"3347.625","","","instructions","1","49328","0.0-1.0","z5ryc1do","[{""page_index"":0,""viewing_time"":3347.4749999999985}]","","","","","","",""
"12640.949999999997","","","instructions","2","61970","0.0-2.0","z5ryc1do","[{""page_index"":0,""viewing_time"":4870.894999999997},{""page_index"":1,""viewing_time"":1323.925000000003},{""page_index"":2,""viewing_time"":6446.004999999997}]","","","","","","",""
"2137.699999999997","","","instructions","3","64108","0.0-3.0","z5ryc1do","[{""page_index"":0,""viewing_time"":2137.595000000001}]","","","","","","",""
"null","","","video-keyboard-response","4","67183","0.0-4.0","z5ryc1do","","","null","","","","",""
"14292.184999999998","","","instructions","5","81476","0.0-5.0","z5ryc1do","[{""page_index"":0,""viewing_time"":2039.6800000000076},{""page_index"":1,""viewing_time"":1641.1100000000006},{""page_index"":2,""viewing_time"":10611.284999999989}]","","","","","","",""
"2362.020000000004","","","instructions","6","83838","0.0-6.0","z5ryc1do","[{""page_index"":0,""viewing_time"":2361.915000000008}]","","","","","","",""
"1178.8600000000006","","","instructions","7","85017","0.0-7.0","z5ryc1do","[{""page_index"":0,""viewing_time"":1178.6650000000081}]","","","","","","",""
"null","","","video-keyboard-response","8","88094","0.0-8.0","z5ryc1do","","","null","","","","",""
"5556.255000000005","","","instructions","9","93650","0.0-9.0","z5ryc1do","[{""page_index"":0,""viewing_time"":1573.604999999996},{""page_index"":1,""viewing_time"":1888.3899999999994},{""page_index"":2,""viewing_time"":2094.125}]","","","","","","",""
"2084.9349999999977","","","instructions","10","95736","0.0-10.0","z5ryc1do","[{""page_index"":0,""viewing_time"":2084.8050000000076}]","","","","","","",""
"","","","call-function","11","95737","0.0-11.0","z5ryc1do","","","","","","","",""
"null","","","html-keyboard-response","12","97242","0.0-12.0","z5ryc1do","","<span style=""color:Black; font-size:50px;"">Agent A","null","","","","",""
"null","","","video-keyboard-response","13","100318","0.0-13.0","z5ryc1do","","","null","","Agent A","scrambled","STIM_SET_2/150463.bmp_pp55_L3_V1.0_scrambled_freeview_isoTrue.mp4",""
"null","","","html-keyboard-response","14","101821","0.0-14.0","z5ryc1do","","<span style=""color:Black; font-size:50px;"">Agent B","null","","","","",""
"null","","","video-keyboard-response","15","104896","0.0-15.0","z5ryc1do","","","null","","Agent B","veridical","STIM_SET_2/150463.bmp_pp55_L3_V1.0_veridical_freeview_isoTrue.mp4",""
"","","","call-function","16","104896","0.0-16.0","z5ryc1do","","","","","","","",""
"2364.0800000000017","{""judgement"":0}","[0]","survey-likert","17","107262","0.0-17.0","z5ryc1do","","","","","","","","1"
"1565.4949999999953","{""confidence"":0}","[0]","survey-likert","18","108828","0.0-18.0","z5ryc1do","","","","","","","",""
"","","","call-function","19","108829","0.0-19.0","z5ryc1do","","","","","","","",""
"null","","","html-keyboard-response","20","110330","0.0-20.0","z5ryc1do","","<span style=""color:Black; font-size:50px;"">Agent A","null","","","","",""
"null","","","video-keyboard-response","21","113428","0.0-21.0","z5ryc1do","","","null","","Agent A","veridical","STIM_SET_2/1160049.bmp_pp53_L2_V1.0_veridical_freeview_isoTrue.mp4",""
"null","","","html-keyboard-response","22","114931","0.0-22.0","z5ryc1do","","<span style=""color:Black; font-size:50px;"">Agent B","null","","","","",""
"null","","","video-keyboard-response","23","118027","0.0-23.0","z5ryc1do","","","null","","Agent B","scrambled","STIM_SET_2/1160049.bmp_pp53_L2_V1.0_scrambled_freeview_isoTrue.mp4",""
"","","","call-function","24","118027","0.0-24.0","z5ryc1do","","","","","","","",""
"2102.9300000000076","{""judgement"":0}","[0]","survey-likert","25","120131","0.0-25.0","z5ryc1do","","","","","","","","0"
"1348.4549999999872","{""confidence"":0}","[0]","survey-likert","26","121481","0.0-26.0","z5ryc1do","","","","","","","",""
"","","","call-function","27","121481","0.0-27.0","z5ryc1do","","","","","","","",""
"null","","","html-keyboard-response","28","122983","0.0-28.0","z5ryc1do","","<span style=""color:Black; font-size:50px;"">Agent A","null","","","","",""
"null","","","video-keyboard-response","29","126087","0.0-29.0","z5ryc1do","","","null","","Agent A","veridical","STIM_SET_2/498261.bmp_pp84_L3_V1.0_veridical_freeview_isoTrue.mp4",""
"null","","","html-keyboard-response","30","127591","0.0-30.0","z5ryc1do","","<span style=""color:Black; font-size:50px;"">Agent B","null","","","","",""
"null","","","video-keyboard-response","31","130661","0.0-31.0","z5ryc1do","","","null","","Agent B","scrambled","STIM_SET_2/498261.bmp_pp84_L3_V1.0_scrambled_freeview_isoTrue.mp4",""
"","","","call-function","32","130662","0.0-32.0","z5ryc1do","","","","","","","",""
"1650.035000000018","{""judgement"":0}","[0]","survey-likert","33","132313","0.0-33.0","z5ryc1do","","","","","","","","0"
"1932.3899999999849","{""confidence"":1}","[0]","survey-likert","34","134246","0.0-34.0","z5ryc1do","","","","","","","",""
"","","","call-function","35","134246","0.0-35.0","z5ryc1do","","","","","","","",""
"null","","","html-keyboard-response","36","135753","0.0-36.0","z5ryc1do","","<span style=""color:Black; font-size:50px;"">Agent A","null","","","","",""
"null","","","video-keyboard-response","37","138849","0.0-37.0","z5ryc1do","","","null","","Agent A","scrambled","STIM_SET_2/1592047.bmp_pp51_L1_V1.0_scrambled_freeview_isoTrue.mp4",""
"null","","","html-keyboard-response","38","140350","0.0-38.0","z5ryc1do","","<span style=""color:Black; font-size:50px;"">Agent B","null","","","","",""
"null","","","video-keyboard-response","39","143451","0.0-39.0","z5ryc1do","","","null","","Agent B","veridical","STIM_SET_2/1592047.bmp_pp51_L1_V1.0_veridical_freeview_isoTrue.mp4",""
"","","","call-function","40","143451","0.0-40.0","z5ryc1do","","","","","","","",""
"1867.710000000021","{""judgement"":0}","[0]","survey-likert","41","145320","0.0-41.0","z5ryc1do","","","","","","","","1"
"1785.2350000000151","{""confidence"":0}","[0]","survey-likert","42","147106","0.0-42.0","z5ryc1do","","","","","","","",""
"","","","call-function","43","147107","0.0-43.0","z5ryc1do","","","","","","","",""
"null","","","html-keyboard-response","44","148608","0.0-44.0","z5ryc1do","","<span style=""color:Black; font-size:50px;"">Agent A","null","","","","",""
"null","","","video-keyboard-response","45","151683","0.0-45.0","z5ryc1do","","","null","","Agent A","scrambled","STIM_SET_2/1592921.bmp_pp69_L3_V1.0_scrambled_freeview_isoTrue.mp4",""
"null","","","html-keyboard-response","46","153186","0.0-46.0","z5ryc1do","","<span style=""color:Black; font-size:50px;"">Agent B","null","","","","",""
"null","","","video-keyboard-response","47","156287","0.0-47.0","z5ryc1do","","","null","","Agent B","veridical","STIM_SET_2/1592921.bmp_pp69_L3_V1.0_veridical_freeview_isoTrue.mp4",""
"","","","call-function","48","156287","0.0-48.0","z5ryc1do","","","","","","","",""
"2109.5050000000047","{""judgement"":0}","[0]","survey-likert","49","158397","0.0-49.0","z5ryc1do","","","","","","","","1"
"1914.375","{""confidence"":0}","[0]","survey-likert","50","160313","0.0-50.0","z5ryc1do","","","","","","","",""
"","","","call-function","51","160313","0.0-51.0","z5ryc1do","","","","","","","",""
"null","","","html-keyboard-response","52","161817","0.0-52.0","z5ryc1do","","<span style=""color:Black; font-size:50px;"">Agent A","null","","","","",""
"null","","","video-keyboard-response","53","164887","0.0-53.0","z5ryc1do","","","null","","Agent A","veridical","STIM_SET_2/1159973.bmp_pp98_L1_V1.0_veridical_freeview_isoTrue.mp4",""
"null","","","html-keyboard-response","54","166389","0.0-54.0","z5ryc1do","","<span style=""color:Black; font-size:50px;"">Agent B","null","","","","",""
"null","","","video-keyboard-response","55","169462","0.0-55.0","z5ryc1do","","","null","","Agent B","scrambled","STIM_SET_2/1159973.bmp_pp98_L1_V1.0_scrambled_freeview_isoTrue.mp4",""
"","","","call-function","56","169463","0.0-56.0","z5ryc1do","","","","","","","",""
"3840.015000000014","{""judgement"":0}","[0]","survey-likert","57","173304","0.0-57.0","z5ryc1do","","","","","","","","0"
"3316.720000000001","{""confidence"":0}","[0]","survey-likert","58","176622","0.0-58.0","z5ryc1do","","","","","","","",""
"","","","call-function","59","176623","0.0-59.0","z5ryc1do","","","","","","","",""
"null","","","html-keyboard-response","60","178124","0.0-60.0","z5ryc1do","","<span style=""color:Black; font-size:50px;"">Agent A","null","","","","",""
"null","","","video-keyboard-response","61","181202","0.0-61.0","z5ryc1do","","","null","","Agent A","veridical","STIM_SET_2/713742.bmp_pp91_L3_V1.0_veridical_freeview_isoTrue.mp4",""
"null","","","html-keyboard-response","62","182707","0.0-62.0","z5ryc1do","","<span style=""color:Black; font-size:50px;"">Agent B","null","","","","",""
"null","","","video-keyboard-response","63","185785","0.0-63.0","z5ryc1do","","","null","","Agent B","scrambled","STIM_SET_2/713742.bmp_pp91_L3_V1.0_scrambled_freeview_isoTrue.mp4",""
"","","","call-function","64","185786","0.0-64.0","z5ryc1do","","","","","","","",""
"2492.7550000000047","{""judgement"":0}","[0]","survey-likert","65","188279","0.0-65.0","z5ryc1do","","","","","","","","0"
"1602.1900000000023","{""confidence"":0}","[0]","survey-likert","66","189883","0.0-66.0","z5ryc1do","","","","","","","",""
"","","","call-function","67","189883","0.0-67.0","z5ryc1do","","","","","","","",""
"null","","","html-keyboard-response","68","191389","0.0-68.0","z5ryc1do","","<span style=""color:Black; font-size:50px;"">Agent A","null","","","","",""
"null","","","video-keyboard-response","69","194458","0.0-69.0","z5ryc1do","","","null","","Agent A","scrambled","STIM_SET_2/1159427.bmp_pp98_L1_V1.0_scrambled_freeview_isoTrue.mp4",""
"null","","","html-keyboard-response","70","195959","0.0-70.0","z5ryc1do","","<span style=""color:Black; font-size:50px;"">Agent B","null","","","","",""
"null","","","video-keyboard-response","71","199019","0.0-71.0","z5ryc1do","","","null","","Agent B","veridical","STIM_SET_2/1159427.bmp_pp98_L1_V1.0_veridical_freeview_isoTrue.mp4",""
"","","","call-function","72","199020","0.0-72.0","z5ryc1do","","","","","","","",""
"4431.024999999994","{""judgement"":0}","[0]","survey-likert","73","203452","0.0-73.0","z5ryc1do","","","","","","","","1"
"1121.5599999999977","{""confidence"":1}","[0]","survey-likert","74","204574","0.0-74.0","z5ryc1do","","","","","","","",""
"","","","call-function","75","204575","0.0-75.0","z5ryc1do","","","","","","","",""
"null","","","html-keyboard-response","76","206080","0.0-76.0","z5ryc1do","","<span style=""color:Black; font-size:50px;"">Agent A","null","","","","",""
"null","","","video-keyboard-response","77","209186","0.0-77.0","z5ryc1do","","","null","","Agent A","scrambled","STIM_SET_2/713633.bmp_pp58_L1_V1.0_scrambled_freeview_isoTrue.mp4",""
"null","","","html-keyboard-response","78","210693","0.0-78.0","z5ryc1do","","<span style=""color:Black; font-size:50px;"">Agent B","null","","","","",""
"null","","","video-keyboard-response","79","213798","0.0-79.0","z5ryc1do","","","null","","Agent B","veridical","STIM_SET_2/713633.bmp_pp58_L1_V1.0_veridical_freeview_isoTrue.mp4",""
"","","","call-function","80","213798","0.0-80.0","z5ryc1do","","","","","","","",""
"1467.1000000000058","{""judgement"":0}","[0]","survey-likert","81","215266","0.0-81.0","z5ryc1do","","","","","","","","1"
"1245.7749999999942","{""confidence"":0}","[0]","survey-likert","82","216513","0.0-82.0","z5ryc1do","","","","","","","",""
"","","","call-function","83","216513","0.0-83.0","z5ryc1do","","","","","","","",""
"null","","","html-keyboard-response","84","218016","0.0-84.0","z5ryc1do","","<span style=""color:Black; font-size:50px;"">Agent A","null","","","","",""
"null","","","video-keyboard-response","85","221116","0.0-85.0","z5ryc1do","","","null","","Agent A","veridical","STIM_SET_2/150277.bmp_pp65_L3_V1.0_veridical_freeview_isoTrue.mp4",""
"null","","","html-keyboard-response","86","222621","0.0-86.0","z5ryc1do","","<span style=""color:Black; font-size:50px;"">Agent B","null","","","","",""
"null","","","video-keyboard-response","87","225726","0.0-87.0","z5ryc1do","","","null","","Agent B","scrambled","STIM_SET_2/150277.bmp_pp65_L3_V1.0_scrambled_freeview_isoTrue.mp4",""
"","","","call-function","88","225727","0.0-88.0","z5ryc1do","","","","","","","",""
"1999.3949999999895","{""judgement"":0}","[0]","survey-likert","89","227727","0.0-89.0","z5ryc1do","","","","","","","","0"
"1739.5400000000081","{""confidence"":1}","[0]","survey-likert","90","229468","0.0-90.0","z5ryc1do","","","","","","","",""
"17368.36499999999","","","instructions","91","246837","0.0-91.0","z5ryc1do","[{""page_index"":0,""viewing_time"":678.3250000000116},{""page_index"":1,""viewing_time"":16000.684999999998},{""page_index"":2,""viewing_time"":689.1449999999895}]","","","","","","",""
"1653.3250000000116","","","instructions","92","248490","0.0-92.0","z5ryc1do","[{""page_index"":0,""viewing_time"":483.25},{""page_index"":1,""viewing_time"":485.1500000000233},{""page_index"":2,""viewing_time"":684.8150000000023}]","","","","","","",""
"","","","call-function","93","248491","0.0-93.0","z5ryc1do","","","","","","","",""
"null","","","html-keyboard-response","94","249994","0.0-94.0","z5ryc1do","","<span style=""color:Black; font-size:50px;"">Agent A","null","","","","",""
"null","","","video-keyboard-response","95","253066","0.0-95.0","z5ryc1do","","","null","","Agent A","veridical","STIM_SET_2/1159819.bmp_pp151_L1_V1.0_veridical_freeview_isoTrue.mp4",""
"null","","","html-keyboard-response","96","254573","0.0-96.0","z5ryc1do","","<span style=""color:Black; font-size:50px;"">Agent B","null","","","","",""
"null","","","video-keyboard-response","97","257646","0.0-97.0","z5ryc1do","","","null","","Agent B","scrambled","STIM_SET_2/1159819.bmp_pp151_L1_V1.0_scrambled_freeview_isoTrue.mp4",""
"","","","call-function","98","257646","0.0-98.0","z5ryc1do","","","","","","","",""
"1696.4549999999872","{""judgement"":0}","[0]","survey-likert","99","259344","0.0-99.0","z5ryc1do","","","","","","","","0"
"1247.5249999999942","{""confidence"":1}","[0]","survey-likert","100","260592","0.0-100.0","z5ryc1do","","","","","","","",""
"","","","call-function","101","260593","0.0-101.0","z5ryc1do","","","","","","","",""
"null","","","html-keyboard-response","102","262097","0.0-102.0","z5ryc1do","","<span style=""color:Black; font-size:50px;"">Agent A","null","","","","",""
"null","","","video-keyboard-response","103","265161","0.0-103.0","z5ryc1do","","","null","","Agent A","scrambled","STIM_SET_2/285715.bmp_pp67_L2_V1.0_scrambled_freeview_isoTrue.mp4",""
"null","","","html-keyboard-response","104","266663","0.0-104.0","z5ryc1do","","<span style=""color:Black; font-size:50px;"">Agent B","null","","","","",""
"null","","","video-keyboard-response","105","269725","0.0-105.0","z5ryc1do","","","null","","Agent B","veridical","STIM_SET_2/285715.bmp_pp67_L2_V1.0_veridical_freeview_isoTrue.mp4",""
"","","","call-function","106","269726","0.0-106.0","z5ryc1do","","","","","","","",""
"2105.4100000000326","{""judgement"":0}","[0]","survey-likert","107","271832","0.0-107.0","z5ryc1do","","","","","","","","1"
"1083.140000000014","{""confidence"":1}","[0]","survey-likert","108","272916","0.0-108.0","z5ryc1do","","","","","","","",""
"","","","call-function","109","272916","0.0-109.0","z5ryc1do","","","","","","","",""
"null","","","html-keyboard-response","110","274421","0.0-110.0","z5ryc1do","","<span style=""color:Black; font-size:50px;"">Agent A","null","","","","",""
"null","","","video-keyboard-response","111","277523","0.0-111.0","z5ryc1do","","","null","","Agent A","scrambled","STIM_SET_2/1592201.bmp_pp97_L3_V1.0_scrambled_freeview_isoTrue.mp4",""
"null","","","html-keyboard-response","112","279029","0.0-112.0","z5ryc1do","","<span style=""color:Black; font-size:50px;"">Agent B","null","","","","",""
"null","","","video-keyboard-response","113","282132","0.0-113.0","z5ryc1do","","","null","","Agent B","veridical","STIM_SET_2/1592201.bmp_pp97_L3_V1.0_veridical_freeview_isoTrue.mp4",""
"","","","call-function","114","282132","0.0-114.0","z5ryc1do","","","","","","","",""
"1965.9550000000163","{""judgement"":1}","[0]","survey-likert","115","284099","0.0-115.0","z5ryc1do","","","","","","","","1"
"1105","{""confidence"":1}","[0]","survey-likert","116","285205","0.0-116.0","z5ryc1do","","","","","","","",""
"","","","call-function","117","285206","0.0-117.0","z5ryc1do","","","","","","","",""
"null","","","html-keyboard-response","118","286711","0.0-118.0","z5ryc1do","","<span style=""color:Black; font-size:50px;"">Agent A","null","","","","",""
"null","","","video-keyboard-response","119","289809","0.0-119.0","z5ryc1do","","","null","","Agent A","veridical","STIM_SET_2/1159956.bmp_pp59_L3_V1.0_veridical_freeview_isoTrue.mp4",""
"null","","","html-keyboard-response","120","291315","0.0-120.0","z5ryc1do","","<span style=""color:Black; font-size:50px;"">Agent B","null","","","","",""
"null","","","video-keyboard-response","121","294418","0.0-121.0","z5ryc1do","","","null","","Agent B","scrambled","STIM_SET_2/1159956.bmp_pp59_L3_V1.0_scrambled_freeview_isoTrue.mp4",""
"","","","call-function","122","294418","0.0-122.0","z5ryc1do","","","","","","","",""
"1728.125","{""judgement"":0}","[0]","survey-likert","123","296147","0.0-123.0","z5ryc1do","","","","","","","","0"
"1231.984999999986","{""confidence"":1}","[0]","survey-likert","124","297380","0.0-124.0","z5ryc1do","","","","","","","",""
"","","","call-function","125","297380","0.0-125.0","z5ryc1do","","","","","","","",""
"null","","","html-keyboard-response","126","298881","0.0-126.0","z5ryc1do","","<span style=""color:Black; font-size:50px;"">Agent A","null","","","","",""
"null","","","video-keyboard-response","127","301986","0.0-127.0","z5ryc1do","","","null","","Agent A","scrambled","STIM_SET_2/1159592.bmp_pp91_L3_V1.0_scrambled_freeview_isoTrue.mp4",""
"null","","","html-keyboard-response","128","303488","0.0-128.0","z5ryc1do","","<span style=""color:Black; font-size:50px;"">Agent B","null","","","","",""
"null","","","video-keyboard-response","129","306597","0.0-129.0","z5ryc1do","","","null","","Agent B","veridical","STIM_SET_2/1159592.bmp_pp91_L3_V1.0_veridical_freeview_isoTrue.mp4",""
"","","","call-function","130","306598","0.0-130.0","z5ryc1do","","","","","","","",""
"1957.515000000014","{""judgement"":0}","[0]","survey-likert","131","308557","0.0-131.0","z5ryc1do","","","","","","","","1"
"963.5250000000233","{""confidence"":1}","[0]","survey-likert","132","309523","0.0-132.0","z5ryc1do","","","","","","","",""
"","","","call-function","133","309524","0.0-133.0","z5ryc1do","","","","","","","",""
"null","","","html-keyboard-response","134","311029","0.0-134.0","z5ryc1do","","<span style=""color:Black; font-size:50px;"">Agent A","null","","","","",""
"null","","","video-keyboard-response","135","314105","0.0-135.0","z5ryc1do","","","null","","Agent A","scrambled","STIM_SET_2/713770.bmp_pp89_L1_V1.0_scrambled_freeview_isoTrue.mp4",""
"null","","","html-keyboard-response","136","315607","0.0-136.0","z5ryc1do","","<span style=""color:Black; font-size:50px;"">Agent B","null","","","","",""
"null","","","video-keyboard-response","137","318686","0.0-137.0","z5ryc1do","","","null","","Agent B","veridical","STIM_SET_2/713770.bmp_pp89_L1_V1.0_veridical_freeview_isoTrue.mp4",""
"","","","call-function","138","318687","0.0-138.0","z5ryc1do","","","","","","","",""
"2819.1300000000047","{""judgement"":1}","[0]","survey-likert","139","321507","0.0-139.0","z5ryc1do","","","","","","","","1"
"1371.5400000000373","{""confidence"":1}","[0]","survey-likert","140","322879","0.0-140.0","z5ryc1do","","","","","","","",""
"","","","call-function","141","322880","0.0-141.0","z5ryc1do","","","","","","","",""
"null","","","html-keyboard-response","142","324381","0.0-142.0","z5ryc1do","","<span style=""color:Black; font-size:50px;"">Agent A","null","","","","",""
"null","","","video-keyboard-response","143","327452","0.0-143.0","z5ryc1do","","","null","","Agent A","scrambled","STIM_SET_2/1160189.bmp_pp64_L1_V1.0_scrambled_freeview_isoTrue.mp4",""
"null","","","html-keyboard-response","144","328956","0.0-144.0","z5ryc1do","","<span style=""color:Black; font-size:50px;"">Agent B","null","","","","",""
"null","","","video-keyboard-response","145","332027","0.0-145.0","z5ryc1do","","","null","","Agent B","veridical","STIM_SET_2/1160189.bmp_pp64_L1_V1.0_veridical_freeview_isoTrue.mp4",""
"","","","call-function","146","332028","0.0-146.0","z5ryc1do","","","","","","","",""
"1645.5650000000023","{""judgement"":0}","[0]","survey-likert","147","333674","0.0-147.0","z5ryc1do","","","","","","","","1"
"1248.844999999972","{""confidence"":1}","[0]","survey-likert","148","334924","0.0-148.0","z5ryc1do","","","","","","","",""
"","","","call-function","149","334924","0.0-149.0","z5ryc1do","","","","","","","",""
"null","","","html-keyboard-response","150","336426","0.0-150.0","z5ryc1do","","<span style=""color:Black; font-size:50px;"">Agent A","null","","","","",""
"null","","","video-keyboard-response","151","339534","0.0-151.0","z5ryc1do","","","null","","Agent A","scrambled","STIM_SET_2/1592025.bmp_pp68_L1_V1.0_scrambled_freeview_isoTrue.mp4",""
"null","","","html-keyboard-response","152","341042","0.0-152.0","z5ryc1do","","<span style=""color:Black; font-size:50px;"">Agent B","null","","","","",""
"null","","","video-keyboard-response","153","344142","0.0-153.0","z5ryc1do","","","null","","Agent B","veridical","STIM_SET_2/1592025.bmp_pp68_L1_V1.0_veridical_freeview_isoTrue.mp4",""
"","","","call-function","154","344142","0.0-154.0","z5ryc1do","","","","","","","",""
"1641.454999999958","{""judgement"":0}","[0]","survey-likert","155","345784","0.0-155.0","z5ryc1do","","","","","","","","1"
"1680.6600000000326","{""confidence"":1}","[0]","survey-likert","156","347466","0.0-156.0","z5ryc1do","","","","","","","",""
"","","","call-function","157","347467","0.0-157.0","z5ryc1do","","","","","","","",""
"null","","","html-keyboard-response","158","348969","0.0-158.0","z5ryc1do","","<span style=""color:Black; font-size:50px;"">Agent A","null","","","","",""
"null","","","video-keyboard-response","159","352068","0.0-159.0","z5ryc1do","","","null","","Agent A","veridical","STIM_SET_2/107955.bmp_pp90_L2_V1.0_veridical_freeview_isoTrue.mp4",""
"null","","","html-keyboard-response","160","353574","0.0-160.0","z5ryc1do","","<span style=""color:Black; font-size:50px;"">Agent B","null","","","","",""
"null","","","video-keyboard-response","161","356633","0.0-161.0","z5ryc1do","","","null","","Agent B","scrambled","STIM_SET_2/107955.bmp_pp90_L2_V1.0_scrambled_freeview_isoTrue.mp4",""
"","","","call-function","162","356633","0.0-162.0","z5ryc1do","","","","","","","",""
"2755.4949999999953","{""judgement"":1}","[0]","survey-likert","163","359389","0.0-163.0","z5ryc1do","","","","","","","","0"
"2116.594999999972","{""confidence"":0}","[0]","survey-likert","164","361507","0.0-164.0","z5ryc1do","","","","","","","",""
"","","","call-function","165","361508","0.0-165.0","z5ryc1do","","","","","","","",""
"null","","","html-keyboard-response","166","363012","0.0-166.0","z5ryc1do","","<span style=""color:Black; font-size:50px;"">Agent A","null","","","","",""
"null","","","video-keyboard-response","167","366072","0.0-167.0","z5ryc1do","","","null","","Agent A","scrambled","STIM_SET_2/713328.bmp_pp86_L2_V1.0_scrambled_freeview_isoTrue.mp4",""
"null","","","html-keyboard-response","168","367574","0.0-168.0","z5ryc1do","","<span style=""color:Black; font-size:50px;"">Agent B","null","","","","",""
"null","","","video-keyboard-response","169","370633","0.0-169.0","z5ryc1do","","","null","","Agent B","veridical","STIM_SET_2/713328.bmp_pp86_L2_V1.0_veridical_freeview_isoTrue.mp4",""
"","","","call-function","170","370634","0.0-170.0","z5ryc1do","","","","","","","",""
"1553.054999999993","{""judgement"":1}","[0]","survey-likert","171","372187","0.0-171.0","z5ryc1do","","","","","","","","1"
"1268.6450000000186","{""confidence"":1}","[0]","survey-likert","172","373457","0.0-172.0","z5ryc1do","","","","","","","",""
"17332.40499999997","","","instructions","173","390790","0.0-173.0","z5ryc1do","[{""page_index"":0,""viewing_time"":1874.179999999993},{""page_index"":1,""viewing_time"":15048.034999999974},{""page_index"":2,""viewing_time"":409.9000000000233}]","","","","","","",""
"1374.625","","","instructions","174","392165","0.0-174.0","z5ryc1do","[{""page_index"":0,""viewing_time"":490.375},{""page_index"":1,""viewing_time"":445.0550000000512},{""page_index"":2,""viewing_time"":439.08499999996275}]","","","","","","",""
"","","","call-function","175","392165","0.0-175.0","z5ryc1do","","","","","","","",""
"null","","","html-keyboard-response","176","393668","0.0-176.0","z5ryc1do","","<span style=""color:Black; font-size:50px;"">Agent A","null","","","","",""
"null","","","video-keyboard-response","177","396742","0.0-177.0","z5ryc1do","","","null","","Agent A","veridical","STIM_SET_2/61513.bmp_pp75_L1_V1.0_veridical_freeview_isoTrue.mp4",""
"null","","","html-keyboard-response","178","398244","0.0-178.0","z5ryc1do","","<span style=""color:Black; font-size:50px;"">Agent B","null","","","","",""
"null","","","video-keyboard-response","179","401320","0.0-179.0","z5ryc1do","","","null","","Agent B","scrambled","STIM_SET_2/61513.bmp_pp75_L1_V1.0_scrambled_freeview_isoTrue.mp4",""
"","","","call-function","180","401320","0.0-180.0","z5ryc1do","","","","","","","",""
"1753.594999999972","{""judgement"":0}","[0]","survey-likert","181","403074","0.0-181.0","z5ryc1do","","","","","","","","0"
"1515.9700000000303","{""confidence"":1}","[0]","survey-likert","182","404591","0.0-182.0","z5ryc1do","","","","","","","",""
"","","","call-function","183","404592","0.0-183.0","z5ryc1do","","","","","","","",""
"null","","","html-keyboard-response","184","406093","0.0-184.0","z5ryc1do","","<span style=""color:Black; font-size:50px;"">Agent A","null","","","","",""
"null","","","video-keyboard-response","185","409161","0.0-185.0","z5ryc1do","","","null","","Agent A","scrambled","STIM_SET_2/285932.bmp_pp64_L1_V1.0_scrambled_freeview_isoTrue.mp4",""
"null","","","html-keyboard-response","186","410663","0.0-186.0","z5ryc1do","","<span style=""color:Black; font-size:50px;"">Agent B","null","","","","",""
"null","","","video-keyboard-response","187","413730","0.0-187.0","z5ryc1do","","","null","","Agent B","veridical","STIM_SET_2/285932.bmp_pp64_L1_V1.0_veridical_freeview_isoTrue.mp4",""
"","","","call-function","188","413731","0.0-188.0","z5ryc1do","","","","","","","",""
"2356.7249999999767","{""judgement"":0}","[0]","survey-likert","189","416088","0.0-189.0","z5ryc1do","","","","","","","","1"
"1700.9049999999697","{""confidence"":1}","[0]","survey-likert","190","417790","0.0-190.0","z5ryc1do","","","","","","","",""
"","","","call-function","191","417791","0.0-191.0","z5ryc1do","","","","","","","",""
"null","","","html-keyboard-response","192","419296","0.0-192.0","z5ryc1do","","<span style=""color:Black; font-size:50px;"">Agent A","null","","","","",""
"null","","","video-keyboard-response","193","422405","0.0-193.0","z5ryc1do","","","null","","Agent A","scrambled","STIM_SET_2/498396.bmp_pp99_L2_V1.0_scrambled_freeview_isoTrue.mp4",""
"null","","","html-keyboard-response","194","423911","0.0-194.0","z5ryc1do","","<span style=""color:Black; font-size:50px;"">Agent B","null","","","","",""
"null","","","video-keyboard-response","195","427016","0.0-195.0","z5ryc1do","","","null","","Agent B","veridical","STIM_SET_2/498396.bmp_pp99_L2_V1.0_veridical_freeview_isoTrue.mp4",""
"","","","call-function","196","427016","0.0-196.0","z5ryc1do","","","","","","","",""
"1599.1300000000047","{""judgement"":0}","[0]","survey-likert","197","428616","0.0-197.0","z5ryc1do","","","","","","","","1"
"1161.6600000000326","{""confidence"":1}","[0]","survey-likert","198","429779","0.0-198.0","z5ryc1do","","","","","","","",""
"","","","call-function","199","429779","0.0-199.0","z5ryc1do","","","","","","","",""
"null","","","html-keyboard-response","200","431285","0.0-200.0","z5ryc1do","","<span style=""color:Black; font-size:50px;"">Agent A","null","","","","",""
"null","","","video-keyboard-response","201","434395","0.0-201.0","z5ryc1do","","","null","","Agent A","scrambled","STIM_SET_2/1592168.bmp_pp71_L1_V1.0_scrambled_freeview_isoTrue.mp4",""
"null","","","html-keyboard-response","202","435898","0.0-202.0","z5ryc1do","","<span style=""color:Black; font-size:50px;"">Agent B","null","","","","",""
"null","","","video-keyboard-response","203","439013","0.0-203.0","z5ryc1do","","","null","","Agent B","veridical","STIM_SET_2/1592168.bmp_pp71_L1_V1.0_veridical_freeview_isoTrue.mp4",""
"","","","call-function","204","439014","0.0-204.0","z5ryc1do","","","","","","","",""
"1841.289999999979","{""judgement"":0}","[0]","survey-likert","205","440856","0.0-205.0","z5ryc1do","","","","","","","","1"
"1189.7449999999953","{""confidence"":0}","[0]","survey-likert","206","442047","0.0-206.0","z5ryc1do","","","","","","","",""
"","","","call-function","207","442049","0.0-207.0","z5ryc1do","","","","","","","",""
"null","","","html-keyboard-response","208","443550","0.0-208.0","z5ryc1do","","<span style=""color:Black; font-size:50px;"">Agent A","null","","","","",""
"null","","","video-keyboard-response","209","446623","0.0-209.0","z5ryc1do","","","null","","Agent A","veridical","STIM_SET_2/713920.bmp_pp76_L1_V1.0_veridical_freeview_isoTrue.mp4",""
"null","","","html-keyboard-response","210","448126","0.0-210.0","z5ryc1do","","<span style=""color:Black; font-size:50px;"">Agent B","null","","","","",""
"null","","","video-keyboard-response","211","451200","0.0-211.0","z5ryc1do","","","null","","Agent B","scrambled","STIM_SET_2/713920.bmp_pp76_L1_V1.0_scrambled_freeview_isoTrue.mp4",""
"","","","call-function","212","451201","0.0-212.0","z5ryc1do","","","","","","","",""
"3279.219999999972","{""judgement"":0}","[0]","survey-likert","213","454481","0.0-213.0","z5ryc1do","","","","","","","","0"
"1187.4300000000512","{""confidence"":1}","[0]","survey-likert","214","455669","0.0-214.0","z5ryc1do","","","","","","","",""
"","","","call-function","215","455670","0.0-215.0","z5ryc1do","","","","","","","",""
"null","","","html-keyboard-response","216","457172","0.0-216.0","z5ryc1do","","<span style=""color:Black; font-size:50px;"">Agent A","null","","","","",""
"null","","","video-keyboard-response","217","460235","0.0-217.0","z5ryc1do","","","null","","Agent A","scrambled","STIM_SET_2/498398.bmp_pp81_L1_V1.0_scrambled_freeview_isoTrue.mp4",""
"null","","","html-keyboard-response","218","461739","0.0-218.0","z5ryc1do","","<span style=""color:Black; font-size:50px;"">Agent B","null","","","","",""
"null","","","video-keyboard-response","219","464802","0.0-219.0","z5ryc1do","","","null","","Agent B","veridical","STIM_SET_2/498398.bmp_pp81_L1_V1.0_veridical_freeview_isoTrue.mp4",""
"","","","call-function","220","464802","0.0-220.0","z5ryc1do","","","","","","","",""
"3061.384999999951","{""judgement"":0}","[0]","survey-likert","221","467865","0.0-221.0","z5ryc1do","","","","","","","","1"
"1245.859999999986","{""confidence"":0}","[0]","survey-likert","222","469112","0.0-222.0","z5ryc1do","","","","","","","",""
"","","","call-function","223","469112","0.0-223.0","z5ryc1do","","","","","","","",""
"null","","","html-keyboard-response","224","470614","0.0-224.0","z5ryc1do","","<span style=""color:Black; font-size:50px;"">Agent A","null","","","","",""
"null","","","video-keyboard-response","225","473712","0.0-225.0","z5ryc1do","","","null","","Agent A","veridical","STIM_SET_2/713829.bmp_pp60_L3_V1.0_veridical_freeview_isoTrue.mp4",""
"null","","","html-keyboard-response","226","475213","0.0-226.0","z5ryc1do","","<span style=""color:Black; font-size:50px;"">Agent B","null","","","","",""
"null","","","video-keyboard-response","227","478312","0.0-227.0","z5ryc1do","","","null","","Agent B","scrambled","STIM_SET_2/713829.bmp_pp60_L3_V1.0_scrambled_freeview_isoTrue.mp4",""
"","","","call-function","228","478313","0.0-228.0","z5ryc1do","","","","","","","",""
"1710.9799999999814","{""judgement"":1}","[0]","survey-likert","229","480025","0.0-229.0","z5ryc1do","","","","","","","","0"
"1551.6650000000373","{""confidence"":0}","[0]","survey-likert","230","481577","0.0-230.0","z5ryc1do","","","","","","","",""
"","","","call-function","231","481578","0.0-231.0","z5ryc1do","","","","","","","",""
"null","","","html-keyboard-response","232","483081","0.0-232.0","z5ryc1do","","<span style=""color:Black; font-size:50px;"">Agent A","null","","","","",""
"null","","","video-keyboard-response","233","486181","0.0-233.0","z5ryc1do","","","null","","Agent A","scrambled","STIM_SET_2/1160247.bmp_pp54_L2_V1.0_scrambled_freeview_isoTrue.mp4",""
"null","","","html-keyboard-response","234","487687","0.0-234.0","z5ryc1do","","<span style=""color:Black; font-size:50px;"">Agent B","null","","","","",""
"null","","","video-keyboard-response","235","490790","0.0-235.0","z5ryc1do","","","null","","Agent B","veridical","STIM_SET_2/1160247.bmp_pp54_L2_V1.0_veridical_freeview_isoTrue.mp4",""
"","","","call-function","236","490791","0.0-236.0","z5ryc1do","","","","","","","",""
"1783.7449999999953","{""judgement"":0}","[0]","survey-likert","237","492575","0.0-237.0","z5ryc1do","","","","","","","","1"
"1093.9199999999837","{""confidence"":1}","[0]","survey-likert","238","493670","0.0-238.0","z5ryc1do","","","","","","","",""
"","","","call-function","239","493671","0.0-239.0","z5ryc1do","","","","","","","",""
"null","","","html-keyboard-response","240","495172","0.0-240.0","z5ryc1do","","<span style=""color:Black; font-size:50px;"">Agent A","null","","","","",""
"null","","","video-keyboard-response","241","498274","0.0-241.0","z5ryc1do","","","null","","Agent A","veridical","STIM_SET_2/1159329.bmp_pp61_L2_V1.0_veridical_freeview_isoTrue.mp4",""
"null","","","html-keyboard-response","242","499776","0.0-242.0","z5ryc1do","","<span style=""color:Black; font-size:50px;"">Agent B","null","","","","",""
"null","","","video-keyboard-response","243","502878","0.0-243.0","z5ryc1do","","","null","","Agent B","scrambled","STIM_SET_2/1159329.bmp_pp61_L2_V1.0_scrambled_freeview_isoTrue.mp4",""
"","","","call-function","244","502879","0.0-244.0","z5ryc1do","","","","","","","",""
"1487.8300000000163","{""judgement"":1}","[0]","survey-likert","245","504368","0.0-245.0","z5ryc1do","","","","","","","","0"
"1255.765000000014","{""confidence"":0}","[0]","survey-likert","246","505624","0.0-246.0","z5ryc1do","","","","","","","",""
"","","","call-function","247","505625","0.0-247.0","z5ryc1do","","","","","","","",""
"null","","","html-keyboard-response","248","507130","0.0-248.0","z5ryc1do","","<span style=""color:Black; font-size:50px;"">Agent A","null","","","","",""
"null","","","video-keyboard-response","249","510204","0.0-249.0","z5ryc1do","","","null","","Agent A","veridical","STIM_SET_2/1592747.bmp_pp53_L2_V1.0_veridical_freeview_isoTrue.mp4",""
"null","","","html-keyboard-response","250","511706","0.0-250.0","z5ryc1do","","<span style=""color:Black; font-size:50px;"">Agent B","null","","","","",""
"null","","","video-keyboard-response","251","514781","0.0-251.0","z5ryc1do","","","null","","Agent B","scrambled","STIM_SET_2/1592747.bmp_pp53_L2_V1.0_scrambled_freeview_isoTrue.mp4",""
"","","","call-function","252","514781","0.0-252.0","z5ryc1do","","","","","","","",""
"1646.25","{""judgement"":0}","[0]","survey-likert","253","516428","0.0-253.0","z5ryc1do","","","","","","","","0"
"4390.065000000002","{""confidence"":1}","[0]","survey-likert","254","520819","0.0-254.0","z5ryc1do","","","","","","","",""
"2190.4249999999884","","","instructions","255","523010","0.0-255.0","z5ryc1do","[{""page_index"":0,""viewing_time"":1594.195000000007},{""page_index"":1,""viewing_time"":324.1149999999907},{""page_index"":2,""viewing_time"":271.89000000001397}]","","","","","","",""
"1087.3549999999814","","","instructions","256","524098","0.0-256.0","z5ryc1do","[{""page_index"":0,""viewing_time"":271.195000000007},{""page_index"":1,""viewing_time"":405.0650000000023},{""page_index"":2,""viewing_time"":410.9899999999907}]","","","","","","",""
"","","","call-function","257","524099","0.0-257.0","z5ryc1do","","","","","","","",""
"null","","","html-keyboard-response","258","525601","0.0-258.0","z5ryc1do","","<span style=""color:Black; font-size:50px;"">Agent A","null","","","","",""
"null","","","video-keyboard-response","259","528667","0.0-259.0","z5ryc1do","","","null","","Agent A","scrambled","STIM_SET_2/1592150.bmp_pp77_L3_V1.0_scrambled_freeview_isoTrue.mp4",""
"null","","","html-keyboard-response","260","530171","0.0-260.0","z5ryc1do","","<span style=""color:Black; font-size:50px;"">Agent B","null","","","","",""
"null","","","video-keyboard-response","261","533238","0.0-261.0","z5ryc1do","","","null","","Agent B","veridical","STIM_SET_2/1592150.bmp_pp77_L3_V1.0_veridical_freeview_isoTrue.mp4",""
"","","","call-function","262","533239","0.0-262.0","z5ryc1do","","","","","","","",""
"1214.9500000000698","{""judgement"":0}","[0]","survey-likert","263","534455","0.0-263.0","z5ryc1do","","","","","","","","1"
"1613.8850000000093","{""confidence"":0}","[0]","survey-likert","264","536069","0.0-264.0","z5ryc1do","","","","","","","",""
"","","","call-function","265","536070","0.0-265.0","z5ryc1do","","","","","","","",""
"null","","","html-keyboard-response","266","537572","0.0-266.0","z5ryc1do","","<span style=""color:Black; font-size:50px;"">Agent A","null","","","","",""
"null","","","video-keyboard-response","267","540672","0.0-267.0","z5ryc1do","","","null","","Agent A","scrambled","STIM_SET_2/1591920.bmp_pp97_L3_V1_scrambled_freeview_isoTrue.mp4",""
"null","","","html-keyboard-response","268","542176","0.0-268.0","z5ryc1do","","<span style=""color:Black; font-size:50px;"">Agent B","null","","","","",""
"null","","","video-keyboard-response","269","545273","0.0-269.0","z5ryc1do","","","null","","Agent B","veridical","STIM_SET_2/1591920.bmp_pp97_L3_V1_veridical_freeview_isoTrue.mp4",""
"","","","call-function","270","545274","0.0-270.0","z5ryc1do","","","","","","","",""
"1805.6199999999953","{""judgement"":1}","[0]","survey-likert","271","547081","0.0-271.0","z5ryc1do","","","","","","","","1"
"1334.1399999998976","{""confidence"":1}","[0]","survey-likert","272","548416","0.0-272.0","z5ryc1do","","","","","","","",""
"","","","call-function","273","548417","0.0-273.0","z5ryc1do","","","","","","","",""
"null","","","html-keyboard-response","274","549920","0.0-274.0","z5ryc1do","","<span style=""color:Black; font-size:50px;"">Agent A","null","","","","",""
"null","","","video-keyboard-response","275","553018","0.0-275.0","z5ryc1do","","","null","","Agent A","veridical","STIM_SET_2/1159508.bmp_pp151_L1_V1.0_veridical_freeview_isoTrue.mp4",""
"null","","","html-keyboard-response","276","554524","0.0-276.0","z5ryc1do","","<span style=""color:Black; font-size:50px;"">Agent B","null","","","","",""
"null","","","video-keyboard-response","277","557624","0.0-277.0","z5ryc1do","","","null","","Agent B","scrambled","STIM_SET_2/1159508.bmp_pp151_L1_V1.0_scrambled_freeview_isoTrue.mp4",""
"","","","call-function","278","557624","0.0-278.0","z5ryc1do","","","","","","","",""
"1783.295000000042","{""judgement"":0}","[0]","survey-likert","279","559408","0.0-279.0","z5ryc1do","","","","","","","","0"
"2774.725000000093","{""confidence"":1}","[0]","survey-likert","280","562184","0.0-280.0","z5ryc1do","","","","","","","",""
"","","","call-function","281","562185","0.0-281.0","z5ryc1do","","","","","","","",""
"null","","","html-keyboard-response","282","563688","0.0-282.0","z5ryc1do","","<span style=""color:Black; font-size:50px;"">Agent A","null","","","","",""
"null","","","video-keyboard-response","283","566792","0.0-283.0","z5ryc1do","","","null","","Agent A","veridical","STIM_SET_2/498258.bmp_pp51_L1_V1.0_veridical_freeview_isoTrue.mp4",""
"null","","","html-keyboard-response","284","568298","0.0-284.0","z5ryc1do","","<span style=""color:Black; font-size:50px;"">Agent B","null","","","","",""
"null","","","video-keyboard-response","285","571402","0.0-285.0","z5ryc1do","","","null","","Agent B","scrambled","STIM_SET_2/498258.bmp_pp51_L1_V1.0_scrambled_freeview_isoTrue.mp4",""
"","","","call-function","286","571403","0.0-286.0","z5ryc1do","","","","","","","",""
"1657.2699999999022","{""judgement"":0}","[0]","survey-likert","287","573062","0.0-287.0","z5ryc1do","","","","","","","","0"
"1342.7700000000186","{""confidence"":0}","[0]","survey-likert","288","574406","0.0-288.0","z5ryc1do","","","","","","","",""
"","","","call-function","289","574407","0.0-289.0","z5ryc1do","","","","","","","",""
"null","","","html-keyboard-response","290","575910","0.0-290.0","z5ryc1do","","<span style=""color:Black; font-size:50px;"">Agent A","null","","","","",""
"null","","","video-keyboard-response","291","578987","0.0-291.0","z5ryc1do","","","null","","Agent A","veridical","STIM_SET_2/285946.bmp_pp79_L2_V1.0_veridical_freeview_isoTrue.mp4",""
"null","","","html-keyboard-response","292","580492","0.0-292.0","z5ryc1do","","<span style=""color:Black; font-size:50px;"">Agent B","null","","","","",""
"null","","","video-keyboard-response","293","583570","0.0-293.0","z5ryc1do","","","null","","Agent B","scrambled","STIM_SET_2/285946.bmp_pp79_L2_V1.0_scrambled_freeview_isoTrue.mp4",""
"","","","call-function","294","583570","0.0-294.0","z5ryc1do","","","","","","","",""
"1728.6949999999488","{""judgement"":0}","[0]","survey-likert","295","585300","0.0-295.0","z5ryc1do","","","","","","","","0"
"1093.7149999999674","{""confidence"":1}","[0]","survey-likert","296","586395","0.0-296.0","z5ryc1do","","","","","","","",""
"","","","call-function","297","586395","0.0-297.0","z5ryc1do","","","","","","","",""
"null","","","html-keyboard-response","298","587899","0.0-298.0","z5ryc1do","","<span style=""color:Black; font-size:50px;"">Agent A","null","","","","",""
"null","","","video-keyboard-response","299","590976","0.0-299.0","z5ryc1do","","","null","","Agent A","veridical","STIM_SET_2/1592038.bmp_pp79_L2_V1.0_veridical_freeview_isoTrue.mp4",""
"null","","","html-keyboard-response","300","592479","0.0-300.0","z5ryc1do","","<span style=""color:Black; font-size:50px;"">Agent B","null","","","","",""
"null","","","video-keyboard-response","301","595557","0.0-301.0","z5ryc1do","","","null","","Agent B","scrambled","STIM_SET_2/1592038.bmp_pp79_L2_V1.0_scrambled_freeview_isoTrue.mp4",""
"","","","call-function","302","595557","0.0-302.0","z5ryc1do","","","","","","","",""
"1509.0999999999767","{""judgement"":0}","[0]","survey-likert","303","597067","0.0-303.0","z5ryc1do","","","","","","","","0"
"1494.6300000000047","{""confidence"":0}","[0]","survey-likert","304","598563","0.0-304.0","z5ryc1do","","","","","","","",""
"","","","call-function","305","598563","0.0-305.0","z5ryc1do","","","","","","","",""
"null","","","html-keyboard-response","306","600068","0.0-306.0","z5ryc1do","","<span style=""color:Black; font-size:50px;"">Agent A","null","","","","",""
"null","","","video-keyboard-response","307","603169","0.0-307.0","z5ryc1do","","","null","","Agent A","scrambled","STIM_SET_2/1592129.bmp_pp153_L3_V1.0_scrambled_freeview_isoTrue.mp4",""
"null","","","html-keyboard-response","308","604672","0.0-308.0","z5ryc1do","","<span style=""color:Black; font-size:50px;"">Agent B","null","","","","",""
"null","","","video-keyboard-response","309","607770","0.0-309.0","z5ryc1do","","","null","","Agent B","veridical","STIM_SET_2/1592129.bmp_pp153_L3_V1.0_veridical_freeview_isoTrue.mp4",""
"","","","call-function","310","607771","0.0-310.0","z5ryc1do","","","","","","","",""
"1578.1049999999814","{""judgement"":1}","[0]","survey-likert","311","609350","0.0-311.0","z5ryc1do","","","","","","","","1"
"1588.5350000000326","{""confidence"":0}","[0]","survey-likert","312","610939","0.0-312.0","z5ryc1do","","","","","","","",""
"","","","call-function","313","610940","0.0-313.0","z5ryc1do","","","","","","","",""
"null","","","html-keyboard-response","314","612444","0.0-314.0","z5ryc1do","","<span style=""color:Black; font-size:50px;"">Agent A","null","","","","",""
"null","","","video-keyboard-response","315","615551","0.0-315.0","z5ryc1do","","","null","","Agent A","scrambled","STIM_SET_2/1592350.bmp_pp55_L3_V1.0_scrambled_freeview_isoTrue.mp4",""
"null","","","html-keyboard-response","316","617055","0.0-316.0","z5ryc1do","","<span style=""color:Black; font-size:50px;"">Agent B","null","","","","",""
"null","","","video-keyboard-response","317","620154","0.0-317.0","z5ryc1do","","","null","","Agent B","veridical","STIM_SET_2/1592350.bmp_pp55_L3_V1.0_veridical_freeview_isoTrue.mp4",""
"","","","call-function","318","620155","0.0-318.0","z5ryc1do","","","","","","","",""
"1295.7849999999162","{""judgement"":0}","[0]","survey-likert","319","621451","0.0-319.0","z5ryc1do","","","","","","","","1"
"1168.0600000000559","{""confidence"":1}","[0]","survey-likert","320","622621","0.0-320.0","z5ryc1do","","","","","","","",""
"","","","call-function","321","622621","0.0-321.0","z5ryc1do","","","","","","","",""
"null","","","html-keyboard-response","322","624122","0.0-322.0","z5ryc1do","","<span style=""color:Black; font-size:50px;"">Agent A","null","","","","",""
"null","","","video-keyboard-response","323","627225","0.0-323.0","z5ryc1do","","","null","","Agent A","veridical","STIM_SET_2/713788.bmp_pp52_L1_V1.0_veridical_freeview_isoTrue.mp4",""
"null","","","html-keyboard-response","324","628728","0.0-324.0","z5ryc1do","","<span style=""color:Black; font-size:50px;"">Agent B","null","","","","",""
"null","","","video-keyboard-response","325","631832","0.0-325.0","z5ryc1do","","","null","","Agent B","scrambled","STIM_SET_2/713788.bmp_pp52_L1_V1.0_scrambled_freeview_isoTrue.mp4",""
"","","","call-function","326","631832","0.0-326.0","z5ryc1do","","","","","","","",""
"2242.5100000000093","{""judgement"":0}","[0]","survey-likert","327","634076","0.0-327.0","z5ryc1do","","","","","","","","0"
"1150.079999999958","{""confidence"":1}","[0]","survey-likert","328","635227","0.0-328.0","z5ryc1do","","","","","","","",""
"","","","call-function","329","635228","0.0-329.0","z5ryc1do","","","","","","","",""
"null","","","html-keyboard-response","330","636731","0.0-330.0","z5ryc1do","","<span style=""color:Black; font-size:50px;"">Agent A","null","","","","",""
"null","","","video-keyboard-response","331","639831","0.0-331.0","z5ryc1do","","","null","","Agent A","veridical","STIM_SET_2/713858.bmp_pp57_L1_V1.0_veridical_freeview_isoTrue.mp4",""
"null","","","html-keyboard-response","332","641336","0.0-332.0","z5ryc1do","","<span style=""color:Black; font-size:50px;"">Agent B","null","","","","",""
"null","","","video-keyboard-response","333","644412","0.0-333.0","z5ryc1do","","","null","","Agent B","scrambled","STIM_SET_2/713858.bmp_pp57_L1_V1.0_scrambled_freeview_isoTrue.mp4",""
"","","","call-function","334","644413","0.0-334.0","z5ryc1do","","","","","","","",""
"1926.030000000028","{""judgement"":0}","[0]","survey-likert","335","646340","0.0-335.0","z5ryc1do","","","","","","","","0"
"1219.859999999986","{""confidence"":0}","[0]","survey-likert","336","647561","0.0-336.0","z5ryc1do","","","","","","","",""
"1537.625","","","instructions","337","649099","0.0-337.0","z5ryc1do","[{""page_index"":0,""viewing_time"":1043.3800000000047},{""page_index"":1,""viewing_time"":257.75},{""page_index"":2,""viewing_time"":236.2699999999022}]","","","","","","",""
"698.5749999999534","","","instructions","338","649798","0.0-338.0","z5ryc1do","[{""page_index"":0,""viewing_time"":240.5450000000419},{""page_index"":1,""viewing_time"":230.23499999998603},{""page_index"":2,""viewing_time"":227.6799999999348}]","","","","","","",""
"","","","call-function","339","649798","0.0-339.0","z5ryc1do","","","","","","","",""
"null","","","html-keyboard-response","340","651303","0.0-340.0","z5ryc1do","","<span style=""color:Black; font-size:50px;"">Agent A","null","","","","",""
"null","","","video-keyboard-response","341","654381","0.0-341.0","z5ryc1do","","","null","","Agent A","veridical","STIM_SET_2/498372.bmp_pp95_L2_V1_veridical_freeview_isoTrue.mp4",""
"null","","","html-keyboard-response","342","655887","0.0-342.0","z5ryc1do","","<span style=""color:Black; font-size:50px;"">Agent B","null","","","","",""
"null","","","video-keyboard-response","343","658966","0.0-343.0","z5ryc1do","","","null","","Agent B","scrambled","STIM_SET_2/498372.bmp_pp95_L2_V1_scrambled_freeview_isoTrue.mp4",""
"","","","call-function","344","658966","0.0-344.0","z5ryc1do","","","","","","","",""
"2433.2600000000093","{""judgement"":0}","[0]","survey-likert","345","661401","0.0-345.0","z5ryc1do","","","","","","","","0"
"2134.9150000000373","{""confidence"":1}","[0]","survey-likert","346","663537","0.0-346.0","z5ryc1do","","","","","","","",""
"","","","call-function","347","663537","0.0-347.0","z5ryc1do","","","","","","","",""
"null","","","html-keyboard-response","348","665042","0.0-348.0","z5ryc1do","","<span style=""color:Black; font-size:50px;"">Agent A","null","","","","",""
"null","","","video-keyboard-response","349","668110","0.0-349.0","z5ryc1do","","","null","","Agent A","scrambled","STIM_SET_2/713689.bmp_pp153_L3_V1.0_scrambled_freeview_isoTrue.mp4",""
"null","","","html-keyboard-response","350","669612","0.0-350.0","z5ryc1do","","<span style=""color:Black; font-size:50px;"">Agent B","null","","","","",""
"null","","","video-keyboard-response","351","672709","0.0-351.0","z5ryc1do","","","null","","Agent B","veridical","STIM_SET_2/713689.bmp_pp153_L3_V1.0_veridical_freeview_isoTrue.mp4",""
"","","","call-function","352","672710","0.0-352.0","z5ryc1do","","","","","","","",""
"2009.1499999999069","{""judgement"":0}","[0]","survey-likert","353","674720","0.0-353.0","z5ryc1do","","","","","","","","1"
"1423.9949999999953","{""confidence"":1}","[0]","survey-likert","354","676145","0.0-354.0","z5ryc1do","","","","","","","",""
"","","","call-function","355","676145","0.0-355.0","z5ryc1do","","","","","","","",""
"null","","","html-keyboard-response","356","677649","0.0-356.0","z5ryc1do","","<span style=""color:Black; font-size:50px;"">Agent A","null","","","","",""
"null","","","video-keyboard-response","357","680708","0.0-357.0","z5ryc1do","","","null","","Agent A","scrambled","STIM_SET_2/1592017.bmp_pp154_L1_V1.0_scrambled_freeview_isoTrue.mp4",""
"null","","","html-keyboard-response","358","682213","0.0-358.0","z5ryc1do","","<span style=""color:Black; font-size:50px;"">Agent B","null","","","","",""
"null","","","video-keyboard-response","359","685313","0.0-359.0","z5ryc1do","","","null","","Agent B","veridical","STIM_SET_2/1592017.bmp_pp154_L1_V1.0_veridical_freeview_isoTrue.mp4",""
"","","","call-function","360","685313","0.0-360.0","z5ryc1do","","","","","","","",""
"1696.7600000000093","{""judgement"":1}","[0]","survey-likert","361","687011","0.0-361.0","z5ryc1do","","","","","","","","1"
"1905.0699999999488","{""confidence"":1}","[0]","survey-likert","362","688917","0.0-362.0","z5ryc1do","","","","","","","",""
"","","","call-function","363","688917","0.0-363.0","z5ryc1do","","","","","","","",""
"null","","","html-keyboard-response","364","690419","0.0-364.0","z5ryc1do","","<span style=""color:Black; font-size:50px;"">Agent A","null","","","","",""
"null","","","video-keyboard-response","365","693530","0.0-365.0","z5ryc1do","","","null","","Agent A","scrambled","STIM_SET_2/1591781.bmp_pp63_L1_V1.0_scrambled_freeview_isoTrue.mp4",""
"null","","","html-keyboard-response","366","695033","0.0-366.0","z5ryc1do","","<span style=""color:Black; font-size:50px;"">Agent B","null","","","","",""
"null","","","video-keyboard-response","367","698109","0.0-367.0","z5ryc1do","","","null","","Agent B","veridical","STIM_SET_2/1591781.bmp_pp63_L1_V1.0_veridical_freeview_isoTrue.mp4",""
"","","","call-function","368","698110","0.0-368.0","z5ryc1do","","","","","","","",""
"1706.8999999999069","{""judgement"":1}","[0]","survey-likert","369","699818","0.0-369.0","z5ryc1do","","","","","","","","1"
"1667.795000000042","{""confidence"":1}","[0]","survey-likert","370","701488","0.0-370.0","z5ryc1do","","","","","","","",""
"","","","call-function","371","701489","0.0-371.0","z5ryc1do","","","","","","","",""
"null","","","html-keyboard-response","372","702992","0.0-372.0","z5ryc1do","","<span style=""color:Black; font-size:50px;"">Agent A","null","","","","",""
"null","","","video-keyboard-response","373","706063","0.0-373.0","z5ryc1do","","","null","","Agent A","scrambled","STIM_SET_2/1592530.bmp_pp75_L1_V1.0_scrambled_freeview_isoTrue.mp4",""
"null","","","html-keyboard-response","374","707569","0.0-374.0","z5ryc1do","","<span style=""color:Black; font-size:50px;"">Agent B","null","","","","",""
"null","","","video-keyboard-response","375","710645","0.0-375.0","z5ryc1do","","","null","","Agent B","veridical","STIM_SET_2/1592530.bmp_pp75_L1_V1.0_veridical_freeview_isoTrue.mp4",""
"","","","call-function","376","710646","0.0-376.0","z5ryc1do","","","","","","","",""
"2514.3649999999907","{""judgement"":1}","[0]","survey-likert","377","713161","0.0-377.0","z5ryc1do","","","","","","","","1"
"1095.134999999893","{""confidence"":1}","[0]","survey-likert","378","714257","0.0-378.0","z5ryc1do","","","","","","","",""
"","","","call-function","379","714258","0.0-379.0","z5ryc1do","","","","","","","",""
"null","","","html-keyboard-response","380","715760","0.0-380.0","z5ryc1do","","<span style=""color:Black; font-size:50px;"">Agent A","null","","","","",""
"null","","","video-keyboard-response","381","718835","0.0-381.0","z5ryc1do","","","null","","Agent A","veridical","STIM_SET_2/498025.bmp_pp81_L1_V1.0_veridical_freeview_isoTrue.mp4",""
"null","","","html-keyboard-response","382","720339","0.0-382.0","z5ryc1do","","<span style=""color:Black; font-size:50px;"">Agent B","null","","","","",""
"null","","","video-keyboard-response","383","723415","0.0-383.0","z5ryc1do","","","null","","Agent B","scrambled","STIM_SET_2/498025.bmp_pp81_L1_V1.0_scrambled_freeview_isoTrue.mp4",""
"","","","call-function","384","723415","0.0-384.0","z5ryc1do","","","","","","","",""
"1490.8800000000047","{""judgement"":1}","[0]","survey-likert","385","724907","0.0-385.0","z5ryc1do","","","","","","","","0"
"1391.030000000028","{""confidence"":1}","[0]","survey-likert","386","726299","0.0-386.0","z5ryc1do","","","","","","","",""
"","","","call-function","387","726299","0.0-387.0","z5ryc1do","","","","","","","",""
"null","","","html-keyboard-response","388","727806","0.0-388.0","z5ryc1do","","<span style=""color:Black; font-size:50px;"">Agent A","null","","","","",""
"null","","","video-keyboard-response","389","730903","0.0-389.0","z5ryc1do","","","null","","Agent A","veridical","STIM_SET_2/1160204.bmp_pp54_L2_V1.0_veridical_freeview_isoTrue.mp4",""
"null","","","html-keyboard-response","390","732406","0.0-390.0","z5ryc1do","","<span style=""color:Black; font-size:50px;"">Agent B","null","","","","",""
"null","","","video-keyboard-response","391","735501","0.0-391.0","z5ryc1do","","","null","","Agent B","scrambled","STIM_SET_2/1160204.bmp_pp54_L2_V1.0_scrambled_freeview_isoTrue.mp4",""
"","","","call-function","392","735501","0.0-392.0","z5ryc1do","","","","","","","",""
"2054.4649999999674","{""judgement"":1}","[0]","survey-likert","393","737557","0.0-393.0","z5ryc1do","","","","","","","","0"
"1386.5250000000233","{""confidence"":1}","[0]","survey-likert","394","738944","0.0-394.0","z5ryc1do","","","","","","","",""
"","","","call-function","395","738945","0.0-395.0","z5ryc1do","","","","","","","",""
"null","","","html-keyboard-response","396","740448","0.0-396.0","z5ryc1do","","<span style=""color:Black; font-size:50px;"">Agent A","null","","","","",""
"null","","","video-keyboard-response","397","743548","0.0-397.0","z5ryc1do","","","null","","Agent A","scrambled","STIM_SET_2/1592305.bmp_pp65_L3_V1.0_scrambled_freeview_isoTrue.mp4",""
"null","","","html-keyboard-response","398","745052","0.0-398.0","z5ryc1do","","<span style=""color:Black; font-size:50px;"">Agent B","null","","","","",""
"null","","","video-keyboard-response","399","748154","0.0-399.0","z5ryc1do","","","null","","Agent B","veridical","STIM_SET_2/1592305.bmp_pp65_L3_V1.0_veridical_freeview_isoTrue.mp4",""
"","","","call-function","400","748155","0.0-400.0","z5ryc1do","","","","","","","",""
"2780.305000000051","{""judgement"":0}","[0]","survey-likert","401","750936","0.0-401.0","z5ryc1do","","","","","","","","1"
"1003.5449999999255","{""confidence"":1}","[0]","survey-likert","402","751941","0.0-402.0","z5ryc1do","","","","","","","",""
"","","","call-function","403","751941","0.0-403.0","z5ryc1do","","","","","","","",""
"null","","","html-keyboard-response","404","753444","0.0-404.0","z5ryc1do","","<span style=""color:Black; font-size:50px;"">Agent A","null","","","","",""
"null","","","video-keyboard-response","405","756547","0.0-405.0","z5ryc1do","","","null","","Agent A","scrambled","STIM_SET_2/713381.bmp_pp82_L2_V1.0_scrambled_freeview_isoTrue.mp4",""
"null","","","html-keyboard-response","406","758054","0.0-406.0","z5ryc1do","","<span style=""color:Black; font-size:50px;"">Agent B","null","","","","",""
"null","","","video-keyboard-response","407","761159","0.0-407.0","z5ryc1do","","","null","","Agent B","veridical","STIM_SET_2/713381.bmp_pp82_L2_V1.0_veridical_freeview_isoTrue.mp4",""
"","","","call-function","408","761160","0.0-408.0","z5ryc1do","","","","","","","",""
"2322.5149999998976","{""judgement"":0}","[0]","survey-likert","409","763484","0.0-409.0","z5ryc1do","","","","","","","","1"
"1215.3800000000047","{""confidence"":1}","[0]","survey-likert","410","764700","0.0-410.0","z5ryc1do","","","","","","","",""
"","","","call-function","411","764701","0.0-411.0","z5ryc1do","","","","","","","",""
"null","","","html-keyboard-response","412","766203","0.0-412.0","z5ryc1do","","<span style=""color:Black; font-size:50px;"">Agent A","null","","","","",""
"null","","","video-keyboard-response","413","769267","0.0-413.0","z5ryc1do","","","null","","Agent A","scrambled","STIM_SET_2/1592044.bmp_pp94_L2_V1.0_scrambled_freeview_isoTrue.mp4",""
"null","","","html-keyboard-response","414","770769","0.0-414.0","z5ryc1do","","<span style=""color:Black; font-size:50px;"">Agent B","null","","","","",""
"null","","","video-keyboard-response","415","773835","0.0-415.0","z5ryc1do","","","null","","Agent B","veridical","STIM_SET_2/1592044.bmp_pp94_L2_V1.0_veridical_freeview_isoTrue.mp4",""
"","","","call-function","416","773835","0.0-416.0","z5ryc1do","","","","","","","",""
"1467.155000000028","{""judgement"":0}","[0]","survey-likert","417","775303","0.0-417.0","z5ryc1do","","","","","","","","1"
"948.9300000000512","{""confidence"":1}","[0]","survey-likert","418","776253","0.0-418.0","z5ryc1do","","","","","","","",""
"1458.3150000000605","","","instructions","419","777712","0.0-419.0","z5ryc1do","[{""page_index"":0,""viewing_time"":1016.8800000000047},{""page_index"":1,""viewing_time"":242.22999999998137},{""page_index"":2,""viewing_time"":198.96999999997206}]","","","","","","",""
"596.5450000000419","","","instructions","420","778309","0.0-420.0","z5ryc1do","[{""page_index"":0,""viewing_time"":175.43000000005122},{""page_index"":1,""viewing_time"":212.03999999992084},{""page_index"":2,""viewing_time"":208.9550000000745}]","","","","","","",""
"","","","call-function","421","778309","0.0-421.0","z5ryc1do","","","","","","","",""
"null","","","html-keyboard-response","422","779811","0.0-422.0","z5ryc1do","","<span style=""color:Black; font-size:50px;"">Agent A","null","","","","",""
"null","","","video-keyboard-response","423","782877","0.0-423.0","z5ryc1do","","","null","","Agent A","veridical","STIM_SET_2/1592567.bmp_pp70_L2_V1.0_veridical_freeview_isoTrue.mp4",""
"null","","","html-keyboard-response","424","784379","0.0-424.0","z5ryc1do","","<span style=""color:Black; font-size:50px;"">Agent B","null","","","","",""
"null","","","video-keyboard-response","425","787446","0.0-425.0","z5ryc1do","","","null","","Agent B","scrambled","STIM_SET_2/1592567.bmp_pp70_L2_V1.0_scrambled_freeview_isoTrue.mp4",""
"","","","call-function","426","787447","0.0-426.0","z5ryc1do","","","","","","","",""
"1403.4299999999348","{""judgement"":0}","[0]","survey-likert","427","788851","0.0-427.0","z5ryc1do","","","","","","","","0"
"961.9750000000931","{""confidence"":1}","[0]","survey-likert","428","789814","0.0-428.0","z5ryc1do","","","","","","","",""
"","","","call-function","429","789815","0.0-429.0","z5ryc1do","","","","","","","",""
"null","","","html-keyboard-response","430","791321","0.0-430.0","z5ryc1do","","<span style=""color:Black; font-size:50px;"">Agent A","null","","","","",""
"null","","","video-keyboard-response","431","794427","0.0-431.0","z5ryc1do","","","null","","Agent A","scrambled","STIM_SET_2/107909.bmp_pp95_L2_V1.0_scrambled_freeview_isoTrue.mp4",""
"null","","","html-keyboard-response","432","795934","0.0-432.0","z5ryc1do","","<span style=""color:Black; font-size:50px;"">Agent B","null","","","","",""
"null","","","video-keyboard-response","433","799044","0.0-433.0","z5ryc1do","","","null","","Agent B","veridical","STIM_SET_2/107909.bmp_pp95_L2_V1.0_veridical_freeview_isoTrue.mp4",""
"","","","call-function","434","799045","0.0-434.0","z5ryc1do","","","","","","","",""
"1366.5899999999674","{""judgement"":0}","[0]","survey-likert","435","800412","0.0-435.0","z5ryc1do","","","","","","","","1"
"878.875","{""confidence"":1}","[0]","survey-likert","436","801292","0.0-436.0","z5ryc1do","","","","","","","",""
"","","","call-function","437","801293","0.0-437.0","z5ryc1do","","","","","","","",""
"null","","","html-keyboard-response","438","802796","0.0-438.0","z5ryc1do","","<span style=""color:Black; font-size:50px;"">Agent A","null","","","","",""
"null","","","video-keyboard-response","439","805901","0.0-439.0","z5ryc1do","","","null","","Agent A","scrambled","STIM_SET_2/1592298.bmp_pp56_L3_V1.0_scrambled_freeview_isoTrue.mp4",""
"null","","","html-keyboard-response","440","807406","0.0-440.0","z5ryc1do","","<span style=""color:Black; font-size:50px;"">Agent B","null","","","","",""
"null","","","video-keyboard-response","441","810517","0.0-441.0","z5ryc1do","","","null","","Agent B","veridical","STIM_SET_2/1592298.bmp_pp56_L3_V1.0_veridical_freeview_isoTrue.mp4",""
"","","","call-function","442","810517","0.0-442.0","z5ryc1do","","","","","","","",""
"1440.8049999999348","{""judgement"":1}","[0]","survey-likert","443","811959","0.0-443.0","z5ryc1do","","","","","","","","1"
"2516.2050000000745","{""confidence"":1}","[0]","survey-likert","444","814476","0.0-444.0","z5ryc1do","","","","","","","",""
"","","","call-function","445","814477","0.0-445.0","z5ryc1do","","","","","","","",""
"null","","","html-keyboard-response","446","815978","0.0-446.0","z5ryc1do","","<span style=""color:Black; font-size:50px;"">Agent A","null","","","","",""
"null","","","video-keyboard-response","447","819072","0.0-447.0","z5ryc1do","","","null","","Agent A","veridical","STIM_SET_2/286034.bmp_pp69_L3_V1.0_veridical_freeview_isoTrue.mp4",""
"null","","","html-keyboard-response","448","820576","0.0-448.0","z5ryc1do","","<span style=""color:Black; font-size:50px;"">Agent B","null","","","","",""
"null","","","video-keyboard-response","449","823668","0.0-449.0","z5ryc1do","","","null","","Agent B","scrambled","STIM_SET_2/286034.bmp_pp69_L3_V1.0_scrambled_freeview_isoTrue.mp4",""
"","","","call-function","450","823668","0.0-450.0","z5ryc1do","","","","","","","",""
"1770.125","{""judgement"":0}","[0]","survey-likert","451","825439","0.0-451.0","z5ryc1do","","","","","","","","0"
"1546.920000000042","{""confidence"":0}","[0]","survey-likert","452","826987","0.0-452.0","z5ryc1do","","","","","","","",""
"","","","call-function","453","826988","0.0-453.0","z5ryc1do","","","","","","","",""
"null","","","html-keyboard-response","454","828494","0.0-454.0","z5ryc1do","","<span style=""color:Black; font-size:50px;"">Agent A","null","","","","",""
"null","","","video-keyboard-response","455","831559","0.0-455.0","z5ryc1do","","","null","","Agent A","scrambled","STIM_SET_2/1592289.bmp_pp92_L3_V1.0_scrambled_freeview_isoTrue.mp4",""
"null","","","html-keyboard-response","456","833065","0.0-456.0","z5ryc1do","","<span style=""color:Black; font-size:50px;"">Agent B","null","","","","",""
"null","","","video-keyboard-response","457","836139","0.0-457.0","z5ryc1do","","","null","","Agent B","veridical","STIM_SET_2/1592289.bmp_pp92_L3_V1.0_veridical_freeview_isoTrue.mp4",""
"","","","call-function","458","836140","0.0-458.0","z5ryc1do","","","","","","","",""
"2388.5749999999534","{""judgement"":1}","[0]","survey-likert","459","838530","0.0-459.0","z5ryc1do","","","","","","","","1"
"1945.5550000000512","{""confidence"":0}","[0]","survey-likert","460","840478","0.0-460.0","z5ryc1do","","","","","","","",""
"","","","call-function","461","840479","0.0-461.0","z5ryc1do","","","","","","","",""
"null","","","html-keyboard-response","462","841981","0.0-462.0","z5ryc1do","","<span style=""color:Black; font-size:50px;"">Agent A","null","","","","",""
"null","","","video-keyboard-response","463","845050","0.0-463.0","z5ryc1do","","","null","","Agent A","scrambled","STIM_SET_2/1591975.bmp_pp88_L2_V1.0_scrambled_freeview_isoTrue.mp4",""
"null","","","html-keyboard-response","464","846554","0.0-464.0","z5ryc1do","","<span style=""color:Black; font-size:50px;"">Agent B","null","","","","",""
"null","","","video-keyboard-response","465","849622","0.0-465.0","z5ryc1do","","","null","","Agent B","veridical","STIM_SET_2/1591975.bmp_pp88_L2_V1.0_veridical_freeview_isoTrue.mp4",""
"","","","call-function","466","849622","0.0-466.0","z5ryc1do","","","","","","","",""
"1863.2799999999115","{""judgement"":1}","[0]","survey-likert","467","851487","0.0-467.0","z5ryc1do","","","","","","","","1"
"1290.704999999958","{""confidence"":0}","[0]","survey-likert","468","852779","0.0-468.0","z5ryc1do","","","","","","","",""
"","","","call-function","469","852779","0.0-469.0","z5ryc1do","","","","","","","",""
"null","","","html-keyboard-response","470","854284","0.0-470.0","z5ryc1do","","<span style=""color:Black; font-size:50px;"">Agent A","null","","","","",""
"null","","","video-keyboard-response","471","857352","0.0-471.0","z5ryc1do","","","null","","Agent A","scrambled","STIM_SET_2/1592951.bmp_pp80_L3_V1.0_scrambled_freeview_isoTrue.mp4",""
"null","","","html-keyboard-response","472","858854","0.0-472.0","z5ryc1do","","<span style=""color:Black; font-size:50px;"">Agent B","null","","","","",""
"null","","","video-keyboard-response","473","861920","0.0-473.0","z5ryc1do","","","null","","Agent B","veridical","STIM_SET_2/1592951.bmp_pp80_L3_V1.0_veridical_freeview_isoTrue.mp4",""
"","","","call-function","474","861921","0.0-474.0","z5ryc1do","","","","","","","",""
"1607.5250000000233","{""judgement"":1}","[0]","survey-likert","475","863529","0.0-475.0","z5ryc1do","","","","","","","","1"
"1428.1500000000233","{""confidence"":0}","[0]","survey-likert","476","864959","0.0-476.0","z5ryc1do","","","","","","","",""
"","","","call-function","477","864959","0.0-477.0","z5ryc1do","","","","","","","",""
"null","","","html-keyboard-response","478","866462","0.0-478.0","z5ryc1do","","<span style=""color:Black; font-size:50px;"">Agent A","null","","","","",""
"null","","","video-keyboard-response","479","869572","0.0-479.0","z5ryc1do","","","null","","Agent A","scrambled","STIM_SET_2/713790.bmp_pp100_L3_V1_scrambled_freeview_isoTrue.mp4",""
"null","","","html-keyboard-response","480","871076","0.0-480.0","z5ryc1do","","<span style=""color:Black; font-size:50px;"">Agent B","null","","","","",""
"null","","","video-keyboard-response","481","874180","0.0-481.0","z5ryc1do","","","null","","Agent B","veridical","STIM_SET_2/713790.bmp_pp100_L3_V1_veridical_freeview_isoTrue.mp4",""
"","","","call-function","482","874181","0.0-482.0","z5ryc1do","","","","","","","",""
"1323.9949999999953","{""judgement"":0}","[0]","survey-likert","483","875505","0.0-483.0","z5ryc1do","","","","","","","","1"
"1058.8950000000186","{""confidence"":1}","[0]","survey-likert","484","876565","0.0-484.0","z5ryc1do","","","","","","","",""
"","","","call-function","485","876566","0.0-485.0","z5ryc1do","","","","","","","",""
"null","","","html-keyboard-response","486","878067","0.0-486.0","z5ryc1do","","<span style=""color:Black; font-size:50px;"">Agent A","null","","","","",""
"null","","","video-keyboard-response","487","881170","0.0-487.0","z5ryc1do","","","null","","Agent A","veridical","STIM_SET_2/1159874.bmp_pp96_L2_V1.0_veridical_freeview_isoTrue.mp4",""
"null","","","html-keyboard-response","488","882673","0.0-488.0","z5ryc1do","","<span style=""color:Black; font-size:50px;"">Agent B","null","","","","",""
"null","","","video-keyboard-response","489","885776","0.0-489.0","z5ryc1do","","","null","","Agent B","scrambled","STIM_SET_2/1159874.bmp_pp96_L2_V1.0_scrambled_freeview_isoTrue.mp4",""
"","","","call-function","490","885777","0.0-490.0","z5ryc1do","","","","","","","",""
"1557.704999999958","{""judgement"":0}","[0]","survey-likert","491","887335","0.0-491.0","z5ryc1do","","","","","","","","0"
"1306.8800000000047","{""confidence"":0}","[0]","survey-likert","492","888643","0.0-492.0","z5ryc1do","","","","","","","",""
"","","","call-function","493","888644","0.0-493.0","z5ryc1do","","","","","","","",""
"null","","","html-keyboard-response","494","890147","0.0-494.0","z5ryc1do","","<span style=""color:Black; font-size:50px;"">Agent A","null","","","","",""
"null","","","video-keyboard-response","495","893251","0.0-495.0","z5ryc1do","","","null","","Agent A","scrambled","STIM_SET_2/713274.bmp_pp73_L3_V1.0_scrambled_freeview_isoTrue.mp4",""
"null","","","html-keyboard-response","496","894756","0.0-496.0","z5ryc1do","","<span style=""color:Black; font-size:50px;"">Agent B","null","","","","",""
"null","","","video-keyboard-response","497","897820","0.0-497.0","z5ryc1do","","","null","","Agent B","veridical","STIM_SET_2/713274.bmp_pp73_L3_V1.0_veridical_freeview_isoTrue.mp4",""
"","","","call-function","498","897821","0.0-498.0","z5ryc1do","","","","","","","",""
"3157.8850000000093","{""judgement"":0}","[0]","survey-likert","499","900980","0.0-499.0","z5ryc1do","","","","","","","","1"
"1592.1850000000559","{""confidence"":0}","[0]","survey-likert","500","902573","0.0-500.0","z5ryc1do","","","","","","","",""
"1572.8950000000186","","","instructions","501","904146","0.0-501.0","z5ryc1do","[{""page_index"":0,""viewing_time"":1075.295000000042},{""page_index"":1,""viewing_time"":327.14000000001397},{""page_index"":2,""viewing_time"":170.1449999999022}]","","","","","","",""
"500.44000000006054","","","instructions","502","904647","0.0-502.0","z5ryc1do","[{""page_index"":0,""viewing_time"":174.65500000002794},{""page_index"":1,""viewing_time"":163.68999999994412},{""page_index"":2,""viewing_time"":161.97999999998137}]","","","","","","",""
"","","","call-function","503","904649","0.0-503.0","z5ryc1do","","","","","","","",""
"null","","","html-keyboard-response","504","906155","0.0-504.0","z5ryc1do","","<span style=""color:Black; font-size:50px;"">Agent A","null","","","","",""
"null","","","video-keyboard-response","505","909227","0.0-505.0","z5ryc1do","","","null","","Agent A","scrambled","STIM_SET_2/1592857.bmp_pp52_L1_V1_scrambled_freeview_isoTrue.mp4",""
"null","","","html-keyboard-response","506","910733","0.0-506.0","z5ryc1do","","<span style=""color:Black; font-size:50px;"">Agent B","null","","","","",""
"null","","","video-keyboard-response","507","913802","0.0-507.0","z5ryc1do","","","null","","Agent B","veridical","STIM_SET_2/1592857.bmp_pp52_L1_V1_veridical_freeview_isoTrue.mp4",""
"","","","call-function","508","913803","0.0-508.0","z5ryc1do","","","","","","","",""
"2186.6650000000373","{""judgement"":0}","[0]","survey-likert","509","915990","0.0-509.0","z5ryc1do","","","","","","","","1"
"1437.2149999999674","{""confidence"":1}","[0]","survey-likert","510","917429","0.0-510.0","z5ryc1do","","","","","","","",""
"","","","call-function","511","917429","0.0-511.0","z5ryc1do","","","","","","","",""
"null","","","html-keyboard-response","512","918935","0.0-512.0","z5ryc1do","","<span style=""color:Black; font-size:50px;"">Agent A","null","","","","",""
"null","","","video-keyboard-response","513","921996","0.0-513.0","z5ryc1do","","","null","","Agent A","scrambled","STIM_SET_2/1159325.bmp_pp67_L2_V1.0_scrambled_freeview_isoTrue.mp4",""
"null","","","html-keyboard-response","514","923503","0.0-514.0","z5ryc1do","","<span style=""color:Black; font-size:50px;"">Agent B","null","","","","",""
"null","","","video-keyboard-response","515","926559","0.0-515.0","z5ryc1do","","","null","","Agent B","veridical","STIM_SET_2/1159325.bmp_pp67_L2_V1.0_veridical_freeview_isoTrue.mp4",""
"","","","call-function","516","926560","0.0-516.0","z5ryc1do","","","","","","","",""
"1411.6300000000047","{""judgement"":0}","[0]","survey-likert","517","927972","0.0-517.0","z5ryc1do","","","","","","","","1"
"1760.5800000000745","{""confidence"":0}","[0]","survey-likert","518","929734","0.0-518.0","z5ryc1do","","","","","","","",""
"","","","call-function","519","929735","0.0-519.0","z5ryc1do","","","","","","","",""
"null","","","html-keyboard-response","520","931237","0.0-520.0","z5ryc1do","","<span style=""color:Black; font-size:50px;"">Agent A","null","","","","",""
"null","","","video-keyboard-response","521","934333","0.0-521.0","z5ryc1do","","","null","","Agent A","scrambled","STIM_SET_2/285684.bmp_pp80_L3_V1.0_scrambled_freeview_isoTrue.mp4",""
"null","","","html-keyboard-response","522","935837","0.0-522.0","z5ryc1do","","<span style=""color:Black; font-size:50px;"">Agent B","null","","","","",""
"null","","","video-keyboard-response","523","938933","0.0-523.0","z5ryc1do","","","null","","Agent B","veridical","STIM_SET_2/285684.bmp_pp80_L3_V1.0_veridical_freeview_isoTrue.mp4",""
"","","","call-function","524","938934","0.0-524.0","z5ryc1do","","","","","","","",""
"1852.3349999999627","{""judgement"":0}","[0]","survey-likert","525","940787","0.0-525.0","z5ryc1do","","","","","","","","1"
"1032.3100000000559","{""confidence"":1}","[0]","survey-likert","526","941821","0.0-526.0","z5ryc1do","","","","","","","",""
"","","","call-function","527","941821","0.0-527.0","z5ryc1do","","","","","","","",""
"null","","","html-keyboard-response","528","943324","0.0-528.0","z5ryc1do","","<span style=""color:Black; font-size:50px;"">Agent A","null","","","","",""
"null","","","video-keyboard-response","529","946424","0.0-529.0","z5ryc1do","","","null","","Agent A","veridical","STIM_SET_2/713652.bmp_pp89_L1_V1_veridical_freeview_isoTrue.mp4",""
"null","","","html-keyboard-response","530","947931","0.0-530.0","z5ryc1do","","<span style=""color:Black; font-size:50px;"">Agent B","null","","","","",""
"null","","","video-keyboard-response","531","951029","0.0-531.0","z5ryc1do","","","null","","Agent B","scrambled","STIM_SET_2/713652.bmp_pp89_L1_V1_scrambled_freeview_isoTrue.mp4",""
"","","","call-function","532","951029","0.0-532.0","z5ryc1do","","","","","","","",""
"1593.5250000000233","{""judgement"":1}","[0]","survey-likert","533","952623","0.0-533.0","z5ryc1do","","","","","","","","0"
"1410.5749999999534","{""confidence"":1}","[0]","survey-likert","534","954035","0.0-534.0","z5ryc1do","","","","","","","",""
"","","","call-function","535","954036","0.0-535.0","z5ryc1do","","","","","","","",""
"null","","","html-keyboard-response","536","955538","0.0-536.0","z5ryc1do","","<span style=""color:Black; font-size:50px;"">Agent A","null","","","","",""
"null","","","video-keyboard-response","537","958650","0.0-537.0","z5ryc1do","","","null","","Agent A","veridical","STIM_SET_2/1592568.bmp_pp71_L1_V1.0_veridical_freeview_isoTrue.mp4",""
"null","","","html-keyboard-response","538","960156","0.0-538.0","z5ryc1do","","<span style=""color:Black; font-size:50px;"">Agent B","null","","","","",""
"null","","","video-keyboard-response","539","963240","0.0-539.0","z5ryc1do","","","null","","Agent B","scrambled","STIM_SET_2/1592568.bmp_pp71_L1_V1.0_scrambled_freeview_isoTrue.mp4",""
"","","","call-function","540","963241","0.0-540.0","z5ryc1do","","","","","","","",""
"2121.9349999999395","{""judgement"":0}","[0]","survey-likert","541","965364","0.0-541.0","z5ryc1do","","","","","","","","0"
"2252.960000000079","{""confidence"":0}","[0]","survey-likert","542","967619","0.0-542.0","z5ryc1do","","","","","","","",""
"","","","call-function","543","967620","0.0-543.0","z5ryc1do","","","","","","","",""
"null","","","html-keyboard-response","544","969127","0.0-544.0","z5ryc1do","","<span style=""color:Black; font-size:50px;"">Agent A","null","","","","",""
"null","","","video-keyboard-response","545","972196","0.0-545.0","z5ryc1do","","","null","","Agent A","scrambled","STIM_SET_2/498326.bmp_pp57_L1_V1.0_scrambled_freeview_isoTrue.mp4",""
"null","","","html-keyboard-response","546","973700","0.0-546.0","z5ryc1do","","<span style=""color:Black; font-size:50px;"">Agent B","null","","","","",""
"null","","","video-keyboard-response","547","976770","0.0-547.0","z5ryc1do","","","null","","Agent B","veridical","STIM_SET_2/498326.bmp_pp57_L1_V1.0_veridical_freeview_isoTrue.mp4",""
"","","","call-function","548","976770","0.0-548.0","z5ryc1do","","","","","","","",""
"2033.1849999999395","{""judgement"":1}","[0]","survey-likert","549","978805","0.0-549.0","z5ryc1do","","","","","","","","1"
"1098","{""confidence"":1}","[0]","survey-likert","550","979904","0.0-550.0","z5ryc1do","","","","","","","",""
"","","","call-function","551","979905","0.0-551.0","z5ryc1do","","","","","","","",""
"null","","","html-keyboard-response","552","981409","0.0-552.0","z5ryc1do","","<span style=""color:Black; font-size:50px;"">Agent A","null","","","","",""
"null","","","video-keyboard-response","553","984477","0.0-553.0","z5ryc1do","","","null","","Agent A","scrambled","STIM_SET_2/1159392.bmp_pp96_L2_V1.0_scrambled_freeview_isoTrue.mp4",""
"null","","","html-keyboard-response","554","985980","0.0-554.0","z5ryc1do","","<span style=""color:Black; font-size:50px;"">Agent B","null","","","","",""
"null","","","video-keyboard-response","555","989048","0.0-555.0","z5ryc1do","","","null","","Agent B","veridical","STIM_SET_2/1159392.bmp_pp96_L2_V1.0_veridical_freeview_isoTrue.mp4",""
"","","","call-function","556","989048","0.0-556.0","z5ryc1do","","","","","","","",""
"4946.505000000005","{""judgement"":0}","[0]","survey-likert","557","993996","0.0-557.0","z5ryc1do","","","","","","","","1"
"1584.6049999999814","{""confidence"":1}","[0]","survey-likert","558","995582","0.0-558.0","z5ryc1do","","","","","","","",""
"","","","call-function","559","995582","0.0-559.0","z5ryc1do","","","","","","","",""
"null","","","html-keyboard-response","560","997084","0.0-560.0","z5ryc1do","","<span style=""color:Black; font-size:50px;"">Agent A","null","","","","",""
"null","","","video-keyboard-response","561","1000144","0.0-561.0","z5ryc1do","","","null","","Agent A","scrambled","STIM_SET_2/1159860.bmp_pp152_L2_V1.0_scrambled_freeview_isoTrue.mp4",""
"null","","","html-keyboard-response","562","1001651","0.0-562.0","z5ryc1do","","<span style=""color:Black; font-size:50px;"">Agent B","null","","","","",""
"null","","","video-keyboard-response","563","1004712","0.0-563.0","z5ryc1do","","","null","","Agent B","veridical","STIM_SET_2/1159860.bmp_pp152_L2_V1.0_veridical_freeview_isoTrue.mp4",""
"","","","call-function","564","1004712","0.0-564.0","z5ryc1do","","","","","","","",""
"1980.3450000000885","{""judgement"":0}","[0]","survey-likert","565","1006693","0.0-565.0","z5ryc1do","","","","","","","","1"
"1287.9000000000233","{""confidence"":1}","[0]","survey-likert","566","1007982","0.0-566.0","z5ryc1do","","","","","","","",""
"","","","call-function","567","1007983","0.0-567.0","z5ryc1do","","","","","","","",""
"null","","","html-keyboard-response","568","1009486","0.0-568.0","z5ryc1do","","<span style=""color:Black; font-size:50px;"">Agent A","null","","","","",""
"null","","","video-keyboard-response","569","1012586","0.0-569.0","z5ryc1do","","","null","","Agent A","scrambled","STIM_SET_2/1592314.bmp_pp100_L3_V1.0_scrambled_freeview_isoTrue.mp4",""
"null","","","html-keyboard-response","570","1014090","0.0-570.0","z5ryc1do","","<span style=""color:Black; font-size:50px;"">Agent B","null","","","","",""
"null","","","video-keyboard-response","571","1017186","0.0-571.0","z5ryc1do","","","null","","Agent B","veridical","STIM_SET_2/1592314.bmp_pp100_L3_V1.0_veridical_freeview_isoTrue.mp4",""
"","","","call-function","572","1017187","0.0-572.0","z5ryc1do","","","","","","","",""
"1979.6950000000652","{""judgement"":0}","[0]","survey-likert","573","1019167","0.0-573.0","z5ryc1do","","","","","","","","1"
"1906.0400000000373","{""confidence"":0}","[0]","survey-likert","574","1021074","0.0-574.0","z5ryc1do","","","","","","","",""
"","","","call-function","575","1021075","0.0-575.0","z5ryc1do","","","","","","","",""
"null","","","html-keyboard-response","576","1022578","0.0-576.0","z5ryc1do","","<span style=""color:Black; font-size:50px;"">Agent A","null","","","","",""
"null","","","video-keyboard-response","577","1025687","0.0-577.0","z5ryc1do","","","null","","Agent A","scrambled","STIM_SET_2/285959.bmp_pp93_L1_V1.0_scrambled_freeview_isoTrue.mp4",""
"null","","","html-keyboard-response","578","1027189","0.0-578.0","z5ryc1do","","<span style=""color:Black; font-size:50px;"">Agent B","null","","","","",""
"null","","","video-keyboard-response","579","1030296","0.0-579.0","z5ryc1do","","","null","","Agent B","veridical","STIM_SET_2/285959.bmp_pp93_L1_V1.0_veridical_freeview_isoTrue.mp4",""
"","","","call-function","580","1030297","0.0-580.0","z5ryc1do","","","","","","","",""
"1694.3349999999627","{""judgement"":0}","[0]","survey-likert","581","1031992","0.0-581.0","z5ryc1do","","","","","","","","1"
"1367.9949999999953","{""confidence"":0}","[0]","survey-likert","582","1033361","0.0-582.0","z5ryc1do","","","","","","","",""
"803.3949999999022","","","instructions","583","1034165","0.0-583.0","z5ryc1do","[{""page_index"":0,""viewing_time"":803.0649999999441}]","","","","","","",""
"822.3499999999767","","","instructions","584","1034988","0.0-584.0","z5ryc1do","[{""page_index"":0,""viewing_time"":822.234999999986}]","","","","","","",""
"6237.8150000000605","{""post-1"":0}","[0]","survey-likert","585","1041227","0.0-585.0","z5ryc1do","","","","","","","",""
"3533.944999999949","{""post-1"":0}","[0]","survey-likert","586","1044762","0.0-586.0","z5ryc1do","","","","","","","",""
"4417.014999999898","{""post-2"":0}","[0]","survey-likert","587","1049181","0.0-587.0","z5ryc1do","","","","","","","",""
"3073.6400000001304","{""post-2"":0}","[0]","survey-likert","588","1052255","0.0-588.0","z5ryc1do","","","","","","","",""
"4177.964999999851","{""post-3"":0}","[0]","survey-likert","589","1056435","0.0-589.0","z5ryc1do","","","","","","","",""
"1734.4199999999255","{""post-3"":0}","[0]","survey-likert","590","1058171","0.0-590.0","z5ryc1do","","","","","","","",""
"5014.175000000047","{""post-4"":0}","[0]","survey-likert","591","1063188","0.0-591.0","z5ryc1do","","","","","","","",""
"1822.0649999999441","{""post-4"":0}","[0]","survey-likert","592","1065012","0.0-592.0","z5ryc1do","","","","","","","",""
"8227.584999999963","{""post-5"":0}","[0]","survey-likert","593","1073242","0.0-593.0","z5ryc1do","","","","","","","",""
"1443.6750000000466","{""post-5"":0}","[0]","survey-likert","594","1074687","0.0-594.0","z5ryc1do","","","","","","","",""
"112004.77000000002","{""Q0"":""It was a bit tiring and I had to fight not to zone out.\n""}","","survey-text","595","1186697","0.0-595.0","z5ryc1do","","","","","","","",""
"71121.75","{""Q0"":""The black screen eliminated most distractions. I thought that if attention went back and forth between two points over and over again, it wasn't something a human would do. ""}","","survey-text","596","1257823","0.0-596.0","z5ryc1do","","","","","","","",""
"44957.90000000014","{""Q0"":""It was hard not to have reference points, to see if what the human was looking at made sense. The attentions also seemed similar.""}","","survey-text","597","1302786","0.0-597.0","z5ryc1do","","","","","","","",""
"1266.7949999999255","","","instructions","598","1304054","0.0-598.0","z5ryc1do","[{""page_index"":0,""viewing_time"":1266.5800000000745}]","","","","","","",""
"165628.21499999985","{""Experimenter_end"":[""Printed ID# z5ryc1do on consent form"",""Given subject SONA credit or payment"",""Given the subject debrief form""]}","[0]","survey-multi-select","599","1469685","0.0-599.0","z5ryc1do","","","","","","","",""
