"rt","responses","question_order","trial_type","trial_index","time_elapsed","internal_node_id","ID","view_history","stimulus","key_press","value","agent","condition","image","correct_answer"
"25763.245000000003","{""Experimenter"":[""Confirmed subject's identity"",""Confirmed normal or corrected-to-normal vision"",""Obtained consent (signature and date)"",""Checked the test room lighting"",""Checked computer screen lighting"",""Checked distance from screen to chin rest (50cm)"",""Cleaned and adjusted chin rest"",""Counterbalanced the order of the tasks"",""Opened the experiment in Firefox"",""Made the experiment full screen"",""Encouraged subject to silence phone, put away distractors, etc.""]}","[0]","survey-multi-select","0","25771","0.0-0.0","z6aj31k0","","","","","","","",""
"5151.305","","","instructions","1","30924","0.0-1.0","z6aj31k0","[{""page_index"":0,""viewing_time"":5151.139999999999}]","","","","","","",""
"8299.329999999998","{""Age"":4,""Sex"":1,""Gender"":1}","[0,1,2]","survey-likert","2","39225","0.0-2.0","z6aj31k0","","","","","","","",""
"54214.635","","","instructions","3","93440","0.0-3.0","z6aj31k0","[{""page_index"":0,""viewing_time"":51640.605},{""page_index"":1,""viewing_time"":1105.9149999999936},{""page_index"":2,""viewing_time"":1467.9850000000006}]","","","","","","",""
"1906.5149999999994","","","instructions","4","95347","0.0-4.0","z6aj31k0","[{""page_index"":0,""viewing_time"":1906.4100000000035}]","","","","","","",""
"null","","","video-keyboard-response","5","98423","0.0-5.0","z6aj31k0","","","null","","","","",""
"5639.050000000003","","","instructions","6","104062","0.0-6.0","z6aj31k0","[{""page_index"":0,""viewing_time"":1180.8699999999953},{""page_index"":1,""viewing_time"":3649.195000000007},{""page_index"":2,""viewing_time"":808.875}]","","","","","","",""
"594.7250000000058","","","instructions","7","104657","0.0-7.0","z6aj31k0","[{""page_index"":0,""viewing_time"":594.6199999999953}]","","","","","","",""
"1153.604999999996","","","instructions","8","105811","0.0-8.0","z6aj31k0","[{""page_index"":0,""viewing_time"":1153.3800000000047}]","","","","","","",""
"null","","","video-keyboard-response","9","108902","0.0-9.0","z6aj31k0","","","null","","","","",""
"6603.255000000005","","","instructions","10","115505","0.0-10.0","z6aj31k0","[{""page_index"":0,""viewing_time"":1079.395000000004},{""page_index"":1,""viewing_time"":1805.8899999999994},{""page_index"":2,""viewing_time"":3717.824999999997}]","","","","","","",""
"1964.324999999997","","","instructions","11","117470","0.0-11.0","z6aj31k0","[{""page_index"":0,""viewing_time"":1964.199999999997}]","","","","","","",""
"","","","call-function","12","117471","0.0-12.0","z6aj31k0","","","","","","","",""
"null","","","html-keyboard-response","13","118977","0.0-13.0","z6aj31k0","","<span style=""color:Black; font-size:50px;"">Agent A","null","","","","",""
"null","","","video-keyboard-response","14","121734","0.0-14.0","z6aj31k0","","","null","","Agent A","scrambled","FOR_REV_MAP_BLOBBY_STIM/1592747.bmp_pp53_L2_V1.0_veridical_freeview_isoTrue_fps144_reversed_REAL.mp4",""
"null","","","html-keyboard-response","15","123238","0.0-15.0","z6aj31k0","","<span style=""color:Black; font-size:50px;"">Agent B","null","","","","",""
"null","","","video-keyboard-response","16","126008","0.0-16.0","z6aj31k0","","","null","","Agent B","veridical","FOR_REV_MAP_BLOBBY_STIM/1592747.bmp_pp53_L2_V1.0_veridical_freeview_isoTrue_fps144.mp4",""
"","","","call-function","17","126008","0.0-17.0","z6aj31k0","","","","","","","",""
"5824.299999999988","{""judgement"":0}","[0]","survey-likert","18","131834","0.0-18.0","z6aj31k0","","","","","","","","1"
"1533.8600000000151","{""confidence"":0}","[0]","survey-likert","19","133369","0.0-19.0","z6aj31k0","","","","","","","",""
"","","","call-function","20","133370","0.0-20.0","z6aj31k0","","","","","","","",""
"null","","","html-keyboard-response","21","134872","0.0-21.0","z6aj31k0","","<span style=""color:Black; font-size:50px;"">Agent A","null","","","","",""
"null","","","video-keyboard-response","22","137642","0.0-22.0","z6aj31k0","","","null","","Agent A","scrambled","FOR_REV_MAP_BLOBBY_STIM/713328.bmp_pp86_L2_V1.0_veridical_freeview_isoTrue_fps144_reversed_REAL.mp4",""
"null","","","html-keyboard-response","23","139143","0.0-23.0","z6aj31k0","","<span style=""color:Black; font-size:50px;"">Agent B","null","","","","",""
"null","","","video-keyboard-response","24","141909","0.0-24.0","z6aj31k0","","","null","","Agent B","veridical","FOR_REV_MAP_BLOBBY_STIM/713328.bmp_pp86_L2_V1.0_veridical_freeview_isoTrue_fps144.mp4",""
"","","","call-function","25","141911","0.0-25.0","z6aj31k0","","","","","","","",""
"5433.4649999999965","{""judgement"":0}","[0]","survey-likert","26","147345","0.0-26.0","z6aj31k0","","","","","","","","1"
"3574.3099999999977","{""confidence"":1}","[0]","survey-likert","27","150921","0.0-27.0","z6aj31k0","","","","","","","",""
"","","","call-function","28","150922","0.0-28.0","z6aj31k0","","","","","","","",""
"null","","","html-keyboard-response","29","152426","0.0-29.0","z6aj31k0","","<span style=""color:Black; font-size:50px;"">Agent A","null","","","","",""
"null","","","video-keyboard-response","30","155189","0.0-30.0","z6aj31k0","","","null","","Agent A","veridical","FOR_REV_MAP_BLOBBY_STIM/285684.bmp_pp80_L3_V1.0_veridical_freeview_isoTrue_fps144.mp4",""
"null","","","html-keyboard-response","31","156691","0.0-31.0","z6aj31k0","","<span style=""color:Black; font-size:50px;"">Agent B","null","","","","",""
"null","","","video-keyboard-response","32","159455","0.0-32.0","z6aj31k0","","","null","","Agent B","scrambled","FOR_REV_MAP_BLOBBY_STIM/285684.bmp_pp80_L3_V1.0_veridical_freeview_isoTrue_fps144_reversed_REAL.mp4",""
"","","","call-function","33","159455","0.0-33.0","z6aj31k0","","","","","","","",""
"2625.0800000000163","{""judgement"":0}","[0]","survey-likert","34","162081","0.0-34.0","z6aj31k0","","","","","","","","0"
"1102.3849999999802","{""confidence"":0}","[0]","survey-likert","35","163185","0.0-35.0","z6aj31k0","","","","","","","",""
"","","","call-function","36","163186","0.0-36.0","z6aj31k0","","","","","","","",""
"null","","","html-keyboard-response","37","164691","0.0-37.0","z6aj31k0","","<span style=""color:Black; font-size:50px;"">Agent A","null","","","","",""
"null","","","video-keyboard-response","38","167489","0.0-38.0","z6aj31k0","","","null","","Agent A","scrambled","FOR_REV_MAP_BLOBBY_STIM/713652.bmp_pp89_L1_V1.0_veridical_freeview_isoTrue_fps144_reversed_REAL.mp4",""
"null","","","html-keyboard-response","39","168992","0.0-39.0","z6aj31k0","","<span style=""color:Black; font-size:50px;"">Agent B","null","","","","",""
"null","","","video-keyboard-response","40","171801","0.0-40.0","z6aj31k0","","","null","","Agent B","veridical","FOR_REV_MAP_BLOBBY_STIM/713652.bmp_pp89_L1_V1.0_veridical_freeview_isoTrue_fps144.mp4",""
"","","","call-function","41","171802","0.0-41.0","z6aj31k0","","","","","","","",""
"2134.665000000008","{""judgement"":0}","[0]","survey-likert","42","173937","0.0-42.0","z6aj31k0","","","","","","","","1"
"822.804999999993","{""confidence"":0}","[0]","survey-likert","43","174761","0.0-43.0","z6aj31k0","","","","","","","",""
"","","","call-function","44","174762","0.0-44.0","z6aj31k0","","","","","","","",""
"null","","","html-keyboard-response","45","176266","0.0-45.0","z6aj31k0","","<span style=""color:Black; font-size:50px;"">Agent A","null","","","","",""
"null","","","video-keyboard-response","46","178999","0.0-46.0","z6aj31k0","","","null","","Agent A","scrambled","FOR_REV_MAP_BLOBBY_STIM/1159592.bmp_pp91_L3_V1.0_veridical_freeview_isoTrue_fps144_reversed_REAL.mp4",""
"null","","","html-keyboard-response","47","180502","0.0-47.0","z6aj31k0","","<span style=""color:Black; font-size:50px;"">Agent B","null","","","","",""
"null","","","video-keyboard-response","48","183234","0.0-48.0","z6aj31k0","","","null","","Agent B","veridical","FOR_REV_MAP_BLOBBY_STIM/1159592.bmp_pp91_L3_V1.0_veridical_freeview_isoTrue_fps144.mp4",""
"","","","call-function","49","183235","0.0-49.0","z6aj31k0","","","","","","","",""
"1885.2850000000035","{""judgement"":1}","[0]","survey-likert","50","185121","0.0-50.0","z6aj31k0","","","","","","","","1"
"1302.554999999993","{""confidence"":1}","[0]","survey-likert","51","186425","0.0-51.0","z6aj31k0","","","","","","","",""
"","","","call-function","52","186426","0.0-52.0","z6aj31k0","","","","","","","",""
"null","","","html-keyboard-response","53","187930","0.0-53.0","z6aj31k0","","<span style=""color:Black; font-size:50px;"">Agent A","null","","","","",""
"null","","","video-keyboard-response","54","190710","0.0-54.0","z6aj31k0","","","null","","Agent A","scrambled","FOR_REV_MAP_BLOBBY_STIM/498372.bmp_pp95_L2_V1.0_veridical_freeview_isoTrue_fps144_reversed_REAL.mp4",""
"null","","","html-keyboard-response","55","192215","0.0-55.0","z6aj31k0","","<span style=""color:Black; font-size:50px;"">Agent B","null","","","","",""
"null","","","video-keyboard-response","56","194994","0.0-56.0","z6aj31k0","","","null","","Agent B","veridical","FOR_REV_MAP_BLOBBY_STIM/498372.bmp_pp95_L2_V1.0_veridical_freeview_isoTrue_fps144.mp4",""
"","","","call-function","57","194995","0.0-57.0","z6aj31k0","","","","","","","",""
"1693.5200000000186","{""judgement"":1}","[0]","survey-likert","58","196689","0.0-58.0","z6aj31k0","","","","","","","","1"
"798.9150000000081","{""confidence"":0}","[0]","survey-likert","59","197489","0.0-59.0","z6aj31k0","","","","","","","",""
"","","","call-function","60","197491","0.0-60.0","z6aj31k0","","","","","","","",""
"null","","","html-keyboard-response","61","198993","0.0-61.0","z6aj31k0","","<span style=""color:Black; font-size:50px;"">Agent A","null","","","","",""
"null","","","video-keyboard-response","62","201827","0.0-62.0","z6aj31k0","","","null","","Agent A","veridical","FOR_REV_MAP_BLOBBY_STIM/713742.bmp_pp91_L3_V1.0_veridical_freeview_isoTrue_fps144.mp4",""
"null","","","html-keyboard-response","63","203331","0.0-63.0","z6aj31k0","","<span style=""color:Black; font-size:50px;"">Agent B","null","","","","",""
"null","","","video-keyboard-response","64","206166","0.0-64.0","z6aj31k0","","","null","","Agent B","scrambled","FOR_REV_MAP_BLOBBY_STIM/713742.bmp_pp91_L3_V1.0_veridical_freeview_isoTrue_fps144_reversed_REAL.mp4",""
"","","","call-function","65","206167","0.0-65.0","z6aj31k0","","","","","","","",""
"1737.8699999999953","{""judgement"":1}","[0]","survey-likert","66","207906","0.0-66.0","z6aj31k0","","","","","","","","0"
"757.9300000000221","{""confidence"":0}","[0]","survey-likert","67","208665","0.0-67.0","z6aj31k0","","","","","","","",""
"","","","call-function","68","208666","0.0-68.0","z6aj31k0","","","","","","","",""
"null","","","html-keyboard-response","69","210167","0.0-69.0","z6aj31k0","","<span style=""color:Black; font-size:50px;"">Agent A","null","","","","",""
"null","","","video-keyboard-response","70","212975","0.0-70.0","z6aj31k0","","","null","","Agent A","veridical","FOR_REV_MAP_BLOBBY_STIM/713689.bmp_pp153_L3_V1.0_veridical_freeview_isoTrue_fps144.mp4",""
"null","","","html-keyboard-response","71","214476","0.0-71.0","z6aj31k0","","<span style=""color:Black; font-size:50px;"">Agent B","null","","","","",""
"null","","","video-keyboard-response","72","217284","0.0-72.0","z6aj31k0","","","null","","Agent B","scrambled","FOR_REV_MAP_BLOBBY_STIM/713689.bmp_pp153_L3_V1.0_veridical_freeview_isoTrue_fps144_reversed_REAL.mp4",""
"","","","call-function","73","217284","0.0-73.0","z6aj31k0","","","","","","","",""
"1396.210000000021","{""judgement"":0}","[0]","survey-likert","74","218681","0.0-74.0","z6aj31k0","","","","","","","","0"
"1062.9700000000012","{""confidence"":0}","[0]","survey-likert","75","219745","0.0-75.0","z6aj31k0","","","","","","","",""
"","","","call-function","76","219746","0.0-76.0","z6aj31k0","","","","","","","",""
"null","","","html-keyboard-response","77","221247","0.0-77.0","z6aj31k0","","<span style=""color:Black; font-size:50px;"">Agent A","null","","","","",""
"null","","","video-keyboard-response","78","224081","0.0-78.0","z6aj31k0","","","null","","Agent A","scrambled","FOR_REV_MAP_BLOBBY_STIM/1592857.bmp_pp52_L1_V1.0_veridical_freeview_isoTrue_fps144_reversed_REAL.mp4",""
"null","","","html-keyboard-response","79","225583","0.0-79.0","z6aj31k0","","<span style=""color:Black; font-size:50px;"">Agent B","null","","","","",""
"null","","","video-keyboard-response","80","228494","0.0-80.0","z6aj31k0","","","null","","Agent B","veridical","FOR_REV_MAP_BLOBBY_STIM/1592857.bmp_pp52_L1_V1.0_veridical_freeview_isoTrue_fps144.mp4",""
"","","","call-function","81","228494","0.0-81.0","z6aj31k0","","","","","","","",""
"1353.585000000021","{""judgement"":0}","[0]","survey-likert","82","229849","0.0-82.0","z6aj31k0","","","","","","","","1"
"1526.5699999999779","{""confidence"":2}","[0]","survey-likert","83","231377","0.0-83.0","z6aj31k0","","","","","","","",""
"","","","call-function","84","231378","0.0-84.0","z6aj31k0","","","","","","","",""
"null","","","html-keyboard-response","85","232879","0.0-85.0","z6aj31k0","","<span style=""color:Black; font-size:50px;"">Agent A","null","","","","",""
"null","","","video-keyboard-response","86","235645","0.0-86.0","z6aj31k0","","","null","","Agent A","scrambled","FOR_REV_MAP_BLOBBY_STIM/150277.bmp_pp65_L3_V1.0_veridical_freeview_isoTrue_fps144_reversed_REAL.mp4",""
"null","","","html-keyboard-response","87","237148","0.0-87.0","z6aj31k0","","<span style=""color:Black; font-size:50px;"">Agent B","null","","","","",""
"null","","","video-keyboard-response","88","239917","0.0-88.0","z6aj31k0","","","null","","Agent B","veridical","FOR_REV_MAP_BLOBBY_STIM/150277.bmp_pp65_L3_V1.0_veridical_freeview_isoTrue_fps144.mp4",""
"","","","call-function","89","239918","0.0-89.0","z6aj31k0","","","","","","","",""
"2362.4899999999907","{""judgement"":1}","[0]","survey-likert","90","242281","0.0-90.0","z6aj31k0","","","","","","","","1"
"1015.1299999999756","{""confidence"":0}","[0]","survey-likert","91","243297","0.0-91.0","z6aj31k0","","","","","","","",""
"3453.679999999993","","","instructions","92","246752","0.0-92.0","z6aj31k0","[{""page_index"":0,""viewing_time"":1253.5199999999895},{""page_index"":1,""viewing_time"":1087.8150000000023},{""page_index"":2,""viewing_time"":1112.1050000000105}]","","","","","","",""
"4938.799999999988","","","instructions","93","251692","0.0-93.0","z6aj31k0","[{""page_index"":0,""viewing_time"":3487.5899999999965},{""page_index"":1,""viewing_time"":976.015000000014},{""page_index"":2,""viewing_time"":475.08499999999185}]","","","","","","",""
"","","","call-function","94","251692","0.0-94.0","z6aj31k0","","","","","","","",""
"null","","","html-keyboard-response","95","253193","0.0-95.0","z6aj31k0","","<span style=""color:Black; font-size:50px;"">Agent A","null","","","","",""
"null","","","video-keyboard-response","96","255766","0.0-96.0","z6aj31k0","","","null","","Agent A","veridical","FOR_REV_MAP_BLOBBY_STIM/498398.bmp_pp81_L1_V1.0_veridical_freeview_isoTrue_fps144.mp4",""
"null","","","html-keyboard-response","97","257269","0.0-97.0","z6aj31k0","","<span style=""color:Black; font-size:50px;"">Agent B","null","","","","",""
"null","","","video-keyboard-response","98","259845","0.0-98.0","z6aj31k0","","","null","","Agent B","scrambled","FOR_REV_MAP_BLOBBY_STIM/498398.bmp_pp81_L1_V1.0_veridical_freeview_isoTrue_fps144_reversed_REAL.mp4",""
"","","","call-function","99","259845","0.0-99.0","z6aj31k0","","","","","","","",""
"1651.155000000028","{""judgement"":0}","[0]","survey-likert","100","261497","0.0-100.0","z6aj31k0","","","","","","","","0"
"1526.5950000000012","{""confidence"":1}","[0]","survey-likert","101","263025","0.0-101.0","z6aj31k0","","","","","","","",""
"","","","call-function","102","263026","0.0-102.0","z6aj31k0","","","","","","","",""
"null","","","html-keyboard-response","103","264527","0.0-103.0","z6aj31k0","","<span style=""color:Black; font-size:50px;"">Agent A","null","","","","",""
"null","","","video-keyboard-response","104","267349","0.0-104.0","z6aj31k0","","","null","","Agent A","scrambled","FOR_REV_MAP_BLOBBY_STIM/713920.bmp_pp76_L1_V1.0_veridical_freeview_isoTrue_fps144_reversed_REAL.mp4",""
"null","","","html-keyboard-response","105","268850","0.0-105.0","z6aj31k0","","<span style=""color:Black; font-size:50px;"">Agent B","null","","","","",""
"null","","","video-keyboard-response","106","271671","0.0-106.0","z6aj31k0","","","null","","Agent B","veridical","FOR_REV_MAP_BLOBBY_STIM/713920.bmp_pp76_L1_V1.0_veridical_freeview_isoTrue_fps144.mp4",""
"","","","call-function","107","271671","0.0-107.0","z6aj31k0","","","","","","","",""
"1352.6350000000093","{""judgement"":0}","[0]","survey-likert","108","273025","0.0-108.0","z6aj31k0","","","","","","","","1"
"1014.6600000000326","{""confidence"":1}","[0]","survey-likert","109","274041","0.0-109.0","z6aj31k0","","","","","","","",""
"","","","call-function","110","274042","0.0-110.0","z6aj31k0","","","","","","","",""
"null","","","html-keyboard-response","111","275546","0.0-111.0","z6aj31k0","","<span style=""color:Black; font-size:50px;"">Agent A","null","","","","",""
"null","","","video-keyboard-response","112","278308","0.0-112.0","z6aj31k0","","","null","","Agent A","scrambled","FOR_REV_MAP_BLOBBY_STIM/1159325.bmp_pp67_L2_V1.0_veridical_freeview_isoTrue_fps144_reversed_REAL.mp4",""
"null","","","html-keyboard-response","113","279809","0.0-113.0","z6aj31k0","","<span style=""color:Black; font-size:50px;"">Agent B","null","","","","",""
"null","","","video-keyboard-response","114","282567","0.0-114.0","z6aj31k0","","","null","","Agent B","veridical","FOR_REV_MAP_BLOBBY_STIM/1159325.bmp_pp67_L2_V1.0_veridical_freeview_isoTrue_fps144.mp4",""
"","","","call-function","115","282568","0.0-115.0","z6aj31k0","","","","","","","",""
"3704.545000000042","{""judgement"":1}","[0]","survey-likert","116","286273","0.0-116.0","z6aj31k0","","","","","","","","1"
"1126.4650000000256","{""confidence"":1}","[0]","survey-likert","117","287401","0.0-117.0","z6aj31k0","","","","","","","",""
"","","","call-function","118","287402","0.0-118.0","z6aj31k0","","","","","","","",""
"null","","","html-keyboard-response","119","288905","0.0-119.0","z6aj31k0","","<span style=""color:Black; font-size:50px;"">Agent A","null","","","","",""
"null","","","video-keyboard-response","120","291698","0.0-120.0","z6aj31k0","","","null","","Agent A","scrambled","FOR_REV_MAP_BLOBBY_STIM/1591781.bmp_pp63_L1_V1.0_veridical_freeview_isoTrue_fps144_reversed_REAL.mp4",""
"null","","","html-keyboard-response","121","293201","0.0-121.0","z6aj31k0","","<span style=""color:Black; font-size:50px;"">Agent B","null","","","","",""
"null","","","video-keyboard-response","122","295990","0.0-122.0","z6aj31k0","","","null","","Agent B","veridical","FOR_REV_MAP_BLOBBY_STIM/1591781.bmp_pp63_L1_V1.0_veridical_freeview_isoTrue_fps144.mp4",""
"","","","call-function","123","295991","0.0-123.0","z6aj31k0","","","","","","","",""
"1281.4349999999977","{""judgement"":1}","[0]","survey-likert","124","297274","0.0-124.0","z6aj31k0","","","","","","","","1"
"837.4199999999837","{""confidence"":1}","[0]","survey-likert","125","298113","0.0-125.0","z6aj31k0","","","","","","","",""
"","","","call-function","126","298114","0.0-126.0","z6aj31k0","","","","","","","",""
"null","","","html-keyboard-response","127","299615","0.0-127.0","z6aj31k0","","<span style=""color:Black; font-size:50px;"">Agent A","null","","","","",""
"null","","","video-keyboard-response","128","302406","0.0-128.0","z6aj31k0","","","null","","Agent A","scrambled","FOR_REV_MAP_BLOBBY_STIM/1159392.bmp_pp96_L2_V1.0_veridical_freeview_isoTrue_fps144_reversed_REAL.mp4",""
"null","","","html-keyboard-response","129","303907","0.0-129.0","z6aj31k0","","<span style=""color:Black; font-size:50px;"">Agent B","null","","","","",""
"null","","","video-keyboard-response","130","306709","0.0-130.0","z6aj31k0","","","null","","Agent B","veridical","FOR_REV_MAP_BLOBBY_STIM/1159392.bmp_pp96_L2_V1.0_veridical_freeview_isoTrue_fps144.mp4",""
"","","","call-function","131","306710","0.0-131.0","z6aj31k0","","","","","","","",""
"4829.175000000047","{""judgement"":0}","[0]","survey-likert","132","311540","0.0-132.0","z6aj31k0","","","","","","","","1"
"5332.210000000021","{""confidence"":2}","[0]","survey-likert","133","316873","0.0-133.0","z6aj31k0","","","","","","","",""
"","","","call-function","134","316874","0.0-134.0","z6aj31k0","","","","","","","",""
"null","","","html-keyboard-response","135","318377","0.0-135.0","z6aj31k0","","<span style=""color:Black; font-size:50px;"">Agent A","null","","","","",""
"null","","","video-keyboard-response","136","321313","0.0-136.0","z6aj31k0","","","null","","Agent A","scrambled","FOR_REV_MAP_BLOBBY_STIM/1592568.bmp_pp71_L1_V1.0_veridical_freeview_isoTrue_fps144_reversed_REAL.mp4",""
"null","","","html-keyboard-response","137","322814","0.0-137.0","z6aj31k0","","<span style=""color:Black; font-size:50px;"">Agent B","null","","","","",""
"null","","","video-keyboard-response","138","325747","0.0-138.0","z6aj31k0","","","null","","Agent B","veridical","FOR_REV_MAP_BLOBBY_STIM/1592568.bmp_pp71_L1_V1.0_veridical_freeview_isoTrue_fps144.mp4",""
"","","","call-function","139","325748","0.0-139.0","z6aj31k0","","","","","","","",""
"1828.344999999972","{""judgement"":1}","[0]","survey-likert","140","327577","0.0-140.0","z6aj31k0","","","","","","","","1"
"958.8550000000396","{""confidence"":0}","[0]","survey-likert","141","328537","0.0-141.0","z6aj31k0","","","","","","","",""
"","","","call-function","142","328538","0.0-142.0","z6aj31k0","","","","","","","",""
"null","","","html-keyboard-response","143","330039","0.0-143.0","z6aj31k0","","<span style=""color:Black; font-size:50px;"">Agent A","null","","","","",""
"null","","","video-keyboard-response","144","332778","0.0-144.0","z6aj31k0","","","null","","Agent A","scrambled","FOR_REV_MAP_BLOBBY_STIM/1591975.bmp_pp88_L2_V1.0_veridical_freeview_isoTrue_fps144_reversed_REAL.mp4",""
"null","","","html-keyboard-response","145","334279","0.0-145.0","z6aj31k0","","<span style=""color:Black; font-size:50px;"">Agent B","null","","","","",""
"null","","","video-keyboard-response","146","337015","0.0-146.0","z6aj31k0","","","null","","Agent B","veridical","FOR_REV_MAP_BLOBBY_STIM/1591975.bmp_pp88_L2_V1.0_veridical_freeview_isoTrue_fps144.mp4",""
"","","","call-function","147","337015","0.0-147.0","z6aj31k0","","","","","","","",""
"1272.8549999999814","{""judgement"":1}","[0]","survey-likert","148","338289","0.0-148.0","z6aj31k0","","","","","","","","1"
"958.7000000000116","{""confidence"":1}","[0]","survey-likert","149","339249","0.0-149.0","z6aj31k0","","","","","","","",""
"","","","call-function","150","339250","0.0-150.0","z6aj31k0","","","","","","","",""
"null","","","html-keyboard-response","151","340754","0.0-151.0","z6aj31k0","","<span style=""color:Black; font-size:50px;"">Agent A","null","","","","",""
"null","","","video-keyboard-response","152","343555","0.0-152.0","z6aj31k0","","","null","","Agent A","veridical","FOR_REV_MAP_BLOBBY_STIM/713274.bmp_pp73_L3_V1.0_veridical_freeview_isoTrue_fps144.mp4",""
"null","","","html-keyboard-response","153","345061","0.0-153.0","z6aj31k0","","<span style=""color:Black; font-size:50px;"">Agent B","null","","","","",""
"null","","","video-keyboard-response","154","347862","0.0-154.0","z6aj31k0","","","null","","Agent B","scrambled","FOR_REV_MAP_BLOBBY_STIM/713274.bmp_pp73_L3_V1.0_veridical_freeview_isoTrue_fps144_reversed_REAL.mp4",""
"","","","call-function","155","347862","0.0-155.0","z6aj31k0","","","","","","","",""
"2010.3600000000442","{""judgement"":1}","[0]","survey-likert","156","349873","0.0-156.0","z6aj31k0","","","","","","","","0"
"806.7700000000186","{""confidence"":0}","[0]","survey-likert","157","350681","0.0-157.0","z6aj31k0","","","","","","","",""
"","","","call-function","158","350682","0.0-158.0","z6aj31k0","","","","","","","",""
"null","","","html-keyboard-response","159","352185","0.0-159.0","z6aj31k0","","<span style=""color:Black; font-size:50px;"">Agent A","null","","","","",""
"null","","","video-keyboard-response","160","354946","0.0-160.0","z6aj31k0","","","null","","Agent A","veridical","FOR_REV_MAP_BLOBBY_STIM/1592129.bmp_pp153_L3_V1.0_veridical_freeview_isoTrue_fps144.mp4",""
"null","","","html-keyboard-response","161","356451","0.0-161.0","z6aj31k0","","<span style=""color:Black; font-size:50px;"">Agent B","null","","","","",""
"null","","","video-keyboard-response","162","359208","0.0-162.0","z6aj31k0","","","null","","Agent B","scrambled","FOR_REV_MAP_BLOBBY_STIM/1592129.bmp_pp153_L3_V1.0_veridical_freeview_isoTrue_fps144_reversed_REAL.mp4",""
"","","","call-function","163","359208","0.0-163.0","z6aj31k0","","","","","","","",""
"1280.3800000000047","{""judgement"":1}","[0]","survey-likert","164","360489","0.0-164.0","z6aj31k0","","","","","","","","0"
"902.460000000021","{""confidence"":1}","[0]","survey-likert","165","361393","0.0-165.0","z6aj31k0","","","","","","","",""
"","","","call-function","166","361394","0.0-166.0","z6aj31k0","","","","","","","",""
"null","","","html-keyboard-response","167","362899","0.0-167.0","z6aj31k0","","<span style=""color:Black; font-size:50px;"">Agent A","null","","","","",""
"null","","","video-keyboard-response","168","364991","0.0-168.0","z6aj31k0","","","null","","Agent A","scrambled","FOR_REV_MAP_BLOBBY_STIM/1159973.bmp_pp98_L1_V1.0_veridical_freeview_isoTrue_fps144_reversed_REAL.mp4",""
"null","","","html-keyboard-response","169","366492","0.0-169.0","z6aj31k0","","<span style=""color:Black; font-size:50px;"">Agent B","null","","","","",""
"null","","","video-keyboard-response","170","368591","0.0-170.0","z6aj31k0","","","null","","Agent B","veridical","FOR_REV_MAP_BLOBBY_STIM/1159973.bmp_pp98_L1_V1.0_veridical_freeview_isoTrue_fps144.mp4",""
"","","","call-function","171","368591","0.0-171.0","z6aj31k0","","","","","","","",""
"1633.3699999999953","{""judgement"":0}","[0]","survey-likert","172","370225","0.0-172.0","z6aj31k0","","","","","","","","1"
"718.640000000014","{""confidence"":0}","[0]","survey-likert","173","370945","0.0-173.0","z6aj31k0","","","","","","","",""
"4942.075000000012","","","instructions","174","375888","0.0-174.0","z6aj31k0","[{""page_index"":0,""viewing_time"":2885.7900000000373},{""page_index"":1,""viewing_time"":1383.9199999999837},{""page_index"":2,""viewing_time"":672.2249999999767}]","","","","","","",""
"3711.1399999999558","","","instructions","175","379600","0.0-175.0","z6aj31k0","[{""page_index"":0,""viewing_time"":1391.109999999986},{""page_index"":1,""viewing_time"":1360.0800000000163},{""page_index"":2,""viewing_time"":959.789999999979}]","","","","","","",""
"","","","call-function","176","379601","0.0-176.0","z6aj31k0","","","","","","","",""
"null","","","html-keyboard-response","177","381103","0.0-177.0","z6aj31k0","","<span style=""color:Black; font-size:50px;"">Agent A","null","","","","",""
"null","","","video-keyboard-response","178","383889","0.0-178.0","z6aj31k0","","","null","","Agent A","veridical","FOR_REV_MAP_BLOBBY_STIM/1592567.bmp_pp70_L2_V1.0_veridical_freeview_isoTrue_fps144.mp4",""
"null","","","html-keyboard-response","179","385394","0.0-179.0","z6aj31k0","","<span style=""color:Black; font-size:50px;"">Agent B","null","","","","",""
"null","","","video-keyboard-response","180","388196","0.0-180.0","z6aj31k0","","","null","","Agent B","scrambled","FOR_REV_MAP_BLOBBY_STIM/1592567.bmp_pp70_L2_V1.0_veridical_freeview_isoTrue_fps144_reversed_REAL.mp4",""
"","","","call-function","181","388196","0.0-181.0","z6aj31k0","","","","","","","",""
"1139.8499999999767","{""judgement"":0}","[0]","survey-likert","182","389337","0.0-182.0","z6aj31k0","","","","","","","","0"
"1070.7249999999767","{""confidence"":1}","[0]","survey-likert","183","390409","0.0-183.0","z6aj31k0","","","","","","","",""
"","","","call-function","184","390410","0.0-184.0","z6aj31k0","","","","","","","",""
"397.554999999993","","","html-keyboard-response","185","390808","0.0-185.0","z6aj31k0","","<span style=""color:Black; font-size:50px;"">Agent A","9","","","","",""
"null","","","video-keyboard-response","186","393507","0.0-186.0","z6aj31k0","","","null","","Agent A","veridical","FOR_REV_MAP_BLOBBY_STIM/713858.bmp_pp57_L1_V1.0_veridical_freeview_isoTrue_fps144.mp4",""
"null","","","html-keyboard-response","187","395011","0.0-187.0","z6aj31k0","","<span style=""color:Black; font-size:50px;"">Agent B","null","","","","",""
"null","","","video-keyboard-response","188","397727","0.0-188.0","z6aj31k0","","","null","","Agent B","scrambled","FOR_REV_MAP_BLOBBY_STIM/713858.bmp_pp57_L1_V1.0_veridical_freeview_isoTrue_fps144_reversed_REAL.mp4",""
"","","","call-function","189","397727","0.0-189.0","z6aj31k0","","","","","","","",""
"1489.109999999986","{""judgement"":0}","[0]","survey-likert","190","399217","0.0-190.0","z6aj31k0","","","","","","","","0"
"710.5349999999744","{""confidence"":0}","[0]","survey-likert","191","399929","0.0-191.0","z6aj31k0","","","","","","","",""
"","","","call-function","192","399930","0.0-192.0","z6aj31k0","","","","","","","",""
"null","","","html-keyboard-response","193","401432","0.0-193.0","z6aj31k0","","<span style=""color:Black; font-size:50px;"">Agent A","null","","","","",""
"null","","","video-keyboard-response","194","404197","0.0-194.0","z6aj31k0","","","null","","Agent A","veridical","FOR_REV_MAP_BLOBBY_STIM/1592017.bmp_pp154_L1_V1.0_veridical_freeview_isoTrue_fps144.mp4",""
"null","","","html-keyboard-response","195","405699","0.0-195.0","z6aj31k0","","<span style=""color:Black; font-size:50px;"">Agent B","null","","","","",""
"null","","","video-keyboard-response","196","408466","0.0-196.0","z6aj31k0","","","null","","Agent B","scrambled","FOR_REV_MAP_BLOBBY_STIM/1592017.bmp_pp154_L1_V1.0_veridical_freeview_isoTrue_fps144_reversed_REAL.mp4",""
"","","","call-function","197","408467","0.0-197.0","z6aj31k0","","","","","","","",""
"1293.7900000000373","{""judgement"":1}","[0]","survey-likert","198","409761","0.0-198.0","z6aj31k0","","","","","","","","0"
"1462.8250000000116","{""confidence"":2}","[0]","survey-likert","199","411225","0.0-199.0","z6aj31k0","","","","","","","",""
"","","","call-function","200","411226","0.0-200.0","z6aj31k0","","","","","","","",""
"null","","","html-keyboard-response","201","412730","0.0-201.0","z6aj31k0","","<span style=""color:Black; font-size:50px;"">Agent A","null","","","","",""
"null","","","video-keyboard-response","202","415441","0.0-202.0","z6aj31k0","","","null","","Agent A","scrambled","FOR_REV_MAP_BLOBBY_STIM/1159427.bmp_pp98_L1_V1.0_veridical_freeview_isoTrue_fps144_reversed_REAL.mp4",""
"null","","","html-keyboard-response","203","416945","0.0-203.0","z6aj31k0","","<span style=""color:Black; font-size:50px;"">Agent B","null","","","","",""
"null","","","video-keyboard-response","204","419645","0.0-204.0","z6aj31k0","","","null","","Agent B","veridical","FOR_REV_MAP_BLOBBY_STIM/1159427.bmp_pp98_L1_V1.0_veridical_freeview_isoTrue_fps144.mp4",""
"","","","call-function","205","419645","0.0-205.0","z6aj31k0","","","","","","","",""
"1714.9100000000326","{""judgement"":0}","[0]","survey-likert","206","421361","0.0-206.0","z6aj31k0","","","","","","","","1"
"1350.7249999999767","{""confidence"":3}","[0]","survey-likert","207","422713","0.0-207.0","z6aj31k0","","","","","","","",""
"","","","call-function","208","422714","0.0-208.0","z6aj31k0","","","","","","","",""
"null","","","html-keyboard-response","209","424219","0.0-209.0","z6aj31k0","","<span style=""color:Black; font-size:50px;"">Agent A","null","","","","",""
"null","","","video-keyboard-response","210","426955","0.0-210.0","z6aj31k0","","","null","","Agent A","veridical","FOR_REV_MAP_BLOBBY_STIM/1159819.bmp_pp151_L1_V1.0_veridical_freeview_isoTrue_fps144.mp4",""
"null","","","html-keyboard-response","211","428456","0.0-211.0","z6aj31k0","","<span style=""color:Black; font-size:50px;"">Agent B","null","","","","",""
"null","","","video-keyboard-response","212","431194","0.0-212.0","z6aj31k0","","","null","","Agent B","scrambled","FOR_REV_MAP_BLOBBY_STIM/1159819.bmp_pp151_L1_V1.0_veridical_freeview_isoTrue_fps144_reversed_REAL.mp4",""
"","","","call-function","213","431195","0.0-213.0","z6aj31k0","","","","","","","",""
"1877.2999999999884","{""judgement"":0}","[0]","survey-likert","214","433074","0.0-214.0","z6aj31k0","","","","","","","","0"
"918.4550000000163","{""confidence"":0}","[0]","survey-likert","215","433994","0.0-215.0","z6aj31k0","","","","","","","",""
"","","","call-function","216","433995","0.0-216.0","z6aj31k0","","","","","","","",""
"null","","","html-keyboard-response","217","435496","0.0-217.0","z6aj31k0","","<span style=""color:Black; font-size:50px;"">Agent A","null","","","","",""
"null","","","video-keyboard-response","218","438260","0.0-218.0","z6aj31k0","","","null","","Agent A","veridical","FOR_REV_MAP_BLOBBY_STIM/1159329.bmp_pp61_L2_V1.0_veridical_freeview_isoTrue_fps144.mp4",""
"null","","","html-keyboard-response","219","439766","0.0-219.0","z6aj31k0","","<span style=""color:Black; font-size:50px;"">Agent B","null","","","","",""
"null","","","video-keyboard-response","220","442531","0.0-220.0","z6aj31k0","","","null","","Agent B","scrambled","FOR_REV_MAP_BLOBBY_STIM/1159329.bmp_pp61_L2_V1.0_veridical_freeview_isoTrue_fps144_reversed_REAL.mp4",""
"","","","call-function","221","442531","0.0-221.0","z6aj31k0","","","","","","","",""
"1517.0750000000116","{""judgement"":1}","[0]","survey-likert","222","444050","0.0-222.0","z6aj31k0","","","","","","","","0"
"910.3800000000047","{""confidence"":0}","[0]","survey-likert","223","444962","0.0-223.0","z6aj31k0","","","","","","","",""
"","","","call-function","224","444963","0.0-224.0","z6aj31k0","","","","","","","",""
"null","","","html-keyboard-response","225","446467","0.0-225.0","z6aj31k0","","<span style=""color:Black; font-size:50px;"">Agent A","null","","","","",""
"null","","","video-keyboard-response","226","449275","0.0-226.0","z6aj31k0","","","null","","Agent A","scrambled","FOR_REV_MAP_BLOBBY_STIM/1591920.bmp_pp97_L3_V1.0_veridical_freeview_isoTrue_fps144_reversed_REAL.mp4",""
"null","","","html-keyboard-response","227","450778","0.0-227.0","z6aj31k0","","<span style=""color:Black; font-size:50px;"">Agent B","null","","","","",""
"null","","","video-keyboard-response","228","453593","0.0-228.0","z6aj31k0","","","null","","Agent B","veridical","FOR_REV_MAP_BLOBBY_STIM/1591920.bmp_pp97_L3_V1.0_veridical_freeview_isoTrue_fps144.mp4",""
"","","","call-function","229","453593","0.0-229.0","z6aj31k0","","","","","","","",""
"847.195000000007","{""judgement"":0}","[0]","survey-likert","230","454441","0.0-230.0","z6aj31k0","","","","","","","","1"
"5706.549999999988","{""confidence"":2}","[0]","survey-likert","231","460149","0.0-231.0","z6aj31k0","","","","","","","",""
"","","","call-function","232","460151","0.0-232.0","z6aj31k0","","","","","","","",""
"null","","","html-keyboard-response","233","461652","0.0-233.0","z6aj31k0","","<span style=""color:Black; font-size:50px;"">Agent A","null","","","","",""
"null","","","video-keyboard-response","234","464381","0.0-234.0","z6aj31k0","","","null","","Agent A","veridical","FOR_REV_MAP_BLOBBY_STIM/285715.bmp_pp67_L2_V1.0_veridical_freeview_isoTrue_fps144.mp4",""
"null","","","html-keyboard-response","235","465883","0.0-235.0","z6aj31k0","","<span style=""color:Black; font-size:50px;"">Agent B","null","","","","",""
"null","","","video-keyboard-response","236","468616","0.0-236.0","z6aj31k0","","","null","","Agent B","scrambled","FOR_REV_MAP_BLOBBY_STIM/285715.bmp_pp67_L2_V1.0_veridical_freeview_isoTrue_fps144_reversed_REAL.mp4",""
"","","","call-function","237","468616","0.0-237.0","z6aj31k0","","","","","","","",""
"1160.4650000000256","{""judgement"":0}","[0]","survey-likert","238","469777","0.0-238.0","z6aj31k0","","","","","","","","0"
"1630.9100000000326","{""confidence"":1}","[0]","survey-likert","239","471410","0.0-239.0","z6aj31k0","","","","","","","",""
"","","","call-function","240","471411","0.0-240.0","z6aj31k0","","","","","","","",""
"null","","","html-keyboard-response","241","472914","0.0-241.0","z6aj31k0","","<span style=""color:Black; font-size:50px;"">Agent A","null","","","","",""
"null","","","video-keyboard-response","242","475762","0.0-242.0","z6aj31k0","","","null","","Agent A","scrambled","FOR_REV_MAP_BLOBBY_STIM/498326.bmp_pp57_L1_V1.0_veridical_freeview_isoTrue_fps144_reversed_REAL.mp4",""
"null","","","html-keyboard-response","243","477265","0.0-243.0","z6aj31k0","","<span style=""color:Black; font-size:50px;"">Agent B","null","","","","",""
"null","","","video-keyboard-response","244","480111","0.0-244.0","z6aj31k0","","","null","","Agent B","veridical","FOR_REV_MAP_BLOBBY_STIM/498326.bmp_pp57_L1_V1.0_veridical_freeview_isoTrue_fps144.mp4",""
"","","","call-function","245","480111","0.0-245.0","z6aj31k0","","","","","","","",""
"1177.405000000028","{""judgement"":1}","[0]","survey-likert","246","481289","0.0-246.0","z6aj31k0","","","","","","","","1"
"1390.6599999999744","{""confidence"":1}","[0]","survey-likert","247","482681","0.0-247.0","z6aj31k0","","","","","","","",""
"","","","call-function","248","482682","0.0-248.0","z6aj31k0","","","","","","","",""
"189.5350000000326","","","html-keyboard-response","249","482872","0.0-249.0","z6aj31k0","","<span style=""color:Black; font-size:50px;"">Agent A","9","","","","",""
"null","","","video-keyboard-response","250","485635","0.0-250.0","z6aj31k0","","","null","","Agent A","veridical","FOR_REV_MAP_BLOBBY_STIM/1592298.bmp_pp56_L3_V1.0_veridical_freeview_isoTrue_fps144.mp4",""
"null","","","html-keyboard-response","251","487137","0.0-251.0","z6aj31k0","","<span style=""color:Black; font-size:50px;"">Agent B","null","","","","",""
"null","","","video-keyboard-response","252","489903","0.0-252.0","z6aj31k0","","","null","","Agent B","scrambled","FOR_REV_MAP_BLOBBY_STIM/1592298.bmp_pp56_L3_V1.0_veridical_freeview_isoTrue_fps144_reversed_REAL.mp4",""
"","","","call-function","253","489903","0.0-253.0","z6aj31k0","","","","","","","",""
"1297.5","{""judgement"":1}","[0]","survey-likert","254","491201","0.0-254.0","z6aj31k0","","","","","","","","0"
"3534.789999999979","{""confidence"":2}","[0]","survey-likert","255","494738","0.0-255.0","z6aj31k0","","","","","","","",""
"2789.1199999999953","","","instructions","256","497528","0.0-256.0","z6aj31k0","[{""page_index"":0,""viewing_time"":1148.9150000000373},{""page_index"":1,""viewing_time"":975.8449999999721},{""page_index"":2,""viewing_time"":664.0450000000419}]","","","","","","",""
"3543.0449999999837","","","instructions","257","501072","0.0-257.0","z6aj31k0","[{""page_index"":0,""viewing_time"":1750.9650000000256},{""page_index"":1,""viewing_time"":991.929999999993},{""page_index"":2,""viewing_time"":799.9500000000116}]","","","","","","",""
"","","","call-function","258","501073","0.0-258.0","z6aj31k0","","","","","","","",""
"null","","","html-keyboard-response","259","502574","0.0-259.0","z6aj31k0","","<span style=""color:Black; font-size:50px;"">Agent A","null","","","","",""
"null","","","video-keyboard-response","260","505381","0.0-260.0","z6aj31k0","","","null","","Agent A","veridical","FOR_REV_MAP_BLOBBY_STIM/1592314.bmp_pp100_L3_V1.0_veridical_freeview_isoTrue_fps144.mp4",""
"null","","","html-keyboard-response","261","506886","0.0-261.0","z6aj31k0","","<span style=""color:Black; font-size:50px;"">Agent B","null","","","","",""
"null","","","video-keyboard-response","262","509693","0.0-262.0","z6aj31k0","","","null","","Agent B","scrambled","FOR_REV_MAP_BLOBBY_STIM/1592314.bmp_pp100_L3_V1.0_veridical_freeview_isoTrue_fps144_reversed_REAL.mp4",""
"","","","call-function","263","509693","0.0-263.0","z6aj31k0","","","","","","","",""
"1036.2399999999907","{""judgement"":1}","[0]","survey-likert","264","510730","0.0-264.0","z6aj31k0","","","","","","","","0"
"1422.0999999999767","{""confidence"":2}","[0]","survey-likert","265","512154","0.0-265.0","z6aj31k0","","","","","","","",""
"","","","call-function","266","512154","0.0-266.0","z6aj31k0","","","","","","","",""
"null","","","html-keyboard-response","267","513659","0.0-267.0","z6aj31k0","","<span style=""color:Black; font-size:50px;"">Agent A","null","","","","",""
"null","","","video-keyboard-response","268","516249","0.0-268.0","z6aj31k0","","","null","","Agent A","scrambled","FOR_REV_MAP_BLOBBY_STIM/713633.bmp_pp58_L1_V1.0_veridical_freeview_isoTrue_fps144_reversed_REAL.mp4",""
"null","","","html-keyboard-response","269","517752","0.0-269.0","z6aj31k0","","<span style=""color:Black; font-size:50px;"">Agent B","null","","","","",""
"null","","","video-keyboard-response","270","520353","0.0-270.0","z6aj31k0","","","null","","Agent B","veridical","FOR_REV_MAP_BLOBBY_STIM/713633.bmp_pp58_L1_V1.0_veridical_freeview_isoTrue_fps144.mp4",""
"","","","call-function","271","520354","0.0-271.0","z6aj31k0","","","","","","","",""
"2134.9550000000163","{""judgement"":0}","[0]","survey-likert","272","522489","0.0-272.0","z6aj31k0","","","","","","","","1"
"2950.624999999942","{""confidence"":2}","[0]","survey-likert","273","525441","0.0-273.0","z6aj31k0","","","","","","","",""
"","","","call-function","274","525442","0.0-274.0","z6aj31k0","","","","","","","",""
"null","","","html-keyboard-response","275","526945","0.0-275.0","z6aj31k0","","<span style=""color:Black; font-size:50px;"">Agent A","null","","","","",""
"null","","","video-keyboard-response","276","528839","0.0-276.0","z6aj31k0","","","null","","Agent A","veridical","FOR_REV_MAP_BLOBBY_STIM/285946.bmp_pp79_L2_V1.0_veridical_freeview_isoTrue_fps144.mp4",""
"null","","","html-keyboard-response","277","530344","0.0-277.0","z6aj31k0","","<span style=""color:Black; font-size:50px;"">Agent B","null","","","","",""
"null","","","video-keyboard-response","278","532237","0.0-278.0","z6aj31k0","","","null","","Agent B","scrambled","FOR_REV_MAP_BLOBBY_STIM/285946.bmp_pp79_L2_V1.0_veridical_freeview_isoTrue_fps144_reversed_REAL.mp4",""
"","","","call-function","279","532237","0.0-279.0","z6aj31k0","","","","","","","",""
"1036.0500000000466","{""judgement"":0}","[0]","survey-likert","280","533274","0.0-280.0","z6aj31k0","","","","","","","","0"
"5089.5599999999395","{""confidence"":2}","[0]","survey-likert","281","538365","0.0-281.0","z6aj31k0","","","","","","","",""
"","","","call-function","282","538365","0.0-282.0","z6aj31k0","","","","","","","",""
"null","","","html-keyboard-response","283","539871","0.0-283.0","z6aj31k0","","<span style=""color:Black; font-size:50px;"">Agent A","null","","","","",""
"null","","","video-keyboard-response","284","542720","0.0-284.0","z6aj31k0","","","null","","Agent A","veridical","FOR_REV_MAP_BLOBBY_STIM/713381.bmp_pp82_L2_V1.0_veridical_freeview_isoTrue_fps144.mp4",""
"null","","","html-keyboard-response","285","544226","0.0-285.0","z6aj31k0","","<span style=""color:Black; font-size:50px;"">Agent B","null","","","","",""
"null","","","video-keyboard-response","286","547058","0.0-286.0","z6aj31k0","","","null","","Agent B","scrambled","FOR_REV_MAP_BLOBBY_STIM/713381.bmp_pp82_L2_V1.0_veridical_freeview_isoTrue_fps144_reversed_REAL.mp4",""
"","","","call-function","287","547058","0.0-287.0","z6aj31k0","","","","","","","",""
"1086.594999999972","{""judgement"":0}","[0]","survey-likert","288","548146","0.0-288.0","z6aj31k0","","","","","","","","0"
"814.4899999999907","{""confidence"":0}","[0]","survey-likert","289","548962","0.0-289.0","z6aj31k0","","","","","","","",""
"","","","call-function","290","548962","0.0-290.0","z6aj31k0","","","","","","","",""
"null","","","html-keyboard-response","291","550468","0.0-291.0","z6aj31k0","","<span style=""color:Black; font-size:50px;"">Agent A","null","","","","",""
"null","","","video-keyboard-response","292","553080","0.0-292.0","z6aj31k0","","","null","","Agent A","veridical","FOR_REV_MAP_BLOBBY_STIM/1159874.bmp_pp96_L2_V1.0_veridical_freeview_isoTrue_fps144.mp4",""
"null","","","html-keyboard-response","293","554586","0.0-293.0","z6aj31k0","","<span style=""color:Black; font-size:50px;"">Agent B","null","","","","",""
"null","","","video-keyboard-response","294","557198","0.0-294.0","z6aj31k0","","","null","","Agent B","scrambled","FOR_REV_MAP_BLOBBY_STIM/1159874.bmp_pp96_L2_V1.0_veridical_freeview_isoTrue_fps144_reversed_REAL.mp4",""
"","","","call-function","295","557199","0.0-295.0","z6aj31k0","","","","","","","",""
"1202.1699999999255","{""judgement"":0}","[0]","survey-likert","296","558402","0.0-296.0","z6aj31k0","","","","","","","","0"
"958.5100000000093","{""confidence"":0}","[0]","survey-likert","297","559362","0.0-297.0","z6aj31k0","","","","","","","",""
"","","","call-function","298","559362","0.0-298.0","z6aj31k0","","","","","","","",""
"null","","","html-keyboard-response","299","560865","0.0-299.0","z6aj31k0","","<span style=""color:Black; font-size:50px;"">Agent A","null","","","","",""
"null","","","video-keyboard-response","300","563671","0.0-300.0","z6aj31k0","","","null","","Agent A","scrambled","FOR_REV_MAP_BLOBBY_STIM/1592530.bmp_pp75_L1_V1.0_veridical_freeview_isoTrue_fps144_reversed_REAL.mp4",""
"null","","","html-keyboard-response","301","565173","0.0-301.0","z6aj31k0","","<span style=""color:Black; font-size:50px;"">Agent B","null","","","","",""
"null","","","video-keyboard-response","302","567981","0.0-302.0","z6aj31k0","","","null","","Agent B","veridical","FOR_REV_MAP_BLOBBY_STIM/1592530.bmp_pp75_L1_V1.0_veridical_freeview_isoTrue_fps144.mp4",""
"","","","call-function","303","567982","0.0-303.0","z6aj31k0","","","","","","","",""
"1219.079999999958","{""judgement"":1}","[0]","survey-likert","304","569202","0.0-304.0","z6aj31k0","","","","","","","","1"
"1406.3649999999907","{""confidence"":1}","[0]","survey-likert","305","570610","0.0-305.0","z6aj31k0","","","","","","","",""
"","","","call-function","306","570610","0.0-306.0","z6aj31k0","","","","","","","",""
"null","","","html-keyboard-response","307","572114","0.0-307.0","z6aj31k0","","<span style=""color:Black; font-size:50px;"">Agent A","null","","","","",""
"null","","","video-keyboard-response","308","574911","0.0-308.0","z6aj31k0","","","null","","Agent A","veridical","FOR_REV_MAP_BLOBBY_STIM/498258.bmp_pp51_L1_V1.0_veridical_freeview_isoTrue_fps144.mp4",""
"null","","","html-keyboard-response","309","576412","0.0-309.0","z6aj31k0","","<span style=""color:Black; font-size:50px;"">Agent B","null","","","","",""
"null","","","video-keyboard-response","310","579211","0.0-310.0","z6aj31k0","","","null","","Agent B","scrambled","FOR_REV_MAP_BLOBBY_STIM/498258.bmp_pp51_L1_V1.0_veridical_freeview_isoTrue_fps144_reversed_REAL.mp4",""
"","","","call-function","311","579211","0.0-311.0","z6aj31k0","","","","","","","",""
"1117.5200000000186","{""judgement"":1}","[0]","survey-likert","312","580330","0.0-312.0","z6aj31k0","","","","","","","","0"
"1062.9499999999534","{""confidence"":0}","[0]","survey-likert","313","581394","0.0-313.0","z6aj31k0","","","","","","","",""
"","","","call-function","314","581395","0.0-314.0","z6aj31k0","","","","","","","",""
"null","","","html-keyboard-response","315","582897","0.0-315.0","z6aj31k0","","<span style=""color:Black; font-size:50px;"">Agent A","null","","","","",""
"null","","","video-keyboard-response","316","585584","0.0-316.0","z6aj31k0","","","null","","Agent A","scrambled","FOR_REV_MAP_BLOBBY_STIM/1592350.bmp_pp55_L3_V1.0_veridical_freeview_isoTrue_fps144_reversed_REAL.mp4",""
"null","","","html-keyboard-response","317","587085","0.0-317.0","z6aj31k0","","<span style=""color:Black; font-size:50px;"">Agent B","null","","","","",""
"null","","","video-keyboard-response","318","589781","0.0-318.0","z6aj31k0","","","null","","Agent B","veridical","FOR_REV_MAP_BLOBBY_STIM/1592350.bmp_pp55_L3_V1.0_veridical_freeview_isoTrue_fps144.mp4",""
"","","","call-function","319","589782","0.0-319.0","z6aj31k0","","","","","","","",""
"1427.0549999999348","{""judgement"":0}","[0]","survey-likert","320","591210","0.0-320.0","z6aj31k0","","","","","","","","1"
"1038.6749999999302","{""confidence"":1}","[0]","survey-likert","321","592250","0.0-321.0","z6aj31k0","","","","","","","",""
"","","","call-function","322","592251","0.0-322.0","z6aj31k0","","","","","","","",""
"null","","","html-keyboard-response","323","593752","0.0-323.0","z6aj31k0","","<span style=""color:Black; font-size:50px;"">Agent A","null","","","","",""
"null","","","video-keyboard-response","324","596607","0.0-324.0","z6aj31k0","","","null","","Agent A","scrambled","FOR_REV_MAP_BLOBBY_STIM/1592201.bmp_pp97_L3_V1.0_veridical_freeview_isoTrue_fps144_reversed_REAL.mp4",""
"null","","","html-keyboard-response","325","598113","0.0-325.0","z6aj31k0","","<span style=""color:Black; font-size:50px;"">Agent B","null","","","","",""
"null","","","video-keyboard-response","326","600968","0.0-326.0","z6aj31k0","","","null","","Agent B","veridical","FOR_REV_MAP_BLOBBY_STIM/1592201.bmp_pp97_L3_V1.0_veridical_freeview_isoTrue_fps144.mp4",""
"","","","call-function","327","600968","0.0-327.0","z6aj31k0","","","","","","","",""
"880.6650000000373","{""judgement"":0}","[0]","survey-likert","328","601850","0.0-328.0","z6aj31k0","","","","","","","","1"
"1149.8549999999814","{""confidence"":0}","[0]","survey-likert","329","603002","0.0-329.0","z6aj31k0","","","","","","","",""
"","","","call-function","330","603002","0.0-330.0","z6aj31k0","","","","","","","",""
"null","","","html-keyboard-response","331","604505","0.0-331.0","z6aj31k0","","<span style=""color:Black; font-size:50px;"">Agent A","null","","","","",""
"null","","","video-keyboard-response","332","607280","0.0-332.0","z6aj31k0","","","null","","Agent A","veridical","FOR_REV_MAP_BLOBBY_STIM/1592044.bmp_pp94_L2_V1.0_veridical_freeview_isoTrue_fps144.mp4",""
"null","","","html-keyboard-response","333","608783","0.0-333.0","z6aj31k0","","<span style=""color:Black; font-size:50px;"">Agent B","null","","","","",""
"null","","","video-keyboard-response","334","611557","0.0-334.0","z6aj31k0","","","null","","Agent B","scrambled","FOR_REV_MAP_BLOBBY_STIM/1592044.bmp_pp94_L2_V1.0_veridical_freeview_isoTrue_fps144_reversed_REAL.mp4",""
"","","","call-function","335","611557","0.0-335.0","z6aj31k0","","","","","","","",""
"1123.6149999999907","{""judgement"":1}","[0]","survey-likert","336","612682","0.0-336.0","z6aj31k0","","","","","","","","0"
"2270.835000000079","{""confidence"":1}","[0]","survey-likert","337","614954","0.0-337.0","z6aj31k0","","","","","","","",""
"46061.96999999997","","","instructions","338","661017","0.0-338.0","z6aj31k0","[{""page_index"":0,""viewing_time"":2301.695000000065},{""page_index"":1,""viewing_time"":1343.9449999999488},{""page_index"":2,""viewing_time"":42416.130000000005}]","","","","","","",""
"3279.155000000028","","","instructions","339","664297","0.0-339.0","z6aj31k0","[{""page_index"":0,""viewing_time"":1175.0350000000326},{""page_index"":1,""viewing_time"":1112.0050000000047},{""page_index"":2,""viewing_time"":991.9549999999581}]","","","","","","",""
"","","","call-function","340","664297","0.0-340.0","z6aj31k0","","","","","","","",""
"null","","","html-keyboard-response","341","665799","0.0-341.0","z6aj31k0","","<span style=""color:Black; font-size:50px;"">Agent A","null","","","","",""
"null","","","video-keyboard-response","342","668598","0.0-342.0","z6aj31k0","","","null","","Agent A","scrambled","FOR_REV_MAP_BLOBBY_STIM/1592150.bmp_pp77_L3_V1.0_veridical_freeview_isoTrue_fps144_reversed_REAL.mp4",""
"null","","","html-keyboard-response","343","670100","0.0-343.0","z6aj31k0","","<span style=""color:Black; font-size:50px;"">Agent B","null","","","","",""
"null","","","video-keyboard-response","344","672893","0.0-344.0","z6aj31k0","","","null","","Agent B","veridical","FOR_REV_MAP_BLOBBY_STIM/1592150.bmp_pp77_L3_V1.0_veridical_freeview_isoTrue_fps144.mp4",""
"","","","call-function","345","672893","0.0-345.0","z6aj31k0","","","","","","","",""
"1883.8149999999441","{""judgement"":0}","[0]","survey-likert","346","674778","0.0-346.0","z6aj31k0","","","","","","","","1"
"2478.4799999999814","{""confidence"":1}","[0]","survey-likert","347","677258","0.0-347.0","z6aj31k0","","","","","","","",""
"","","","call-function","348","677259","0.0-348.0","z6aj31k0","","","","","","","",""
"null","","","html-keyboard-response","349","678761","0.0-349.0","z6aj31k0","","<span style=""color:Black; font-size:50px;"">Agent A","null","","","","",""
"null","","","video-keyboard-response","350","681184","0.0-350.0","z6aj31k0","","","null","","Agent A","scrambled","FOR_REV_MAP_BLOBBY_STIM/1592951.bmp_pp80_L3_V1.0_veridical_freeview_isoTrue_fps144_reversed_REAL.mp4",""
"null","","","html-keyboard-response","351","682687","0.0-351.0","z6aj31k0","","<span style=""color:Black; font-size:50px;"">Agent B","null","","","","",""
"null","","","video-keyboard-response","352","685111","0.0-352.0","z6aj31k0","","","null","","Agent B","veridical","FOR_REV_MAP_BLOBBY_STIM/1592951.bmp_pp80_L3_V1.0_veridical_freeview_isoTrue_fps144.mp4",""
"","","","call-function","353","685111","0.0-353.0","z6aj31k0","","","","","","","",""
"977.4599999999627","{""judgement"":0}","[0]","survey-likert","354","686090","0.0-354.0","z6aj31k0","","","","","","","","1"
"2678.539999999921","{""confidence"":0}","[0]","survey-likert","355","688770","0.0-355.0","z6aj31k0","","","","","","","",""
"","","","call-function","356","688771","0.0-356.0","z6aj31k0","","","","","","","",""
"null","","","html-keyboard-response","357","690274","0.0-357.0","z6aj31k0","","<span style=""color:Black; font-size:50px;"">Agent A","null","","","","",""
"null","","","video-keyboard-response","358","693052","0.0-358.0","z6aj31k0","","","null","","Agent A","veridical","FOR_REV_MAP_BLOBBY_STIM/1160049.bmp_pp53_L2_V1.0_veridical_freeview_isoTrue_fps144.mp4",""
"null","","","html-keyboard-response","359","694554","0.0-359.0","z6aj31k0","","<span style=""color:Black; font-size:50px;"">Agent B","null","","","","",""
"null","","","video-keyboard-response","360","697335","0.0-360.0","z6aj31k0","","","null","","Agent B","scrambled","FOR_REV_MAP_BLOBBY_STIM/1160049.bmp_pp53_L2_V1.0_veridical_freeview_isoTrue_fps144_reversed_REAL.mp4",""
"","","","call-function","361","697336","0.0-361.0","z6aj31k0","","","","","","","",""
"1337.0500000000466","{""judgement"":1}","[0]","survey-likert","362","698674","0.0-362.0","z6aj31k0","","","","","","","","0"
"1430.7700000000186","{""confidence"":2}","[0]","survey-likert","363","700106","0.0-363.0","z6aj31k0","","","","","","","",""
"","","","call-function","364","700107","0.0-364.0","z6aj31k0","","","","","","","",""
"null","","","html-keyboard-response","365","701607","0.0-365.0","z6aj31k0","","<span style=""color:Black; font-size:50px;"">Agent A","null","","","","",""
"null","","","video-keyboard-response","366","704350","0.0-366.0","z6aj31k0","","","null","","Agent A","veridical","FOR_REV_MAP_BLOBBY_STIM/1159956.bmp_pp59_L3_V1.0_veridical_freeview_isoTrue_fps144.mp4",""
"null","","","html-keyboard-response","367","705854","0.0-367.0","z6aj31k0","","<span style=""color:Black; font-size:50px;"">Agent B","null","","","","",""
"null","","","video-keyboard-response","368","708591","0.0-368.0","z6aj31k0","","","null","","Agent B","scrambled","FOR_REV_MAP_BLOBBY_STIM/1159956.bmp_pp59_L3_V1.0_veridical_freeview_isoTrue_fps144_reversed_REAL.mp4",""
"","","","call-function","369","708592","0.0-369.0","z6aj31k0","","","","","","","",""
"961.3349999999627","{""judgement"":0}","[0]","survey-likert","370","709554","0.0-370.0","z6aj31k0","","","","","","","","0"
"1462.594999999972","{""confidence"":1}","[0]","survey-likert","371","711018","0.0-371.0","z6aj31k0","","","","","","","",""
"","","","call-function","372","711019","0.0-372.0","z6aj31k0","","","","","","","",""
"null","","","html-keyboard-response","373","712524","0.0-373.0","z6aj31k0","","<span style=""color:Black; font-size:50px;"">Agent A","null","","","","",""
"null","","","video-keyboard-response","374","715204","0.0-374.0","z6aj31k0","","","null","","Agent A","scrambled","FOR_REV_MAP_BLOBBY_STIM/713788.bmp_pp52_L1_V1.0_veridical_freeview_isoTrue_fps144_reversed_REAL.mp4",""
"null","","","html-keyboard-response","375","716706","0.0-375.0","z6aj31k0","","<span style=""color:Black; font-size:50px;"">Agent B","null","","","","",""
"null","","","video-keyboard-response","376","719390","0.0-376.0","z6aj31k0","","","null","","Agent B","veridical","FOR_REV_MAP_BLOBBY_STIM/713788.bmp_pp52_L1_V1.0_veridical_freeview_isoTrue_fps144.mp4",""
"","","","call-function","377","719390","0.0-377.0","z6aj31k0","","","","","","","",""
"1338.2949999999255","{""judgement"":0}","[0]","survey-likert","378","720730","0.0-378.0","z6aj31k0","","","","","","","","1"
"1150.579999999958","{""confidence"":2}","[0]","survey-likert","379","721882","0.0-379.0","z6aj31k0","","","","","","","",""
"","","","call-function","380","721883","0.0-380.0","z6aj31k0","","","","","","","",""
"null","","","html-keyboard-response","381","723384","0.0-381.0","z6aj31k0","","<span style=""color:Black; font-size:50px;"">Agent A","null","","","","",""
"null","","","video-keyboard-response","382","726163","0.0-382.0","z6aj31k0","","","null","","Agent A","scrambled","FOR_REV_MAP_BLOBBY_STIM/1159860.bmp_pp152_L2_V1.0_veridical_freeview_isoTrue_fps144_reversed_REAL.mp4",""
"null","","","html-keyboard-response","383","727667","0.0-383.0","z6aj31k0","","<span style=""color:Black; font-size:50px;"">Agent B","null","","","","",""
"null","","","video-keyboard-response","384","730446","0.0-384.0","z6aj31k0","","","null","","Agent B","veridical","FOR_REV_MAP_BLOBBY_STIM/1159860.bmp_pp152_L2_V1.0_veridical_freeview_isoTrue_fps144.mp4",""
"","","","call-function","385","730447","0.0-385.0","z6aj31k0","","","","","","","",""
"1433.7399999999907","{""judgement"":0}","[0]","survey-likert","386","731882","0.0-386.0","z6aj31k0","","","","","","","","1"
"774.7999999999302","{""confidence"":0}","[0]","survey-likert","387","732658","0.0-387.0","z6aj31k0","","","","","","","",""
"","","","call-function","388","732659","0.0-388.0","z6aj31k0","","","","","","","",""
"null","","","html-keyboard-response","389","734161","0.0-389.0","z6aj31k0","","<span style=""color:Black; font-size:50px;"">Agent A","null","","","","",""
"null","","","video-keyboard-response","390","736932","0.0-390.0","z6aj31k0","","","null","","Agent A","veridical","FOR_REV_MAP_BLOBBY_STIM/285932.bmp_pp64_L1_V1.0_veridical_freeview_isoTrue_fps144.mp4",""
"null","","","html-keyboard-response","391","738438","0.0-391.0","z6aj31k0","","<span style=""color:Black; font-size:50px;"">Agent B","null","","","","",""
"null","","","video-keyboard-response","392","741210","0.0-392.0","z6aj31k0","","","null","","Agent B","scrambled","FOR_REV_MAP_BLOBBY_STIM/285932.bmp_pp64_L1_V1.0_veridical_freeview_isoTrue_fps144_reversed_REAL.mp4",""
"","","","call-function","393","741210","0.0-393.0","z6aj31k0","","","","","","","",""
"1446.8499999999767","{""judgement"":0}","[0]","survey-likert","394","742658","0.0-394.0","z6aj31k0","","","","","","","","0"
"2990.484999999986","{""confidence"":0}","[0]","survey-likert","395","745650","0.0-395.0","z6aj31k0","","","","","","","",""
"","","","call-function","396","745650","0.0-396.0","z6aj31k0","","","","","","","",""
"null","","","html-keyboard-response","397","747154","0.0-397.0","z6aj31k0","","<span style=""color:Black; font-size:50px;"">Agent A","null","","","","",""
"null","","","video-keyboard-response","398","750086","0.0-398.0","z6aj31k0","","","null","","Agent A","veridical","FOR_REV_MAP_BLOBBY_STIM/498025.bmp_pp81_L1_V1.0_veridical_freeview_isoTrue_fps144.mp4",""
"null","","","html-keyboard-response","399","751590","0.0-399.0","z6aj31k0","","<span style=""color:Black; font-size:50px;"">Agent B","null","","","","",""
"null","","","video-keyboard-response","400","754518","0.0-400.0","z6aj31k0","","","null","","Agent B","scrambled","FOR_REV_MAP_BLOBBY_STIM/498025.bmp_pp81_L1_V1.0_veridical_freeview_isoTrue_fps144_reversed_REAL.mp4",""
"","","","call-function","401","754518","0.0-401.0","z6aj31k0","","","","","","","",""
"2498.984999999986","{""judgement"":0}","[0]","survey-likert","402","757018","0.0-402.0","z6aj31k0","","","","","","","","0"
"1774.6199999999953","{""confidence"":1}","[0]","survey-likert","403","758794","0.0-403.0","z6aj31k0","","","","","","","",""
"","","","call-function","404","758795","0.0-404.0","z6aj31k0","","","","","","","",""
"null","","","html-keyboard-response","405","760295","0.0-405.0","z6aj31k0","","<span style=""color:Black; font-size:50px;"">Agent A","null","","","","",""
"null","","","video-keyboard-response","406","763146","0.0-406.0","z6aj31k0","","","null","","Agent A","scrambled","FOR_REV_MAP_BLOBBY_STIM/498396.bmp_pp99_L2_V1.0_veridical_freeview_isoTrue_fps144_reversed_REAL.mp4",""
"null","","","html-keyboard-response","407","764651","0.0-407.0","z6aj31k0","","<span style=""color:Black; font-size:50px;"">Agent B","null","","","","",""
"null","","","video-keyboard-response","408","767504","0.0-408.0","z6aj31k0","","","null","","Agent B","veridical","FOR_REV_MAP_BLOBBY_STIM/498396.bmp_pp99_L2_V1.0_veridical_freeview_isoTrue_fps144.mp4",""
"","","","call-function","409","767504","0.0-409.0","z6aj31k0","","","","","","","",""
"1256.469999999972","{""judgement"":0}","[0]","survey-likert","410","768762","0.0-410.0","z6aj31k0","","","","","","","","1"
"718.5600000000559","{""confidence"":0}","[0]","survey-likert","411","769482","0.0-411.0","z6aj31k0","","","","","","","",""
"","","","call-function","412","769483","0.0-412.0","z6aj31k0","","","","","","","",""
"null","","","html-keyboard-response","413","770988","0.0-413.0","z6aj31k0","","<span style=""color:Black; font-size:50px;"">Agent A","null","","","","",""
"null","","","video-keyboard-response","414","773835","0.0-414.0","z6aj31k0","","","null","","Agent A","veridical","FOR_REV_MAP_BLOBBY_STIM/498261.bmp_pp84_L3_V1.0_veridical_freeview_isoTrue_fps144.mp4",""
"null","","","html-keyboard-response","415","775339","0.0-415.0","z6aj31k0","","<span style=""color:Black; font-size:50px;"">Agent B","null","","","","",""
"null","","","video-keyboard-response","416","778187","0.0-416.0","z6aj31k0","","","null","","Agent B","scrambled","FOR_REV_MAP_BLOBBY_STIM/498261.bmp_pp84_L3_V1.0_veridical_freeview_isoTrue_fps144_reversed_REAL.mp4",""
"","","","call-function","417","778188","0.0-417.0","z6aj31k0","","","","","","","",""
"1005.6999999999534","{""judgement"":0}","[0]","survey-likert","418","779194","0.0-418.0","z6aj31k0","","","","","","","","0"
"966.4850000001024","{""confidence"":2}","[0]","survey-likert","419","780162","0.0-419.0","z6aj31k0","","","","","","","",""
"2734.0250000000233","","","instructions","420","782897","0.0-420.0","z6aj31k0","[{""page_index"":0,""viewing_time"":1373.8200000000652},{""page_index"":1,""viewing_time"":743.9549999999581},{""page_index"":2,""viewing_time"":616.0949999999721}]","","","","","","",""
"2783.394999999902","","","instructions","421","785681","0.0-421.0","z6aj31k0","[{""page_index"":0,""viewing_time"":1303},{""page_index"":1,""viewing_time"":767.9949999999953},{""page_index"":2,""viewing_time"":712.1649999999208}]","","","","","","",""
"","","","call-function","422","785683","0.0-422.0","z6aj31k0","","","","","","","",""
"140.67499999993015","","","html-keyboard-response","423","785825","0.0-423.0","z6aj31k0","","<span style=""color:Black; font-size:50px;"">Agent A","9","","","","",""
"null","","","video-keyboard-response","424","788591","0.0-424.0","z6aj31k0","","","null","","Agent A","veridical","FOR_REV_MAP_BLOBBY_STIM/1592047.bmp_pp51_L1_V1.0_veridical_freeview_isoTrue_fps144.mp4",""
"null","","","html-keyboard-response","425","790093","0.0-425.0","z6aj31k0","","<span style=""color:Black; font-size:50px;"">Agent B","null","","","","",""
"null","","","video-keyboard-response","426","792853","0.0-426.0","z6aj31k0","","","null","","Agent B","scrambled","FOR_REV_MAP_BLOBBY_STIM/1592047.bmp_pp51_L1_V1.0_veridical_freeview_isoTrue_fps144_reversed_REAL.mp4",""
"","","","call-function","427","792855","0.0-427.0","z6aj31k0","","","","","","","",""
"1242.329999999958","{""judgement"":0}","[0]","survey-likert","428","794099","0.0-428.0","z6aj31k0","","","","","","","","0"
"1062.2550000000047","{""confidence"":1}","[0]","survey-likert","429","795162","0.0-429.0","z6aj31k0","","","","","","","",""
"","","","call-function","430","795163","0.0-430.0","z6aj31k0","","","","","","","",""
"212.9200000000419","","","html-keyboard-response","431","795377","0.0-431.0","z6aj31k0","","<span style=""color:Black; font-size:50px;"">Agent A","9","","","","",""
"null","","","video-keyboard-response","432","798165","0.0-432.0","z6aj31k0","","","null","","Agent A","veridical","FOR_REV_MAP_BLOBBY_STIM/713790.bmp_pp100_L3_V1.0_veridical_freeview_isoTrue_fps144.mp4",""
"null","","","html-keyboard-response","433","799671","0.0-433.0","z6aj31k0","","<span style=""color:Black; font-size:50px;"">Agent B","null","","","","",""
"null","","","video-keyboard-response","434","802459","0.0-434.0","z6aj31k0","","","null","","Agent B","scrambled","FOR_REV_MAP_BLOBBY_STIM/713790.bmp_pp100_L3_V1.0_veridical_freeview_isoTrue_fps144_reversed_REAL.mp4",""
"","","","call-function","435","802460","0.0-435.0","z6aj31k0","","","","","","","",""
"1445.3350000000792","{""judgement"":0}","[0]","survey-likert","436","803906","0.0-436.0","z6aj31k0","","","","","","","","0"
"1054.375","{""confidence"":0}","[0]","survey-likert","437","804962","0.0-437.0","z6aj31k0","","","","","","","",""
"","","","call-function","438","804963","0.0-438.0","z6aj31k0","","","","","","","",""
"null","","","html-keyboard-response","439","806468","0.0-439.0","z6aj31k0","","<span style=""color:Black; font-size:50px;"">Agent A","null","","","","",""
"null","","","video-keyboard-response","440","809299","0.0-440.0","z6aj31k0","","","null","","Agent A","scrambled","FOR_REV_MAP_BLOBBY_STIM/107955.bmp_pp90_L2_V1.0_veridical_freeview_isoTrue_fps144_reversed_REAL.mp4",""
"null","","","html-keyboard-response","441","810803","0.0-441.0","z6aj31k0","","<span style=""color:Black; font-size:50px;"">Agent B","null","","","","",""
"null","","","video-keyboard-response","442","813634","0.0-442.0","z6aj31k0","","","null","","Agent B","veridical","FOR_REV_MAP_BLOBBY_STIM/107955.bmp_pp90_L2_V1.0_veridical_freeview_isoTrue_fps144.mp4",""
"","","","call-function","443","813634","0.0-443.0","z6aj31k0","","","","","","","",""
"1103.0999999999767","{""judgement"":0}","[0]","survey-likert","444","814738","0.0-444.0","z6aj31k0","","","","","","","","1"
"1670.8150000000605","{""confidence"":0}","[0]","survey-likert","445","816410","0.0-445.0","z6aj31k0","","","","","","","",""
"","","","call-function","446","816411","0.0-446.0","z6aj31k0","","","","","","","",""
"null","","","html-keyboard-response","447","817914","0.0-447.0","z6aj31k0","","<span style=""color:Black; font-size:50px;"">Agent A","null","","","","",""
"null","","","video-keyboard-response","448","820775","0.0-448.0","z6aj31k0","","","null","","Agent A","veridical","FOR_REV_MAP_BLOBBY_STIM/1160189.bmp_pp64_L1_V1.0_veridical_freeview_isoTrue_fps144.mp4",""
"null","","","html-keyboard-response","449","822281","0.0-449.0","z6aj31k0","","<span style=""color:Black; font-size:50px;"">Agent B","null","","","","",""
"null","","","video-keyboard-response","450","825142","0.0-450.0","z6aj31k0","","","null","","Agent B","scrambled","FOR_REV_MAP_BLOBBY_STIM/1160189.bmp_pp64_L1_V1.0_veridical_freeview_isoTrue_fps144_reversed_REAL.mp4",""
"","","","call-function","451","825142","0.0-451.0","z6aj31k0","","","","","","","",""
"4058.689999999944","{""judgement"":0}","[0]","survey-likert","452","829202","0.0-452.0","z6aj31k0","","","","","","","","0"
"2614.409999999916","{""confidence"":0}","[0]","survey-likert","453","831818","0.0-453.0","z6aj31k0","","","","","","","",""
"","","","call-function","454","831819","0.0-454.0","z6aj31k0","","","","","","","",""
"null","","","html-keyboard-response","455","833320","0.0-455.0","z6aj31k0","","<span style=""color:Black; font-size:50px;"">Agent A","null","","","","",""
"null","","","video-keyboard-response","456","836155","0.0-456.0","z6aj31k0","","","null","","Agent A","veridical","FOR_REV_MAP_BLOBBY_STIM/713770.bmp_pp89_L1_V1.0_veridical_freeview_isoTrue_fps144.mp4",""
"null","","","html-keyboard-response","457","837660","0.0-457.0","z6aj31k0","","<span style=""color:Black; font-size:50px;"">Agent B","null","","","","",""
"null","","","video-keyboard-response","458","840474","0.0-458.0","z6aj31k0","","","null","","Agent B","scrambled","FOR_REV_MAP_BLOBBY_STIM/713770.bmp_pp89_L1_V1.0_veridical_freeview_isoTrue_fps144_reversed_REAL.mp4",""
"","","","call-function","459","840474","0.0-459.0","z6aj31k0","","","","","","","",""
"1822.7850000000326","{""judgement"":1}","[0]","survey-likert","460","842298","0.0-460.0","z6aj31k0","","","","","","","","0"
"3958.4100000000326","{""confidence"":2}","[0]","survey-likert","461","846258","0.0-461.0","z6aj31k0","","","","","","","",""
"","","","call-function","462","846259","0.0-462.0","z6aj31k0","","","","","","","",""
"null","","","html-keyboard-response","463","847760","0.0-463.0","z6aj31k0","","<span style=""color:Black; font-size:50px;"">Agent A","null","","","","",""
"null","","","video-keyboard-response","464","850586","0.0-464.0","z6aj31k0","","","null","","Agent A","scrambled","FOR_REV_MAP_BLOBBY_STIM/1592025.bmp_pp68_L1_V1.0_veridical_freeview_isoTrue_fps144_reversed_REAL.mp4",""
"null","","","html-keyboard-response","465","852092","0.0-465.0","z6aj31k0","","<span style=""color:Black; font-size:50px;"">Agent B","null","","","","",""
"null","","","video-keyboard-response","466","854948","0.0-466.0","z6aj31k0","","","null","","Agent B","veridical","FOR_REV_MAP_BLOBBY_STIM/1592025.bmp_pp68_L1_V1.0_veridical_freeview_isoTrue_fps144.mp4",""
"","","","call-function","467","854949","0.0-467.0","z6aj31k0","","","","","","","",""
"2349.1049999999814","{""judgement"":1}","[0]","survey-likert","468","857299","0.0-468.0","z6aj31k0","","","","","","","","1"
"1141.8100000000559","{""confidence"":1}","[0]","survey-likert","469","858442","0.0-469.0","z6aj31k0","","","","","","","",""
"","","","call-function","470","858443","0.0-470.0","z6aj31k0","","","","","","","",""
"null","","","html-keyboard-response","471","859944","0.0-471.0","z6aj31k0","","<span style=""color:Black; font-size:50px;"">Agent A","null","","","","",""
"null","","","video-keyboard-response","472","862711","0.0-472.0","z6aj31k0","","","null","","Agent A","veridical","FOR_REV_MAP_BLOBBY_STIM/150463.bmp_pp55_L3_V1.0_veridical_freeview_isoTrue_fps144.mp4",""
"null","","","html-keyboard-response","473","864212","0.0-473.0","z6aj31k0","","<span style=""color:Black; font-size:50px;"">Agent B","null","","","","",""
"null","","","video-keyboard-response","474","866980","0.0-474.0","z6aj31k0","","","null","","Agent B","scrambled","FOR_REV_MAP_BLOBBY_STIM/150463.bmp_pp55_L3_V1.0_veridical_freeview_isoTrue_fps144_reversed_REAL.mp4",""
"","","","call-function","475","866980","0.0-475.0","z6aj31k0","","","","","","","",""
"1820.704999999958","{""judgement"":0}","[0]","survey-likert","476","868802","0.0-476.0","z6aj31k0","","","","","","","","0"
"790.5500000000466","{""confidence"":0}","[0]","survey-likert","477","869594","0.0-477.0","z6aj31k0","","","","","","","",""
"","","","call-function","478","869595","0.0-478.0","z6aj31k0","","","","","","","",""
"null","","","html-keyboard-response","479","871097","0.0-479.0","z6aj31k0","","<span style=""color:Black; font-size:50px;"">Agent A","null","","","","",""
"null","","","video-keyboard-response","480","873779","0.0-480.0","z6aj31k0","","","null","","Agent A","scrambled","FOR_REV_MAP_BLOBBY_STIM/1592038.bmp_pp79_L2_V1.0_veridical_freeview_isoTrue_fps144_reversed_REAL.mp4",""
"null","","","html-keyboard-response","481","875282","0.0-481.0","z6aj31k0","","<span style=""color:Black; font-size:50px;"">Agent B","null","","","","",""
"null","","","video-keyboard-response","482","877974","0.0-482.0","z6aj31k0","","","null","","Agent B","veridical","FOR_REV_MAP_BLOBBY_STIM/1592038.bmp_pp79_L2_V1.0_veridical_freeview_isoTrue_fps144.mp4",""
"","","","call-function","483","877975","0.0-483.0","z6aj31k0","","","","","","","",""
"1986.6500000000233","{""judgement"":0}","[0]","survey-likert","484","879962","0.0-484.0","z6aj31k0","","","","","","","","1"
"990.5100000000093","{""confidence"":0}","[0]","survey-likert","485","880954","0.0-485.0","z6aj31k0","","","","","","","",""
"","","","call-function","486","880955","0.0-486.0","z6aj31k0","","","","","","","",""
"null","","","html-keyboard-response","487","882459","0.0-487.0","z6aj31k0","","<span style=""color:Black; font-size:50px;"">Agent A","null","","","","",""
"null","","","video-keyboard-response","488","885260","0.0-488.0","z6aj31k0","","","null","","Agent A","scrambled","FOR_REV_MAP_BLOBBY_STIM/1592305.bmp_pp65_L3_V1.0_veridical_freeview_isoTrue_fps144_reversed_REAL.mp4",""
"null","","","html-keyboard-response","489","886763","0.0-489.0","z6aj31k0","","<span style=""color:Black; font-size:50px;"">Agent B","null","","","","",""
"null","","","video-keyboard-response","490","889563","0.0-490.0","z6aj31k0","","","null","","Agent B","veridical","FOR_REV_MAP_BLOBBY_STIM/1592305.bmp_pp65_L3_V1.0_veridical_freeview_isoTrue_fps144.mp4",""
"","","","call-function","491","889564","0.0-491.0","z6aj31k0","","","","","","","",""
"1109.8649999999907","{""judgement"":0}","[0]","survey-likert","492","890674","0.0-492.0","z6aj31k0","","","","","","","","1"
"870.1600000000326","{""confidence"":0}","[0]","survey-likert","493","891546","0.0-493.0","z6aj31k0","","","","","","","",""
"","","","call-function","494","891547","0.0-494.0","z6aj31k0","","","","","","","",""
"null","","","html-keyboard-response","495","893049","0.0-495.0","z6aj31k0","","<span style=""color:Black; font-size:50px;"">Agent A","null","","","","",""
"null","","","video-keyboard-response","496","895725","0.0-496.0","z6aj31k0","","","null","","Agent A","scrambled","FOR_REV_MAP_BLOBBY_STIM/61513.bmp_pp75_L1_V1.0_veridical_freeview_isoTrue_fps144_reversed_REAL.mp4",""
"null","","","html-keyboard-response","497","897229","0.0-497.0","z6aj31k0","","<span style=""color:Black; font-size:50px;"">Agent B","null","","","","",""
"null","","","video-keyboard-response","498","899903","0.0-498.0","z6aj31k0","","","null","","Agent B","veridical","FOR_REV_MAP_BLOBBY_STIM/61513.bmp_pp75_L1_V1.0_veridical_freeview_isoTrue_fps144.mp4",""
"","","","call-function","499","899903","0.0-499.0","z6aj31k0","","","","","","","",""
"1049.905000000028","{""judgement"":0}","[0]","survey-likert","500","900954","0.0-500.0","z6aj31k0","","","","","","","","1"
"1102.469999999972","{""confidence"":2}","[0]","survey-likert","501","902058","0.0-501.0","z6aj31k0","","","","","","","",""
"3197.969999999972","","","instructions","502","905257","0.0-502.0","z6aj31k0","[{""page_index"":0,""viewing_time"":1581.7899999999208},{""page_index"":1,""viewing_time"":903.9500000000698},{""page_index"":2,""viewing_time"":711.9799999999814}]","","","","","","",""
"2151.0650000000605","","","instructions","503","907409","0.0-503.0","z6aj31k0","[{""page_index"":0,""viewing_time"":567.015000000014},{""page_index"":1,""viewing_time"":903.9799999999814},{""page_index"":2,""viewing_time"":679.9250000000466}]","","","","","","",""
"","","","call-function","504","907410","0.0-504.0","z6aj31k0","","","","","","","",""
"null","","","html-keyboard-response","505","908915","0.0-505.0","z6aj31k0","","<span style=""color:Black; font-size:50px;"">Agent A","null","","","","",""
"null","","","video-keyboard-response","506","911751","0.0-506.0","z6aj31k0","","","null","","Agent A","veridical","FOR_REV_MAP_BLOBBY_STIM/1160204.bmp_pp54_L2_V1.0_veridical_freeview_isoTrue_fps144.mp4",""
"null","","","html-keyboard-response","507","913256","0.0-507.0","z6aj31k0","","<span style=""color:Black; font-size:50px;"">Agent B","null","","","","",""
"null","","","video-keyboard-response","508","916092","0.0-508.0","z6aj31k0","","","null","","Agent B","scrambled","FOR_REV_MAP_BLOBBY_STIM/1160204.bmp_pp54_L2_V1.0_veridical_freeview_isoTrue_fps144_reversed_REAL.mp4",""
"","","","call-function","509","916092","0.0-509.0","z6aj31k0","","","","","","","",""
"1228.984999999986","{""judgement"":0}","[0]","survey-likert","510","917322","0.0-510.0","z6aj31k0","","","","","","","","0"
"1598.4299999999348","{""confidence"":2}","[0]","survey-likert","511","918922","0.0-511.0","z6aj31k0","","","","","","","",""
"","","","call-function","512","918923","0.0-512.0","z6aj31k0","","","","","","","",""
"null","","","html-keyboard-response","513","920428","0.0-513.0","z6aj31k0","","<span style=""color:Black; font-size:50px;"">Agent A","null","","","","",""
"null","","","video-keyboard-response","514","923266","0.0-514.0","z6aj31k0","","","null","","Agent A","scrambled","FOR_REV_MAP_BLOBBY_STIM/713829.bmp_pp60_L3_V1.0_veridical_freeview_isoTrue_fps144_reversed_REAL.mp4",""
"null","","","html-keyboard-response","515","924772","0.0-515.0","z6aj31k0","","<span style=""color:Black; font-size:50px;"">Agent B","null","","","","",""
"null","","","video-keyboard-response","516","927598","0.0-516.0","z6aj31k0","","","null","","Agent B","veridical","FOR_REV_MAP_BLOBBY_STIM/713829.bmp_pp60_L3_V1.0_veridical_freeview_isoTrue_fps144.mp4",""
"","","","call-function","517","927598","0.0-517.0","z6aj31k0","","","","","","","",""
"1482.9899999999907","{""judgement"":1}","[0]","survey-likert","518","929082","0.0-518.0","z6aj31k0","","","","","","","","1"
"1246.490000000107","{""confidence"":3}","[0]","survey-likert","519","930331","0.0-519.0","z6aj31k0","","","","","","","",""
"","","","call-function","520","930331","0.0-520.0","z6aj31k0","","","","","","","",""
"null","","","html-keyboard-response","521","931837","0.0-521.0","z6aj31k0","","<span style=""color:Black; font-size:50px;"">Agent A","null","","","","",""
"null","","","video-keyboard-response","522","934568","0.0-522.0","z6aj31k0","","","null","","Agent A","veridical","FOR_REV_MAP_BLOBBY_STIM/285959.bmp_pp93_L1_V1.0_veridical_freeview_isoTrue_fps144.mp4",""
"null","","","html-keyboard-response","523","936072","0.0-523.0","z6aj31k0","","<span style=""color:Black; font-size:50px;"">Agent B","null","","","","",""
"null","","","video-keyboard-response","524","938813","0.0-524.0","z6aj31k0","","","null","","Agent B","scrambled","FOR_REV_MAP_BLOBBY_STIM/285959.bmp_pp93_L1_V1.0_veridical_freeview_isoTrue_fps144_reversed_REAL.mp4",""
"","","","call-function","525","938814","0.0-525.0","z6aj31k0","","","","","","","",""
"947.6600000000326","{""judgement"":0}","[0]","survey-likert","526","939762","0.0-526.0","z6aj31k0","","","","","","","","0"
"878.3199999999488","{""confidence"":0}","[0]","survey-likert","527","940642","0.0-527.0","z6aj31k0","","","","","","","",""
"","","","call-function","528","940643","0.0-528.0","z6aj31k0","","","","","","","",""
"null","","","html-keyboard-response","529","942144","0.0-529.0","z6aj31k0","","<span style=""color:Black; font-size:50px;"">Agent A","null","","","","",""
"null","","","video-keyboard-response","530","944904","0.0-530.0","z6aj31k0","","","null","","Agent A","veridical","FOR_REV_MAP_BLOBBY_STIM/1160247.bmp_pp54_L2_V1.0_veridical_freeview_isoTrue_fps144.mp4",""
"null","","","html-keyboard-response","531","946406","0.0-531.0","z6aj31k0","","<span style=""color:Black; font-size:50px;"">Agent B","null","","","","",""
"null","","","video-keyboard-response","532","949167","0.0-532.0","z6aj31k0","","","null","","Agent B","scrambled","FOR_REV_MAP_BLOBBY_STIM/1160247.bmp_pp54_L2_V1.0_veridical_freeview_isoTrue_fps144_reversed_REAL.mp4",""
"","","","call-function","533","949167","0.0-533.0","z6aj31k0","","","","","","","",""
"1482.4499999999534","{""judgement"":0}","[0]","survey-likert","534","950650","0.0-534.0","z6aj31k0","","","","","","","","0"
"2830.5","{""confidence"":0}","[0]","survey-likert","535","953482","0.0-535.0","z6aj31k0","","","","","","","",""
"","","","call-function","536","953483","0.0-536.0","z6aj31k0","","","","","","","",""
"null","","","html-keyboard-response","537","954985","0.0-537.0","z6aj31k0","","<span style=""color:Black; font-size:50px;"">Agent A","null","","","","",""
"null","","","video-keyboard-response","538","957795","0.0-538.0","z6aj31k0","","","null","","Agent A","veridical","FOR_REV_MAP_BLOBBY_STIM/1592921.bmp_pp69_L3_V1.0_veridical_freeview_isoTrue_fps144.mp4",""
"null","","","html-keyboard-response","539","959298","0.0-539.0","z6aj31k0","","<span style=""color:Black; font-size:50px;"">Agent B","null","","","","",""
"null","","","video-keyboard-response","540","962108","0.0-540.0","z6aj31k0","","","null","","Agent B","scrambled","FOR_REV_MAP_BLOBBY_STIM/1592921.bmp_pp69_L3_V1.0_veridical_freeview_isoTrue_fps144_reversed_REAL.mp4",""
"","","","call-function","541","962109","0.0-541.0","z6aj31k0","","","","","","","",""
"2580.82500000007","{""judgement"":0}","[0]","survey-likert","542","964690","0.0-542.0","z6aj31k0","","","","","","","","0"
"974.5700000000652","{""confidence"":1}","[0]","survey-likert","543","965666","0.0-543.0","z6aj31k0","","","","","","","",""
"","","","call-function","544","965667","0.0-544.0","z6aj31k0","","","","","","","",""
"null","","","html-keyboard-response","545","967169","0.0-545.0","z6aj31k0","","<span style=""color:Black; font-size:50px;"">Agent A","null","","","","",""
"null","","","video-keyboard-response","546","969988","0.0-546.0","z6aj31k0","","","null","","Agent A","veridical","FOR_REV_MAP_BLOBBY_STIM/1159508.bmp_pp151_L1_V1.0_veridical_freeview_isoTrue_fps144.mp4",""
"null","","","html-keyboard-response","547","971490","0.0-547.0","z6aj31k0","","<span style=""color:Black; font-size:50px;"">Agent B","null","","","","",""
"null","","","video-keyboard-response","548","974312","0.0-548.0","z6aj31k0","","","null","","Agent B","scrambled","FOR_REV_MAP_BLOBBY_STIM/1159508.bmp_pp151_L1_V1.0_veridical_freeview_isoTrue_fps144_reversed_REAL.mp4",""
"","","","call-function","549","974313","0.0-549.0","z6aj31k0","","","","","","","",""
"1456.5500000000466","{""judgement"":0}","[0]","survey-likert","550","975770","0.0-550.0","z6aj31k0","","","","","","","","0"
"1270.5849999999627","{""confidence"":0}","[0]","survey-likert","551","977042","0.0-551.0","z6aj31k0","","","","","","","",""
"","","","call-function","552","977043","0.0-552.0","z6aj31k0","","","","","","","",""
"null","","","html-keyboard-response","553","978545","0.0-553.0","z6aj31k0","","<span style=""color:Black; font-size:50px;"">Agent A","null","","","","",""
"null","","","video-keyboard-response","554","981338","0.0-554.0","z6aj31k0","","","null","","Agent A","veridical","FOR_REV_MAP_BLOBBY_STIM/286034.bmp_pp69_L3_V1.0_veridical_freeview_isoTrue_fps144.mp4",""
"null","","","html-keyboard-response","555","982841","0.0-555.0","z6aj31k0","","<span style=""color:Black; font-size:50px;"">Agent B","null","","","","",""
"null","","","video-keyboard-response","556","985637","0.0-556.0","z6aj31k0","","","null","","Agent B","scrambled","FOR_REV_MAP_BLOBBY_STIM/286034.bmp_pp69_L3_V1.0_veridical_freeview_isoTrue_fps144_reversed_REAL.mp4",""
"","","","call-function","557","985637","0.0-557.0","z6aj31k0","","","","","","","",""
"1388.0050000000047","{""judgement"":1}","[0]","survey-likert","558","987026","0.0-558.0","z6aj31k0","","","","","","","","0"
"942.5200000000186","{""confidence"":0}","[0]","survey-likert","559","987970","0.0-559.0","z6aj31k0","","","","","","","",""
"","","","call-function","560","987971","0.0-560.0","z6aj31k0","","","","","","","",""
"null","","","html-keyboard-response","561","989475","0.0-561.0","z6aj31k0","","<span style=""color:Black; font-size:50px;"">Agent A","null","","","","",""
"null","","","video-keyboard-response","562","992225","0.0-562.0","z6aj31k0","","","null","","Agent A","scrambled","FOR_REV_MAP_BLOBBY_STIM/1592168.bmp_pp71_L1_V1.0_veridical_freeview_isoTrue_fps144_reversed_REAL.mp4",""
"null","","","html-keyboard-response","563","993728","0.0-563.0","z6aj31k0","","<span style=""color:Black; font-size:50px;"">Agent B","null","","","","",""
"null","","","video-keyboard-response","564","996488","0.0-564.0","z6aj31k0","","","null","","Agent B","veridical","FOR_REV_MAP_BLOBBY_STIM/1592168.bmp_pp71_L1_V1.0_veridical_freeview_isoTrue_fps144.mp4",""
"","","","call-function","565","996489","0.0-565.0","z6aj31k0","","","","","","","",""
"1744.5250000000233","{""judgement"":1}","[0]","survey-likert","566","998234","0.0-566.0","z6aj31k0","","","","","","","","1"
"886.5450000000419","{""confidence"":1}","[0]","survey-likert","567","999122","0.0-567.0","z6aj31k0","","","","","","","",""
"","","","call-function","568","999123","0.0-568.0","z6aj31k0","","","","","","","",""
"null","","","html-keyboard-response","569","1000624","0.0-569.0","z6aj31k0","","<span style=""color:Black; font-size:50px;"">Agent A","null","","","","",""
"null","","","video-keyboard-response","570","1003419","0.0-570.0","z6aj31k0","","","null","","Agent A","veridical","FOR_REV_MAP_BLOBBY_STIM/107909.bmp_pp95_L2_V1.0_veridical_freeview_isoTrue_fps144.mp4",""
"null","","","html-keyboard-response","571","1004922","0.0-571.0","z6aj31k0","","<span style=""color:Black; font-size:50px;"">Agent B","null","","","","",""
"null","","","video-keyboard-response","572","1007751","0.0-572.0","z6aj31k0","","","null","","Agent B","scrambled","FOR_REV_MAP_BLOBBY_STIM/107909.bmp_pp95_L2_V1.0_veridical_freeview_isoTrue_fps144_reversed_REAL.mp4",""
"","","","call-function","573","1007751","0.0-573.0","z6aj31k0","","","","","","","",""
"1794.0250000000233","{""judgement"":0}","[0]","survey-likert","574","1009546","0.0-574.0","z6aj31k0","","","","","","","","0"
"926.7199999999721","{""confidence"":0}","[0]","survey-likert","575","1010474","0.0-575.0","z6aj31k0","","","","","","","",""
"","","","call-function","576","1010475","0.0-576.0","z6aj31k0","","","","","","","",""
"null","","","html-keyboard-response","577","1011980","0.0-577.0","z6aj31k0","","<span style=""color:Black; font-size:50px;"">Agent A","null","","","","",""
"null","","","video-keyboard-response","578","1014774","0.0-578.0","z6aj31k0","","","null","","Agent A","veridical","FOR_REV_MAP_BLOBBY_STIM/1592289.bmp_pp92_L3_V1.0_veridical_freeview_isoTrue_fps144.mp4",""
"null","","","html-keyboard-response","579","1016278","0.0-579.0","z6aj31k0","","<span style=""color:Black; font-size:50px;"">Agent B","null","","","","",""
"null","","","video-keyboard-response","580","1019065","0.0-580.0","z6aj31k0","","","null","","Agent B","scrambled","FOR_REV_MAP_BLOBBY_STIM/1592289.bmp_pp92_L3_V1.0_veridical_freeview_isoTrue_fps144_reversed_REAL.mp4",""
"","","","call-function","581","1019065","0.0-581.0","z6aj31k0","","","","","","","",""
"1168.1949999999488","{""judgement"":0}","[0]","survey-likert","582","1020234","0.0-582.0","z6aj31k0","","","","","","","","0"
"999.6149999999907","{""confidence"":2}","[0]","survey-likert","583","1021235","0.0-583.0","z6aj31k0","","","","","","","",""
"2260.8950000000186","","","instructions","584","1023497","0.0-584.0","z6aj31k0","[{""page_index"":0,""viewing_time"":2260.704999999958}]","","","","","","",""
"4887.144999999902","","","instructions","585","1028385","0.0-585.0","z6aj31k0","[{""page_index"":0,""viewing_time"":4886.989999999991}]","","","","","","",""
"5119.649999999907","{""post-1"":2}","[0]","survey-likert","586","1033506","0.0-586.0","z6aj31k0","","","","","","","",""
"2606.484999999986","{""post-1"":1}","[0]","survey-likert","587","1036114","0.0-587.0","z6aj31k0","","","","","","","",""
"5502.609999999986","{""post-2"":2}","[0]","survey-likert","588","1041619","0.0-588.0","z6aj31k0","","","","","","","",""
"4006.430000000051","{""post-2"":1}","[0]","survey-likert","589","1045626","0.0-589.0","z6aj31k0","","","","","","","",""
"4790.494999999879","{""post-3"":1}","[0]","survey-likert","590","1050418","0.0-590.0","z6aj31k0","","","","","","","",""
"5935.285000000149","{""post-3"":0}","[0]","survey-likert","591","1056355","0.0-591.0","z6aj31k0","","","","","","","",""
"6382.149999999907","{""post-4"":1}","[0]","survey-likert","592","1062739","0.0-592.0","z6aj31k0","","","","","","","",""
"6497.979999999981","{""post-4"":0}","[0]","survey-likert","593","1069238","0.0-593.0","z6aj31k0","","","","","","","",""
"10276.065000000177","{""post-5"":1}","[0]","survey-likert","594","1079516","0.0-594.0","z6aj31k0","","","","","","","",""
"2044.6000000000931","{""post-5"":2}","[0]","survey-likert","595","1081563","0.0-595.0","z6aj31k0","","","","","","","",""
"24290.26500000013","{""Q0"":""It was comfortable and well explained. o complaints.""}","","survey-text","596","1105860","0.0-596.0","z6aj31k0","","","","","","","",""
"132740.0049999999","{""Q0"":""In the last few chunks, I was trying to pay attention to how mechanic the movements felt, how long the viewer would linger, whether the viewer would return to things he lingered on, and whether the viewing began from the center or the sides. My theory is that a more \""fluid\"" movement is more likely to be human, that humans are not likely to return to an object and linger for longer than they did at the initial viewing, and that humans are likely to approach viewing from the center outward.""}","","survey-text","597","1238605","0.0-597.0","z6aj31k0","","","","","","","",""
"57586.15500000003","{""Q0"":""That it had no pictures, obviously.\nAlso, similarly to the picture experiment, when the patterns were very similar in that they were looking at the same area with slightly different orders and slightly different lengths.""}","","survey-text","598","1296196","0.0-598.0","z6aj31k0","","","","","","","",""
"1483.7699999997858","","","instructions","599","1297682","0.0-599.0","z6aj31k0","[{""page_index"":0,""viewing_time"":1483.469999999972}]","","","","","","",""
"27547.89000000013","{""Experimenter_end"":[""Printed ID# z6aj31k0 on consent form"",""Given subject SONA credit or payment"",""Given the subject debrief form""]}","[0]","survey-multi-select","600","1325233","0.0-600.0","z6aj31k0","","","","","","","",""
