"rt","responses","question_order","trial_type","trial_index","time_elapsed","internal_node_id","ID","view_history","stimulus","key_press","value","agent","condition","image","correct_answer"
"77607.37","{""Experimenter"":[""Confirmed subject's identity (ID card)"",""Confirmed normal or corrected-to-normal vision"",""Obtained consent (signature and date)"",""Checked the test room lighting"",""Checked computer screen lighting"",""Checked distance from screen to chin rest (50cm)"",""Cleaned and adjusted chin rest"",""Counterbalanced the order of the tasks"",""Opened the experiment in Firefox"",""Made the experiment full screen"",""Encouraged subject to silence phone, put away distractors, etc.""]}","[0]","survey-multi-select","0","77616","0.0-0.0","z6pxpp20","","","","","","","",""
"3340.4000000000087","","","instructions","1","80958","0.0-1.0","z6pxpp20","[{""page_index"":0,""viewing_time"":3340.24500000001}]","","","","","","",""
"9588.794999999998","","","instructions","2","90548","0.0-2.0","z6pxpp20","[{""page_index"":0,""viewing_time"":1805.645000000004},{""page_index"":1,""viewing_time"":3933.029999999999},{""page_index"":2,""viewing_time"":3849.9949999999953}]","","","","","","",""
"2230.284999999989","","","instructions","3","92779","0.0-3.0","z6pxpp20","[{""page_index"":0,""viewing_time"":2230.179999999993}]","","","","","","",""
"null","","","video-keyboard-response","4","95855","0.0-4.0","z6pxpp20","","","null","","","","",""
"15481.479999999996","","","instructions","5","111337","0.0-5.0","z6pxpp20","[{""page_index"":0,""viewing_time"":3736.2350000000006},{""page_index"":1,""viewing_time"":2996.925000000003},{""page_index"":2,""viewing_time"":973.1349999999948},{""page_index"":3,""viewing_time"":3568.979999999996},{""page_index"":4,""viewing_time"":4206.080000000002}]","","","","","","",""
"13784.479999999996","","","instructions","6","125122","0.0-6.0","z6pxpp20","[{""page_index"":0,""viewing_time"":13784.354999999996}]","","","","","","",""
"","","","call-function","7","125123","0.0-7.0","z6pxpp20","","","","","","","",""
"null","","","html-keyboard-response","8","126627","0.0-8.0","z6pxpp20","","<span style=""color:Black; font-size:50px;"">Agent A","null","","","","",""
"null","","","video-keyboard-response","9","129705","0.0-9.0","z6pxpp20","","","null","","Agent A","scrambled","STIM_SET_1/1160168.bmp_pp53_L2_V1.0_scrambled_freeview_isoFalse.mp4",""
"null","","","html-keyboard-response","10","131211","0.0-10.0","z6pxpp20","","<span style=""color:Black; font-size:50px;"">Agent B","null","","","","",""
"null","","","video-keyboard-response","11","134288","0.0-11.0","z6pxpp20","","","null","","Agent B","veridical","STIM_SET_1/1160168.bmp_pp53_L2_V1.0_veridical_freeview_isoFalse.mp4",""
"","","","call-function","12","134289","0.0-12.0","z6pxpp20","","","","","","","",""
"2120.290000000008","{""judgement"":0}","[0]","survey-likert","13","136410","0.0-13.0","z6pxpp20","","","","","","","","1"
"1679.390000000014","{""confidence"":1}","[0]","survey-likert","14","138091","0.0-14.0","z6pxpp20","","","","","","","",""
"","","","call-function","15","138092","0.0-15.0","z6pxpp20","","","","","","","",""
"null","","","html-keyboard-response","16","139594","0.0-16.0","z6pxpp20","","<span style=""color:Black; font-size:50px;"">Agent A","null","","","","",""
"null","","","video-keyboard-response","17","142671","0.0-17.0","z6pxpp20","","","null","","Agent A","scrambled","STIM_SET_1/713707.bmp_pp154_L1_V1.0_scrambled_freeview_isoFalse.mp4",""
"null","","","html-keyboard-response","18","144177","0.0-18.0","z6pxpp20","","<span style=""color:Black; font-size:50px;"">Agent B","null","","","","",""
"null","","","video-keyboard-response","19","147301","0.0-19.0","z6pxpp20","","","null","","Agent B","veridical","STIM_SET_1/713707.bmp_pp154_L1_V1.0_veridical_freeview_isoFalse.mp4",""
"","","","call-function","20","147301","0.0-20.0","z6pxpp20","","","","","","","",""
"3875.2299999999814","{""judgement"":0}","[0]","survey-likert","21","151178","0.0-21.0","z6pxpp20","","","","","","","","1"
"1925.515000000014","{""confidence"":2}","[0]","survey-likert","22","153105","0.0-22.0","z6pxpp20","","","","","","","",""
"","","","call-function","23","153106","0.0-23.0","z6pxpp20","","","","","","","",""
"null","","","html-keyboard-response","24","154608","0.0-24.0","z6pxpp20","","<span style=""color:Black; font-size:50px;"">Agent A","null","","","","",""
"null","","","video-keyboard-response","25","157718","0.0-25.0","z6pxpp20","","","null","","Agent A","veridical","STIM_SET_1/1159447.bmp_pp70_L2_V1.0_veridical_freeview_isoFalse.mp4",""
"null","","","html-keyboard-response","26","159223","0.0-26.0","z6pxpp20","","<span style=""color:Black; font-size:50px;"">Agent B","null","","","","",""
"null","","","video-keyboard-response","27","162293","0.0-27.0","z6pxpp20","","","null","","Agent B","scrambled","STIM_SET_1/1159447.bmp_pp70_L2_V1.0_scrambled_freeview_isoFalse.mp4",""
"","","","call-function","28","162293","0.0-28.0","z6pxpp20","","","","","","","",""
"3580.600000000006","{""judgement"":1}","[0]","survey-likert","29","165875","0.0-29.0","z6pxpp20","","","","","","","","0"
"2161.3850000000093","{""confidence"":1}","[0]","survey-likert","30","168037","0.0-30.0","z6pxpp20","","","","","","","",""
"","","","call-function","31","168038","0.0-31.0","z6pxpp20","","","","","","","",""
"null","","","html-keyboard-response","32","169540","0.0-32.0","z6pxpp20","","<span style=""color:Black; font-size:50px;"">Agent A","null","","","","",""
"null","","","video-keyboard-response","33","172648","0.0-33.0","z6pxpp20","","","null","","Agent A","veridical","STIM_SET_1/713403.bmp_pp80_L3_V1.0_veridical_freeview_isoFalse.mp4",""
"null","","","html-keyboard-response","34","174155","0.0-34.0","z6pxpp20","","<span style=""color:Black; font-size:50px;"">Agent B","null","","","","",""
"null","","","video-keyboard-response","35","177262","0.0-35.0","z6pxpp20","","","null","","Agent B","scrambled","STIM_SET_1/713403.bmp_pp80_L3_V1.0_scrambled_freeview_isoFalse.mp4",""
"","","","call-function","36","177263","0.0-36.0","z6pxpp20","","","","","","","",""
"2867.8800000000047","{""judgement"":1}","[0]","survey-likert","37","180131","0.0-37.0","z6pxpp20","","","","","","","","0"
"1669.5249999999942","{""confidence"":2}","[0]","survey-likert","38","181802","0.0-38.0","z6pxpp20","","","","","","","",""
"","","","call-function","39","181803","0.0-39.0","z6pxpp20","","","","","","","",""
"null","","","html-keyboard-response","40","183305","0.0-40.0","z6pxpp20","","<span style=""color:Black; font-size:50px;"">Agent A","null","","","","",""
"null","","","video-keyboard-response","41","186432","0.0-41.0","z6pxpp20","","","null","","Agent A","veridical","STIM_SET_1/1159440.bmp_pp98_L1_V1.0_veridical_freeview_isoFalse.mp4",""
"null","","","html-keyboard-response","42","187936","0.0-42.0","z6pxpp20","","<span style=""color:Black; font-size:50px;"">Agent B","null","","","","",""
"null","","","video-keyboard-response","43","191060","0.0-43.0","z6pxpp20","","","null","","Agent B","scrambled","STIM_SET_1/1159440.bmp_pp98_L1_V1.0_scrambled_freeview_isoFalse.mp4",""
"","","","call-function","44","191061","0.0-44.0","z6pxpp20","","","","","","","",""
"3941.319999999978","{""judgement"":0}","[0]","survey-likert","45","195003","0.0-45.0","z6pxpp20","","","","","","","","0"
"3008.3099999999977","{""confidence"":3}","[0]","survey-likert","46","198013","0.0-46.0","z6pxpp20","","","","","","","",""
"","","","call-function","47","198013","0.0-47.0","z6pxpp20","","","","","","","",""
"null","","","html-keyboard-response","48","199516","0.0-48.0","z6pxpp20","","<span style=""color:Black; font-size:50px;"">Agent A","null","","","","",""
"null","","","video-keyboard-response","49","202582","0.0-49.0","z6pxpp20","","","null","","Agent A","veridical","STIM_SET_1/1592817.bmp_pp55_L3_V1.0_veridical_freeview_isoFalse.mp4",""
"null","","","html-keyboard-response","50","204085","0.0-50.0","z6pxpp20","","<span style=""color:Black; font-size:50px;"">Agent B","null","","","","",""
"null","","","video-keyboard-response","51","207150","0.0-51.0","z6pxpp20","","","null","","Agent B","scrambled","STIM_SET_1/1592817.bmp_pp55_L3_V1.0_scrambled_freeview_isoFalse.mp4",""
"","","","call-function","52","207151","0.0-52.0","z6pxpp20","","","","","","","",""
"2933.804999999993","{""judgement"":1}","[0]","survey-likert","53","210086","0.0-53.0","z6pxpp20","","","","","","","","0"
"1532.460000000021","{""confidence"":1}","[0]","survey-likert","54","211619","0.0-54.0","z6pxpp20","","","","","","","",""
"","","","call-function","55","211620","0.0-55.0","z6pxpp20","","","","","","","",""
"null","","","html-keyboard-response","56","213125","0.0-56.0","z6pxpp20","","<span style=""color:Black; font-size:50px;"">Agent A","null","","","","",""
"null","","","video-keyboard-response","57","216195","0.0-57.0","z6pxpp20","","","null","","Agent A","veridical","STIM_SET_1/713796.bmp_pp84_L3_V1.0_veridical_freeview_isoFalse.mp4",""
"null","","","html-keyboard-response","58","217702","0.0-58.0","z6pxpp20","","<span style=""color:Black; font-size:50px;"">Agent B","null","","","","",""
"null","","","video-keyboard-response","59","220776","0.0-59.0","z6pxpp20","","","null","","Agent B","scrambled","STIM_SET_1/713796.bmp_pp84_L3_V1.0_scrambled_freeview_isoFalse.mp4",""
"","","","call-function","60","220777","0.0-60.0","z6pxpp20","","","","","","","",""
"2845.899999999994","{""judgement"":0}","[0]","survey-likert","61","223625","0.0-61.0","z6pxpp20","","","","","","","","0"
"1613.1700000000128","{""confidence"":2}","[0]","survey-likert","62","225240","0.0-62.0","z6pxpp20","","","","","","","",""
"","","","call-function","63","225241","0.0-63.0","z6pxpp20","","","","","","","",""
"null","","","html-keyboard-response","64","226743","0.0-64.0","z6pxpp20","","<span style=""color:Black; font-size:50px;"">Agent A","null","","","","",""
"null","","","video-keyboard-response","65","229819","0.0-65.0","z6pxpp20","","","null","","Agent A","scrambled","STIM_SET_1/1592286.bmp_pp52_L1_V1.0_scrambled_freeview_isoFalse.mp4",""
"null","","","html-keyboard-response","66","231322","0.0-66.0","z6pxpp20","","<span style=""color:Black; font-size:50px;"">Agent B","null","","","","",""
"null","","","video-keyboard-response","67","234397","0.0-67.0","z6pxpp20","","","null","","Agent B","veridical","STIM_SET_1/1592286.bmp_pp52_L1_V1.0_veridical_freeview_isoFalse.mp4",""
"","","","call-function","68","234398","0.0-68.0","z6pxpp20","","","","","","","",""
"2756.75","{""judgement"":0}","[0]","survey-likert","69","237156","0.0-69.0","z6pxpp20","","","","","","","","1"
"1797.2999999999884","{""confidence"":2}","[0]","survey-likert","70","238954","0.0-70.0","z6pxpp20","","","","","","","",""
"","","","call-function","71","238955","0.0-71.0","z6pxpp20","","","","","","","",""
"null","","","html-keyboard-response","72","240460","0.0-72.0","z6pxpp20","","<span style=""color:Black; font-size:50px;"">Agent A","null","","","","",""
"null","","","video-keyboard-response","73","243531","0.0-73.0","z6pxpp20","","","null","","Agent A","veridical","STIM_SET_1/713089.bmp_pp60_L3_V1.0_veridical_freeview_isoFalse.mp4",""
"null","","","html-keyboard-response","74","245034","0.0-74.0","z6pxpp20","","<span style=""color:Black; font-size:50px;"">Agent B","null","","","","",""
"null","","","video-keyboard-response","75","248145","0.0-75.0","z6pxpp20","","","null","","Agent B","scrambled","STIM_SET_1/713089.bmp_pp60_L3_V1.0_scrambled_freeview_isoFalse.mp4",""
"","","","call-function","76","248145","0.0-76.0","z6pxpp20","","","","","","","",""
"2553.6749999999884","{""judgement"":0}","[0]","survey-likert","77","250700","0.0-77.0","z6pxpp20","","","","","","","","0"
"1426.7300000000105","{""confidence"":3}","[0]","survey-likert","78","252128","0.0-78.0","z6pxpp20","","","","","","","",""
"","","","call-function","79","252128","0.0-79.0","z6pxpp20","","","","","","","",""
"null","","","html-keyboard-response","80","253631","0.0-80.0","z6pxpp20","","<span style=""color:Black; font-size:50px;"">Agent A","null","","","","",""
"null","","","video-keyboard-response","81","256748","0.0-81.0","z6pxpp20","","","null","","Agent A","veridical","STIM_SET_1/713211.bmp_pp100_L3_V1.0_veridical_freeview_isoFalse.mp4",""
"null","","","html-keyboard-response","82","258255","0.0-82.0","z6pxpp20","","<span style=""color:Black; font-size:50px;"">Agent B","null","","","","",""
"null","","","video-keyboard-response","83","261378","0.0-83.0","z6pxpp20","","","null","","Agent B","scrambled","STIM_SET_1/713211.bmp_pp100_L3_V1.0_scrambled_freeview_isoFalse.mp4",""
"","","","call-function","84","261379","0.0-84.0","z6pxpp20","","","","","","","",""
"2523.734999999986","{""judgement"":1}","[0]","survey-likert","85","263904","0.0-85.0","z6pxpp20","","","","","","","","0"
"1884.8499999999767","{""confidence"":3}","[0]","survey-likert","86","265790","0.0-86.0","z6pxpp20","","","","","","","",""
"4203.965000000026","","","instructions","87","269994","0.0-87.0","z6pxpp20","[{""page_index"":0,""viewing_time"":3022.7600000000093},{""page_index"":1,""viewing_time"":786.234999999986},{""page_index"":2,""viewing_time"":394.7750000000233}]","","","","","","",""
"1326.4949999999953","","","instructions","88","271321","0.0-88.0","z6pxpp20","[{""page_index"":0,""viewing_time"":363.2949999999837},{""page_index"":1,""viewing_time"":464.03000000002794},{""page_index"":2,""viewing_time"":499.0599999999977}]","","","","","","",""
"","","","call-function","89","271321","0.0-89.0","z6pxpp20","","","","","","","",""
"null","","","html-keyboard-response","90","272824","0.0-90.0","z6pxpp20","","<span style=""color:Black; font-size:50px;"">Agent A","null","","","","",""
"null","","","video-keyboard-response","91","275929","0.0-91.0","z6pxpp20","","","null","","Agent A","veridical","STIM_SET_1/498149.bmp_pp99_L2_V1.0_veridical_freeview_isoFalse.mp4",""
"null","","","html-keyboard-response","92","277433","0.0-92.0","z6pxpp20","","<span style=""color:Black; font-size:50px;"">Agent B","null","","","","",""
"null","","","video-keyboard-response","93","280537","0.0-93.0","z6pxpp20","","","null","","Agent B","scrambled","STIM_SET_1/498149.bmp_pp99_L2_V1.0_scrambled_freeview_isoFalse.mp4",""
"","","","call-function","94","280538","0.0-94.0","z6pxpp20","","","","","","","",""
"2593.3150000000023","{""judgement"":1}","[0]","survey-likert","95","283132","0.0-95.0","z6pxpp20","","","","","","","","0"
"1392.5900000000256","{""confidence"":1}","[0]","survey-likert","96","284526","0.0-96.0","z6pxpp20","","","","","","","",""
"","","","call-function","97","284526","0.0-97.0","z6pxpp20","","","","","","","",""
"null","","","html-keyboard-response","98","286027","0.0-98.0","z6pxpp20","","<span style=""color:Black; font-size:50px;"">Agent A","null","","","","",""
"null","","","video-keyboard-response","99","289101","0.0-99.0","z6pxpp20","","","null","","Agent A","scrambled","STIM_SET_1/285905.bmp_pp57_L1_V1.0_scrambled_freeview_isoFalse.mp4",""
"null","","","html-keyboard-response","100","290603","0.0-100.0","z6pxpp20","","<span style=""color:Black; font-size:50px;"">Agent B","null","","","","",""
"null","","","video-keyboard-response","101","293677","0.0-101.0","z6pxpp20","","","null","","Agent B","veridical","STIM_SET_1/285905.bmp_pp57_L1_V1.0_veridical_freeview_isoFalse.mp4",""
"","","","call-function","102","293677","0.0-102.0","z6pxpp20","","","","","","","",""
"2223.3250000000116","{""judgement"":1}","[0]","survey-likert","103","295902","0.0-103.0","z6pxpp20","","","","","","","","1"
"1575.5599999999977","{""confidence"":3}","[0]","survey-likert","104","297478","0.0-104.0","z6pxpp20","","","","","","","",""
"","","","call-function","105","297480","0.0-105.0","z6pxpp20","","","","","","","",""
"null","","","html-keyboard-response","106","298983","0.0-106.0","z6pxpp20","","<span style=""color:Black; font-size:50px;"">Agent A","null","","","","",""
"null","","","video-keyboard-response","107","302059","0.0-107.0","z6pxpp20","","","null","","Agent A","scrambled","STIM_SET_1/1592499.bmp_pp96_L2_V1.0_scrambled_freeview_isoFalse.mp4",""
"null","","","html-keyboard-response","108","303563","0.0-108.0","z6pxpp20","","<span style=""color:Black; font-size:50px;"">Agent B","null","","","","",""
"null","","","video-keyboard-response","109","306640","0.0-109.0","z6pxpp20","","","null","","Agent B","veridical","STIM_SET_1/1592499.bmp_pp96_L2_V1.0_veridical_freeview_isoFalse.mp4",""
"","","","call-function","110","306640","0.0-110.0","z6pxpp20","","","","","","","",""
"3367.8450000000303","{""judgement"":0}","[0]","survey-likert","111","310009","0.0-111.0","z6pxpp20","","","","","","","","1"
"1486.475000000035","{""confidence"":1}","[0]","survey-likert","112","311496","0.0-112.0","z6pxpp20","","","","","","","",""
"","","","call-function","113","311497","0.0-113.0","z6pxpp20","","","","","","","",""
"null","","","html-keyboard-response","114","313000","0.0-114.0","z6pxpp20","","<span style=""color:Black; font-size:50px;"">Agent A","null","","","","",""
"null","","","video-keyboard-response","115","316087","0.0-115.0","z6pxpp20","","","null","","Agent A","veridical","STIM_SET_1/1591994.bmp_pp69_L3_V1.0_veridical_freeview_isoFalse.mp4",""
"null","","","html-keyboard-response","116","317590","0.0-116.0","z6pxpp20","","<span style=""color:Black; font-size:50px;"">Agent B","null","","","","",""
"null","","","video-keyboard-response","117","320677","0.0-117.0","z6pxpp20","","","null","","Agent B","scrambled","STIM_SET_1/1591994.bmp_pp69_L3_V1.0_scrambled_freeview_isoFalse.mp4",""
"","","","call-function","118","320678","0.0-118.0","z6pxpp20","","","","","","","",""
"3458.384999999951","{""judgement"":1}","[0]","survey-likert","119","324137","0.0-119.0","z6pxpp20","","","","","","","","0"
"6681.784999999974","{""confidence"":2}","[0]","survey-likert","120","330820","0.0-120.0","z6pxpp20","","","","","","","",""
"","","","call-function","121","330821","0.0-121.0","z6pxpp20","","","","","","","",""
"null","","","html-keyboard-response","122","332324","0.0-122.0","z6pxpp20","","<span style=""color:Black; font-size:50px;"">Agent A","null","","","","",""
"null","","","video-keyboard-response","123","335445","0.0-123.0","z6pxpp20","","","null","","Agent A","veridical","STIM_SET_1/1592890.bmp_pp82_L2_V1.0_veridical_freeview_isoFalse.mp4",""
"null","","","html-keyboard-response","124","336948","0.0-124.0","z6pxpp20","","<span style=""color:Black; font-size:50px;"">Agent B","null","","","","",""
"null","","","video-keyboard-response","125","340029","0.0-125.0","z6pxpp20","","","null","","Agent B","scrambled","STIM_SET_1/1592890.bmp_pp82_L2_V1.0_scrambled_freeview_isoFalse.mp4",""
"","","","call-function","126","340030","0.0-126.0","z6pxpp20","","","","","","","",""
"4762.070000000007","{""judgement"":0}","[0]","survey-likert","127","344792","0.0-127.0","z6pxpp20","","","","","","","","0"
"1217.8800000000047","{""confidence"":2}","[0]","survey-likert","128","346012","0.0-128.0","z6pxpp20","","","","","","","",""
"","","","call-function","129","346013","0.0-129.0","z6pxpp20","","","","","","","",""
"null","","","html-keyboard-response","130","347515","0.0-130.0","z6pxpp20","","<span style=""color:Black; font-size:50px;"">Agent A","null","","","","",""
"null","","","video-keyboard-response","131","350639","0.0-131.0","z6pxpp20","","","null","","Agent A","scrambled","STIM_SET_1/1592372.bmp_pp76_L1_V1.0_scrambled_freeview_isoFalse.mp4",""
"null","","","html-keyboard-response","132","352146","0.0-132.0","z6pxpp20","","<span style=""color:Black; font-size:50px;"">Agent B","null","","","","",""
"null","","","video-keyboard-response","133","355222","0.0-133.0","z6pxpp20","","","null","","Agent B","veridical","STIM_SET_1/1592372.bmp_pp76_L1_V1.0_veridical_freeview_isoFalse.mp4",""
"","","","call-function","134","355223","0.0-134.0","z6pxpp20","","","","","","","",""
"2527.5750000000116","{""judgement"":1}","[0]","survey-likert","135","357751","0.0-135.0","z6pxpp20","","","","","","","","1"
"2680.7949999999837","{""confidence"":2}","[0]","survey-likert","136","360433","0.0-136.0","z6pxpp20","","","","","","","",""
"","","","call-function","137","360433","0.0-137.0","z6pxpp20","","","","","","","",""
"null","","","html-keyboard-response","138","361936","0.0-138.0","z6pxpp20","","<span style=""color:Black; font-size:50px;"">Agent A","null","","","","",""
"null","","","video-keyboard-response","139","365004","0.0-139.0","z6pxpp20","","","null","","Agent A","scrambled","STIM_SET_1/1592351.bmp_pp51_L1_V1.0_scrambled_freeview_isoFalse.mp4",""
"null","","","html-keyboard-response","140","366510","0.0-140.0","z6pxpp20","","<span style=""color:Black; font-size:50px;"">Agent B","null","","","","",""
"null","","","video-keyboard-response","141","369579","0.0-141.0","z6pxpp20","","","null","","Agent B","veridical","STIM_SET_1/1592351.bmp_pp51_L1_V1.0_veridical_freeview_isoFalse.mp4",""
"","","","call-function","142","369580","0.0-142.0","z6pxpp20","","","","","","","",""
"1621","{""judgement"":1}","[0]","survey-likert","143","371202","0.0-143.0","z6pxpp20","","","","","","","","1"
"1528.4700000000303","{""confidence"":2}","[0]","survey-likert","144","372732","0.0-144.0","z6pxpp20","","","","","","","",""
"","","","call-function","145","372734","0.0-145.0","z6pxpp20","","","","","","","",""
"null","","","html-keyboard-response","146","374236","0.0-146.0","z6pxpp20","","<span style=""color:Black; font-size:50px;"">Agent A","null","","","","",""
"null","","","video-keyboard-response","147","377316","0.0-147.0","z6pxpp20","","","null","","Agent A","scrambled","STIM_SET_1/713593.bmp_pp64_L1_V1.0_scrambled_freeview_isoFalse.mp4",""
"null","","","html-keyboard-response","148","378821","0.0-148.0","z6pxpp20","","<span style=""color:Black; font-size:50px;"">Agent B","null","","","","",""
"null","","","video-keyboard-response","149","381900","0.0-149.0","z6pxpp20","","","null","","Agent B","veridical","STIM_SET_1/713593.bmp_pp64_L1_V1.0_veridical_freeview_isoFalse.mp4",""
"","","","call-function","150","381901","0.0-150.0","z6pxpp20","","","","","","","",""
"3410.9250000000466","{""judgement"":1}","[0]","survey-likert","151","385313","0.0-151.0","z6pxpp20","","","","","","","","1"
"2335.4550000000163","{""confidence"":1}","[0]","survey-likert","152","387650","0.0-152.0","z6pxpp20","","","","","","","",""
"","","","call-function","153","387650","0.0-153.0","z6pxpp20","","","","","","","",""
"null","","","html-keyboard-response","154","389152","0.0-154.0","z6pxpp20","","<span style=""color:Black; font-size:50px;"">Agent A","null","","","","",""
"null","","","video-keyboard-response","155","392227","0.0-155.0","z6pxpp20","","","null","","Agent A","scrambled","STIM_SET_1/713017.bmp_pp152_L2_V1.0_scrambled_freeview_isoFalse.mp4",""
"null","","","html-keyboard-response","156","393730","0.0-156.0","z6pxpp20","","<span style=""color:Black; font-size:50px;"">Agent B","null","","","","",""
"null","","","video-keyboard-response","157","396804","0.0-157.0","z6pxpp20","","","null","","Agent B","veridical","STIM_SET_1/713017.bmp_pp152_L2_V1.0_veridical_freeview_isoFalse.mp4",""
"","","","call-function","158","396804","0.0-158.0","z6pxpp20","","","","","","","",""
"2284.914999999979","{""judgement"":1}","[0]","survey-likert","159","399090","0.0-159.0","z6pxpp20","","","","","","","","1"
"1376.5499999999884","{""confidence"":2}","[0]","survey-likert","160","400468","0.0-160.0","z6pxpp20","","","","","","","",""
"","","","call-function","161","400468","0.0-161.0","z6pxpp20","","","","","","","",""
"null","","","html-keyboard-response","162","401971","0.0-162.0","z6pxpp20","","<span style=""color:Black; font-size:50px;"">Agent A","null","","","","",""
"null","","","video-keyboard-response","163","405080","0.0-163.0","z6pxpp20","","","null","","Agent A","scrambled","STIM_SET_1/1159515.bmp_pp84_L3_V1.0_scrambled_freeview_isoFalse.mp4",""
"null","","","html-keyboard-response","164","406587","0.0-164.0","z6pxpp20","","<span style=""color:Black; font-size:50px;"">Agent B","null","","","","",""
"null","","","video-keyboard-response","165","409698","0.0-165.0","z6pxpp20","","","null","","Agent B","veridical","STIM_SET_1/1159515.bmp_pp84_L3_V1.0_veridical_freeview_isoFalse.mp4",""
"","","","call-function","166","409698","0.0-166.0","z6pxpp20","","","","","","","",""
"1663.454999999958","{""judgement"":1}","[0]","survey-likert","167","411363","0.0-167.0","z6pxpp20","","","","","","","","1"
"2206.664999999979","{""confidence"":1}","[0]","survey-likert","168","413571","0.0-168.0","z6pxpp20","","","","","","","",""
"2182.530000000028","","","instructions","169","415754","0.0-169.0","z6pxpp20","[{""page_index"":0,""viewing_time"":1498.9249999999884},{""page_index"":1,""viewing_time"":450.0650000000023},{""page_index"":2,""viewing_time"":233.32000000000698}]","","","","","","",""
"755.1699999999837","","","instructions","170","416510","0.0-170.0","z6pxpp20","[{""page_index"":0,""viewing_time"":195.38000000000466},{""page_index"":1,""viewing_time"":394.4649999999674},{""page_index"":2,""viewing_time"":165.21000000002095}]","","","","","","",""
"","","","call-function","171","416510","0.0-171.0","z6pxpp20","","","","","","","",""
"null","","","html-keyboard-response","172","418011","0.0-172.0","z6pxpp20","","<span style=""color:Black; font-size:50px;"">Agent A","null","","","","",""
"null","","","video-keyboard-response","173","421126","0.0-173.0","z6pxpp20","","","null","","Agent A","veridical","STIM_SET_1/285933.bmp_pp81_L1_V1.0_veridical_freeview_isoFalse.mp4",""
"null","","","html-keyboard-response","174","422628","0.0-174.0","z6pxpp20","","<span style=""color:Black; font-size:50px;"">Agent B","null","","","","",""
"null","","","video-keyboard-response","175","425744","0.0-175.0","z6pxpp20","","","null","","Agent B","scrambled","STIM_SET_1/285933.bmp_pp81_L1_V1.0_scrambled_freeview_isoFalse.mp4",""
"","","","call-function","176","425745","0.0-176.0","z6pxpp20","","","","","","","",""
"1810.149999999965","{""judgement"":0}","[0]","survey-likert","177","427556","0.0-177.0","z6pxpp20","","","","","","","","0"
"1499.9899999999907","{""confidence"":2}","[0]","survey-likert","178","429057","0.0-178.0","z6pxpp20","","","","","","","",""
"","","","call-function","179","429058","0.0-179.0","z6pxpp20","","","","","","","",""
"null","","","html-keyboard-response","180","430564","0.0-180.0","z6pxpp20","","<span style=""color:Black; font-size:50px;"">Agent A","null","","","","",""
"null","","","video-keyboard-response","181","433683","0.0-181.0","z6pxpp20","","","null","","Agent A","scrambled","STIM_SET_1/1159784.bmp_pp73_L3_V1.0_scrambled_freeview_isoFalse.mp4",""
"null","","","html-keyboard-response","182","435187","0.0-182.0","z6pxpp20","","<span style=""color:Black; font-size:50px;"">Agent B","null","","","","",""
"null","","","video-keyboard-response","183","438303","0.0-183.0","z6pxpp20","","","null","","Agent B","veridical","STIM_SET_1/1159784.bmp_pp73_L3_V1.0_veridical_freeview_isoFalse.mp4",""
"","","","call-function","184","438305","0.0-184.0","z6pxpp20","","","","","","","",""
"2048.8499999999767","{""judgement"":1}","[0]","survey-likert","185","440354","0.0-185.0","z6pxpp20","","","","","","","","1"
"1100.4799999999814","{""confidence"":2}","[0]","survey-likert","186","441456","0.0-186.0","z6pxpp20","","","","","","","",""
"","","","call-function","187","441457","0.0-187.0","z6pxpp20","","","","","","","",""
"null","","","html-keyboard-response","188","442959","0.0-188.0","z6pxpp20","","<span style=""color:Black; font-size:50px;"">Agent A","null","","","","",""
"null","","","video-keyboard-response","189","446040","0.0-189.0","z6pxpp20","","","null","","Agent A","scrambled","STIM_SET_1/713749.bmp_pp88_L2_V1.0_scrambled_freeview_isoFalse.mp4",""
"null","","","html-keyboard-response","190","447542","0.0-190.0","z6pxpp20","","<span style=""color:Black; font-size:50px;"">Agent B","null","","","","",""
"null","","","video-keyboard-response","191","450619","0.0-191.0","z6pxpp20","","","null","","Agent B","veridical","STIM_SET_1/713749.bmp_pp88_L2_V1.0_veridical_freeview_isoFalse.mp4",""
"","","","call-function","192","450620","0.0-192.0","z6pxpp20","","","","","","","",""
"1885.5199999999604","{""judgement"":1}","[0]","survey-likert","193","452506","0.0-193.0","z6pxpp20","","","","","","","","1"
"1776.8649999999907","{""confidence"":3}","[0]","survey-likert","194","454284","0.0-194.0","z6pxpp20","","","","","","","",""
"","","","call-function","195","454285","0.0-195.0","z6pxpp20","","","","","","","",""
"null","","","html-keyboard-response","196","455785","0.0-196.0","z6pxpp20","","<span style=""color:Black; font-size:50px;"">Agent A","null","","","","",""
"null","","","video-keyboard-response","197","458865","0.0-197.0","z6pxpp20","","","null","","Agent A","veridical","STIM_SET_1/498155.bmp_pp61_L2_V1.0_veridical_freeview_isoFalse.mp4",""
"null","","","html-keyboard-response","198","460369","0.0-198.0","z6pxpp20","","<span style=""color:Black; font-size:50px;"">Agent B","null","","","","",""
"null","","","video-keyboard-response","199","463444","0.0-199.0","z6pxpp20","","","null","","Agent B","scrambled","STIM_SET_1/498155.bmp_pp61_L2_V1.0_scrambled_freeview_isoFalse.mp4",""
"","","","call-function","200","463445","0.0-200.0","z6pxpp20","","","","","","","",""
"1587.7399999999907","{""judgement"":0}","[0]","survey-likert","201","465034","0.0-201.0","z6pxpp20","","","","","","","","0"
"1636.1900000000023","{""confidence"":3}","[0]","survey-likert","202","466671","0.0-202.0","z6pxpp20","","","","","","","",""
"","","","call-function","203","466672","0.0-203.0","z6pxpp20","","","","","","","",""
"null","","","html-keyboard-response","204","468173","0.0-204.0","z6pxpp20","","<span style=""color:Black; font-size:50px;"">Agent A","null","","","","",""
"null","","","video-keyboard-response","205","471299","0.0-205.0","z6pxpp20","","","null","","Agent A","veridical","STIM_SET_1/1591954.bmp_pp62_L2_V1.0_veridical_freeview_isoFalse.mp4",""
"null","","","html-keyboard-response","206","472804","0.0-206.0","z6pxpp20","","<span style=""color:Black; font-size:50px;"">Agent B","null","","","","",""
"null","","","video-keyboard-response","207","475931","0.0-207.0","z6pxpp20","","","null","","Agent B","scrambled","STIM_SET_1/1591954.bmp_pp62_L2_V1.0_scrambled_freeview_isoFalse.mp4",""
"","","","call-function","208","475932","0.0-208.0","z6pxpp20","","","","","","","",""
"1863.6300000000047","{""judgement"":0}","[0]","survey-likert","209","477797","0.0-209.0","z6pxpp20","","","","","","","","0"
"1730.5050000000047","{""confidence"":2}","[0]","survey-likert","210","479529","0.0-210.0","z6pxpp20","","","","","","","",""
"","","","call-function","211","479531","0.0-211.0","z6pxpp20","","","","","","","",""
"null","","","html-keyboard-response","212","481033","0.0-212.0","z6pxpp20","","<span style=""color:Black; font-size:50px;"">Agent A","null","","","","",""
"null","","","video-keyboard-response","213","484100","0.0-213.0","z6pxpp20","","","null","","Agent A","scrambled","STIM_SET_1/1159621.bmp_pp92_L3_V1.0_scrambled_freeview_isoFalse.mp4",""
"null","","","html-keyboard-response","214","485606","0.0-214.0","z6pxpp20","","<span style=""color:Black; font-size:50px;"">Agent B","null","","","","",""
"null","","","video-keyboard-response","215","488676","0.0-215.0","z6pxpp20","","","null","","Agent B","veridical","STIM_SET_1/1159621.bmp_pp92_L3_V1.0_veridical_freeview_isoFalse.mp4",""
"","","","call-function","216","488677","0.0-216.0","z6pxpp20","","","","","","","",""
"2220.0250000000233","{""judgement"":1}","[0]","survey-likert","217","490898","0.0-217.0","z6pxpp20","","","","","","","","1"
"2030.7949999999837","{""confidence"":1}","[0]","survey-likert","218","492930","0.0-218.0","z6pxpp20","","","","","","","",""
"","","","call-function","219","492931","0.0-219.0","z6pxpp20","","","","","","","",""
"null","","","html-keyboard-response","220","494436","0.0-220.0","z6pxpp20","","<span style=""color:Black; font-size:50px;"">Agent A","null","","","","",""
"null","","","video-keyboard-response","221","497505","0.0-221.0","z6pxpp20","","","null","","Agent A","veridical","STIM_SET_1/713135.bmp_pp54_L2_V1.0_veridical_freeview_isoFalse.mp4",""
"null","","","html-keyboard-response","222","499007","0.0-222.0","z6pxpp20","","<span style=""color:Black; font-size:50px;"">Agent B","null","","","","",""
"null","","","video-keyboard-response","223","502080","0.0-223.0","z6pxpp20","","","null","","Agent B","scrambled","STIM_SET_1/713135.bmp_pp54_L2_V1.0_scrambled_freeview_isoFalse.mp4",""
"","","","call-function","224","502081","0.0-224.0","z6pxpp20","","","","","","","",""
"4947.744999999995","{""judgement"":0}","[0]","survey-likert","225","507029","0.0-225.0","z6pxpp20","","","","","","","","0"
"1647.8250000000116","{""confidence"":2}","[0]","survey-likert","226","508678","0.0-226.0","z6pxpp20","","","","","","","",""
"","","","call-function","227","508679","0.0-227.0","z6pxpp20","","","","","","","",""
"null","","","html-keyboard-response","228","510180","0.0-228.0","z6pxpp20","","<span style=""color:Black; font-size:50px;"">Agent A","null","","","","",""
"null","","","video-keyboard-response","229","513290","0.0-229.0","z6pxpp20","","","null","","Agent A","veridical","STIM_SET_1/1160127.bmp_pp90_L2_V1.0_veridical_freeview_isoFalse.mp4",""
"null","","","html-keyboard-response","230","514792","0.0-230.0","z6pxpp20","","<span style=""color:Black; font-size:50px;"">Agent B","null","","","","",""
"null","","","video-keyboard-response","231","517900","0.0-231.0","z6pxpp20","","","null","","Agent B","scrambled","STIM_SET_1/1160127.bmp_pp90_L2_V1.0_scrambled_freeview_isoFalse.mp4",""
"","","","call-function","232","517901","0.0-232.0","z6pxpp20","","","","","","","",""
"1803.0750000000116","{""judgement"":0}","[0]","survey-likert","233","519705","0.0-233.0","z6pxpp20","","","","","","","","0"
"1569.8149999999441","{""confidence"":2}","[0]","survey-likert","234","521277","0.0-234.0","z6pxpp20","","","","","","","",""
"","","","call-function","235","521278","0.0-235.0","z6pxpp20","","","","","","","",""
"null","","","html-keyboard-response","236","522779","0.0-236.0","z6pxpp20","","<span style=""color:Black; font-size:50px;"">Agent A","null","","","","",""
"null","","","video-keyboard-response","237","525894","0.0-237.0","z6pxpp20","","","null","","Agent A","scrambled","STIM_SET_1/498175.bmp_pp154_L1_V1.0_scrambled_freeview_isoFalse.mp4",""
"null","","","html-keyboard-response","238","527400","0.0-238.0","z6pxpp20","","<span style=""color:Black; font-size:50px;"">Agent B","null","","","","",""
"null","","","video-keyboard-response","239","530512","0.0-239.0","z6pxpp20","","","null","","Agent B","veridical","STIM_SET_1/498175.bmp_pp154_L1_V1.0_veridical_freeview_isoFalse.mp4",""
"","","","call-function","240","530513","0.0-240.0","z6pxpp20","","","","","","","",""
"2338.8249999999534","{""judgement"":1}","[0]","survey-likert","241","532852","0.0-241.0","z6pxpp20","","","","","","","","1"
"1635.2249999999767","{""confidence"":2}","[0]","survey-likert","242","534489","0.0-242.0","z6pxpp20","","","","","","","",""
"","","","call-function","243","534489","0.0-243.0","z6pxpp20","","","","","","","",""
"null","","","html-keyboard-response","244","535992","0.0-244.0","z6pxpp20","","<span style=""color:Black; font-size:50px;"">Agent A","null","","","","",""
"null","","","video-keyboard-response","245","539105","0.0-245.0","z6pxpp20","","","null","","Agent A","veridical","STIM_SET_1/1159882.bmp_pp61_L2_V1.0_veridical_freeview_isoFalse.mp4",""
"null","","","html-keyboard-response","246","540609","0.0-246.0","z6pxpp20","","<span style=""color:Black; font-size:50px;"">Agent B","null","","","","",""
"null","","","video-keyboard-response","247","543720","0.0-247.0","z6pxpp20","","","null","","Agent B","scrambled","STIM_SET_1/1159882.bmp_pp61_L2_V1.0_scrambled_freeview_isoFalse.mp4",""
"","","","call-function","248","543720","0.0-248.0","z6pxpp20","","","","","","","",""
"2878.5899999999674","{""judgement"":1}","[0]","survey-likert","249","546600","0.0-249.0","z6pxpp20","","","","","","","","0"
"1338.890000000014","{""confidence"":1}","[0]","survey-likert","250","547940","0.0-250.0","z6pxpp20","","","","","","","",""
"2057.7550000000047","","","instructions","251","549999","0.0-251.0","z6pxpp20","[{""page_index"":0,""viewing_time"":998.6899999999441},{""page_index"":1,""viewing_time"":486.8400000000838},{""page_index"":2,""viewing_time"":571.9949999999953}]","","","","","","",""
"1216.5350000000326","","","instructions","252","551216","0.0-252.0","z6pxpp20","[{""page_index"":0,""viewing_time"":330.39000000001397},{""page_index"":1,""viewing_time"":381.89999999990687},{""page_index"":2,""viewing_time"":504.0450000000419}]","","","","","","",""
"","","","call-function","253","551216","0.0-253.0","z6pxpp20","","","","","","","",""
"null","","","html-keyboard-response","254","552720","0.0-254.0","z6pxpp20","","<span style=""color:Black; font-size:50px;"">Agent A","null","","","","",""
"null","","","video-keyboard-response","255","555789","0.0-255.0","z6pxpp20","","","null","","Agent A","veridical","STIM_SET_1/1159572.bmp_pp71_L1_V1.0_veridical_freeview_isoFalse.mp4",""
"null","","","html-keyboard-response","256","557293","0.0-256.0","z6pxpp20","","<span style=""color:Black; font-size:50px;"">Agent B","null","","","","",""
"null","","","video-keyboard-response","257","560363","0.0-257.0","z6pxpp20","","","null","","Agent B","scrambled","STIM_SET_1/1159572.bmp_pp71_L1_V1.0_scrambled_freeview_isoFalse.mp4",""
"","","","call-function","258","560364","0.0-258.0","z6pxpp20","","","","","","","",""
"1425.0900000000838","{""judgement"":0}","[0]","survey-likert","259","561790","0.0-259.0","z6pxpp20","","","","","","","","0"
"1554.3699999999953","{""confidence"":3}","[0]","survey-likert","260","563346","0.0-260.0","z6pxpp20","","","","","","","",""
"","","","call-function","261","563346","0.0-261.0","z6pxpp20","","","","","","","",""
"null","","","html-keyboard-response","262","564851","0.0-262.0","z6pxpp20","","<span style=""color:Black; font-size:50px;"">Agent A","null","","","","",""
"null","","","video-keyboard-response","263","567917","0.0-263.0","z6pxpp20","","","null","","Agent A","veridical","STIM_SET_1/1592727.bmp_pp59_L3_V1.0_veridical_freeview_isoFalse.mp4",""
"null","","","html-keyboard-response","264","569422","0.0-264.0","z6pxpp20","","<span style=""color:Black; font-size:50px;"">Agent B","null","","","","",""
"null","","","video-keyboard-response","265","572491","0.0-265.0","z6pxpp20","","","null","","Agent B","scrambled","STIM_SET_1/1592727.bmp_pp59_L3_V1.0_scrambled_freeview_isoFalse.mp4",""
"","","","call-function","266","572491","0.0-266.0","z6pxpp20","","","","","","","",""
"2954.444999999949","{""judgement"":0}","[0]","survey-likert","267","575446","0.0-267.0","z6pxpp20","","","","","","","","0"
"1285.7449999999953","{""confidence"":2}","[0]","survey-likert","268","576734","0.0-268.0","z6pxpp20","","","","","","","",""
"","","","call-function","269","576735","0.0-269.0","z6pxpp20","","","","","","","",""
"null","","","html-keyboard-response","270","578238","0.0-270.0","z6pxpp20","","<span style=""color:Black; font-size:50px;"">Agent A","null","","","","",""
"null","","","video-keyboard-response","271","581343","0.0-271.0","z6pxpp20","","","null","","Agent A","veridical","STIM_SET_1/1159446.bmp_pp60_L3_V1.0_veridical_freeview_isoFalse.mp4",""
"null","","","html-keyboard-response","272","582850","0.0-272.0","z6pxpp20","","<span style=""color:Black; font-size:50px;"">Agent B","null","","","","",""
"null","","","video-keyboard-response","273","585952","0.0-273.0","z6pxpp20","","","null","","Agent B","scrambled","STIM_SET_1/1159446.bmp_pp60_L3_V1.0_scrambled_freeview_isoFalse.mp4",""
"","","","call-function","274","585953","0.0-274.0","z6pxpp20","","","","","","","",""
"2712.0500000000466","{""judgement"":0}","[0]","survey-likert","275","588666","0.0-275.0","z6pxpp20","","","","","","","","0"
"1969.6699999999255","{""confidence"":3}","[0]","survey-likert","276","590636","0.0-276.0","z6pxpp20","","","","","","","",""
"","","","call-function","277","590637","0.0-277.0","z6pxpp20","","","","","","","",""
"null","","","html-keyboard-response","278","592141","0.0-278.0","z6pxpp20","","<span style=""color:Black; font-size:50px;"">Agent A","null","","","","",""
"null","","","video-keyboard-response","279","595266","0.0-279.0","z6pxpp20","","","null","","Agent A","scrambled","STIM_SET_1/1592807.bmp_pp68_L1_V1.0_scrambled_freeview_isoFalse.mp4",""
"null","","","html-keyboard-response","280","596773","0.0-280.0","z6pxpp20","","<span style=""color:Black; font-size:50px;"">Agent B","null","","","","",""
"null","","","video-keyboard-response","281","599849","0.0-281.0","z6pxpp20","","","null","","Agent B","veridical","STIM_SET_1/1592807.bmp_pp68_L1_V1.0_veridical_freeview_isoFalse.mp4",""
"","","","call-function","282","599851","0.0-282.0","z6pxpp20","","","","","","","",""
"1728.0100000000093","{""judgement"":0}","[0]","survey-likert","283","601580","0.0-283.0","z6pxpp20","","","","","","","","1"
"1388.0250000000233","{""confidence"":2}","[0]","survey-likert","284","602970","0.0-284.0","z6pxpp20","","","","","","","",""
"","","","call-function","285","602970","0.0-285.0","z6pxpp20","","","","","","","",""
"null","","","html-keyboard-response","286","604474","0.0-286.0","z6pxpp20","","<span style=""color:Black; font-size:50px;"">Agent A","null","","","","",""
"null","","","video-keyboard-response","287","607554","0.0-287.0","z6pxpp20","","","null","","Agent A","scrambled","STIM_SET_1/1591961.bmp_pp67_L2_V1.0_scrambled_freeview_isoFalse.mp4",""
"null","","","html-keyboard-response","288","609060","0.0-288.0","z6pxpp20","","<span style=""color:Black; font-size:50px;"">Agent B","null","","","","",""
"null","","","video-keyboard-response","289","612133","0.0-289.0","z6pxpp20","","","null","","Agent B","veridical","STIM_SET_1/1591961.bmp_pp67_L2_V1.0_veridical_freeview_isoFalse.mp4",""
"","","","call-function","290","612134","0.0-290.0","z6pxpp20","","","","","","","",""
"2142.954999999958","{""judgement"":1}","[0]","survey-likert","291","614278","0.0-291.0","z6pxpp20","","","","","","","","1"
"1717.6599999999162","{""confidence"":2}","[0]","survey-likert","292","615997","0.0-292.0","z6pxpp20","","","","","","","",""
"","","","call-function","293","615997","0.0-293.0","z6pxpp20","","","","","","","",""
"null","","","html-keyboard-response","294","617499","0.0-294.0","z6pxpp20","","<span style=""color:Black; font-size:50px;"">Agent A","null","","","","",""
"null","","","video-keyboard-response","295","620566","0.0-295.0","z6pxpp20","","","null","","Agent A","scrambled","STIM_SET_1/285994.bmp_pp92_L3_V1.0_scrambled_freeview_isoFalse.mp4",""
"null","","","html-keyboard-response","296","622071","0.0-296.0","z6pxpp20","","<span style=""color:Black; font-size:50px;"">Agent B","null","","","","",""
"null","","","video-keyboard-response","297","625181","0.0-297.0","z6pxpp20","","","null","","Agent B","veridical","STIM_SET_1/285994.bmp_pp92_L3_V1.0_veridical_freeview_isoFalse.mp4",""
"","","","call-function","298","625182","0.0-298.0","z6pxpp20","","","","","","","",""
"2764.804999999935","{""judgement"":1}","[0]","survey-likert","299","627947","0.0-299.0","z6pxpp20","","","","","","","","1"
"1553.1950000000652","{""confidence"":2}","[0]","survey-likert","300","629502","0.0-300.0","z6pxpp20","","","","","","","",""
"","","","call-function","301","629502","0.0-301.0","z6pxpp20","","","","","","","",""
"null","","","html-keyboard-response","302","631008","0.0-302.0","z6pxpp20","","<span style=""color:Black; font-size:50px;"">Agent A","null","","","","",""
"null","","","video-keyboard-response","303","634120","0.0-303.0","z6pxpp20","","","null","","Agent A","scrambled","STIM_SET_1/61537.bmp_pp73_L3_V1.0_scrambled_freeview_isoFalse.mp4",""
"null","","","html-keyboard-response","304","635625","0.0-304.0","z6pxpp20","","<span style=""color:Black; font-size:50px;"">Agent B","null","","","","",""
"null","","","video-keyboard-response","305","638743","0.0-305.0","z6pxpp20","","","null","","Agent B","veridical","STIM_SET_1/61537.bmp_pp73_L3_V1.0_veridical_freeview_isoFalse.mp4",""
"","","","call-function","306","638743","0.0-306.0","z6pxpp20","","","","","","","",""
"3100.789999999921","{""judgement"":1}","[0]","survey-likert","307","641845","0.0-307.0","z6pxpp20","","","","","","","","1"
"1851.3200000000652","{""confidence"":3}","[0]","survey-likert","308","643698","0.0-308.0","z6pxpp20","","","","","","","",""
"","","","call-function","309","643698","0.0-309.0","z6pxpp20","","","","","","","",""
"null","","","html-keyboard-response","310","645201","0.0-310.0","z6pxpp20","","<span style=""color:Black; font-size:50px;"">Agent A","null","","","","",""
"null","","","video-keyboard-response","311","648322","0.0-311.0","z6pxpp20","","","null","","Agent A","veridical","STIM_SET_1/1592804.bmp_pp91_L3_V1.0_veridical_freeview_isoFalse.mp4",""
"null","","","html-keyboard-response","312","649823","0.0-312.0","z6pxpp20","","<span style=""color:Black; font-size:50px;"">Agent B","null","","","","",""
"null","","","video-keyboard-response","313","652941","0.0-313.0","z6pxpp20","","","null","","Agent B","scrambled","STIM_SET_1/1592804.bmp_pp91_L3_V1.0_scrambled_freeview_isoFalse.mp4",""
"","","","call-function","314","652941","0.0-314.0","z6pxpp20","","","","","","","",""
"4763.994999999995","{""judgement"":0}","[0]","survey-likert","315","657706","0.0-315.0","z6pxpp20","","","","","","","","0"
"6999.854999999981","{""confidence"":2}","[0]","survey-likert","316","664707","0.0-316.0","z6pxpp20","","","","","","","",""
"","","","call-function","317","664708","0.0-317.0","z6pxpp20","","","","","","","",""
"null","","","html-keyboard-response","318","666209","0.0-318.0","z6pxpp20","","<span style=""color:Black; font-size:50px;"">Agent A","null","","","","",""
"null","","","video-keyboard-response","319","669287","0.0-319.0","z6pxpp20","","","null","","Agent A","scrambled","STIM_SET_1/1159855.bmp_pp99_L2_V1.0_scrambled_freeview_isoFalse.mp4",""
"null","","","html-keyboard-response","320","670790","0.0-320.0","z6pxpp20","","<span style=""color:Black; font-size:50px;"">Agent B","null","","","","",""
"null","","","video-keyboard-response","321","673872","0.0-321.0","z6pxpp20","","","null","","Agent B","veridical","STIM_SET_1/1159855.bmp_pp99_L2_V1.0_veridical_freeview_isoFalse.mp4",""
"","","","call-function","322","673872","0.0-322.0","z6pxpp20","","","","","","","",""
"2887.195000000065","{""judgement"":1}","[0]","survey-likert","323","676760","0.0-323.0","z6pxpp20","","","","","","","","1"
"1340.920000000042","{""confidence"":2}","[0]","survey-likert","324","678103","0.0-324.0","z6pxpp20","","","","","","","",""
"","","","call-function","325","678103","0.0-325.0","z6pxpp20","","","","","","","",""
"null","","","html-keyboard-response","326","679604","0.0-326.0","z6pxpp20","","<span style=""color:Black; font-size:50px;"">Agent A","null","","","","",""
"null","","","video-keyboard-response","327","682681","0.0-327.0","z6pxpp20","","","null","","Agent A","scrambled","STIM_SET_1/1159777.bmp_pp77_L3_V1.0_scrambled_freeview_isoFalse.mp4",""
"null","","","html-keyboard-response","328","684187","0.0-328.0","z6pxpp20","","<span style=""color:Black; font-size:50px;"">Agent B","null","","","","",""
"null","","","video-keyboard-response","329","687268","0.0-329.0","z6pxpp20","","","null","","Agent B","veridical","STIM_SET_1/1159777.bmp_pp77_L3_V1.0_veridical_freeview_isoFalse.mp4",""
"","","","call-function","330","687269","0.0-330.0","z6pxpp20","","","","","","","",""
"1738.1450000000186","{""judgement"":1}","[0]","survey-likert","331","689008","0.0-331.0","z6pxpp20","","","","","","","","1"
"1270.0600000000559","{""confidence"":3}","[0]","survey-likert","332","690279","0.0-332.0","z6pxpp20","","","","","","","",""
"1680.3699999999953","","","instructions","333","691960","0.0-333.0","z6pxpp20","[{""page_index"":0,""viewing_time"":1076.9150000000373},{""page_index"":1,""viewing_time"":380.9549999999581},{""page_index"":2,""viewing_time"":222.30500000005122}]","","","","","","",""
"843.4550000000745","","","instructions","334","692804","0.0-334.0","z6pxpp20","[{""page_index"":0,""viewing_time"":465.99499999999534},{""page_index"":1,""viewing_time"":204.33500000007916},{""page_index"":2,""viewing_time"":173.01500000001397}]","","","","","","",""
"","","","call-function","335","692805","0.0-335.0","z6pxpp20","","","","","","","",""
"null","","","html-keyboard-response","336","694310","0.0-336.0","z6pxpp20","","<span style=""color:Black; font-size:50px;"">Agent A","null","","","","",""
"null","","","video-keyboard-response","337","697419","0.0-337.0","z6pxpp20","","","null","","Agent A","scrambled","STIM_SET_1/498111.bmp_pp88_L2_V1.0_scrambled_freeview_isoFalse.mp4",""
"null","","","html-keyboard-response","338","698925","0.0-338.0","z6pxpp20","","<span style=""color:Black; font-size:50px;"">Agent B","null","","","","",""
"null","","","video-keyboard-response","339","702031","0.0-339.0","z6pxpp20","","","null","","Agent B","veridical","STIM_SET_1/498111.bmp_pp88_L2_V1.0_veridical_freeview_isoFalse.mp4",""
"","","","call-function","340","702032","0.0-340.0","z6pxpp20","","","","","","","",""
"2284.9349999999395","{""judgement"":0}","[0]","survey-likert","341","704318","0.0-341.0","z6pxpp20","","","","","","","","1"
"1288.8049999999348","{""confidence"":2}","[0]","survey-likert","342","705608","0.0-342.0","z6pxpp20","","","","","","","",""
"","","","call-function","343","705608","0.0-343.0","z6pxpp20","","","","","","","",""
"null","","","html-keyboard-response","344","707112","0.0-344.0","z6pxpp20","","<span style=""color:Black; font-size:50px;"">Agent A","null","","","","",""
"null","","","video-keyboard-response","345","710222","0.0-345.0","z6pxpp20","","","null","","Agent A","veridical","STIM_SET_1/1592133.bmp_pp75_L1_V1.0_veridical_freeview_isoFalse.mp4",""
"null","","","html-keyboard-response","346","711726","0.0-346.0","z6pxpp20","","<span style=""color:Black; font-size:50px;"">Agent B","null","","","","",""
"null","","","video-keyboard-response","347","714836","0.0-347.0","z6pxpp20","","","null","","Agent B","scrambled","STIM_SET_1/1592133.bmp_pp75_L1_V1.0_scrambled_freeview_isoFalse.mp4",""
"","","","call-function","348","714837","0.0-348.0","z6pxpp20","","","","","","","",""
"1896.594999999972","{""judgement"":0}","[0]","survey-likert","349","716735","0.0-349.0","z6pxpp20","","","","","","","","0"
"2237.054999999935","{""confidence"":0}","[0]","survey-likert","350","718974","0.0-350.0","z6pxpp20","","","","","","","",""
"","","","call-function","351","718976","0.0-351.0","z6pxpp20","","","","","","","",""
"null","","","html-keyboard-response","352","720479","0.0-352.0","z6pxpp20","","<span style=""color:Black; font-size:50px;"">Agent A","null","","","","",""
"null","","","video-keyboard-response","353","723546","0.0-353.0","z6pxpp20","","","null","","Agent A","scrambled","STIM_SET_1/713681.bmp_pp86_L2_V1.0_scrambled_freeview_isoFalse.mp4",""
"null","","","html-keyboard-response","354","725052","0.0-354.0","z6pxpp20","","<span style=""color:Black; font-size:50px;"">Agent B","null","","","","",""
"null","","","video-keyboard-response","355","728122","0.0-355.0","z6pxpp20","","","null","","Agent B","veridical","STIM_SET_1/713681.bmp_pp86_L2_V1.0_veridical_freeview_isoFalse.mp4",""
"","","","call-function","356","728123","0.0-356.0","z6pxpp20","","","","","","","",""
"2548.969999999972","{""judgement"":1}","[0]","survey-likert","357","730673","0.0-357.0","z6pxpp20","","","","","","","","1"
"1115.030000000028","{""confidence"":2}","[0]","survey-likert","358","731790","0.0-358.0","z6pxpp20","","","","","","","",""
"","","","call-function","359","731790","0.0-359.0","z6pxpp20","","","","","","","",""
"null","","","html-keyboard-response","360","733292","0.0-360.0","z6pxpp20","","<span style=""color:Black; font-size:50px;"">Agent A","null","","","","",""
"null","","","video-keyboard-response","361","736364","0.0-361.0","z6pxpp20","","","null","","Agent A","scrambled","STIM_SET_1/1159813.bmp_pp79_L2_V1.0_scrambled_freeview_isoFalse.mp4",""
"null","","","html-keyboard-response","362","737870","0.0-362.0","z6pxpp20","","<span style=""color:Black; font-size:50px;"">Agent B","null","","","","",""
"null","","","video-keyboard-response","363","740943","0.0-363.0","z6pxpp20","","","null","","Agent B","veridical","STIM_SET_1/1159813.bmp_pp79_L2_V1.0_veridical_freeview_isoFalse.mp4",""
"","","","call-function","364","740944","0.0-364.0","z6pxpp20","","","","","","","",""
"2654.655000000028","{""judgement"":0}","[0]","survey-likert","365","743600","0.0-365.0","z6pxpp20","","","","","","","","1"
"1726.780000000028","{""confidence"":2}","[0]","survey-likert","366","745328","0.0-366.0","z6pxpp20","","","","","","","",""
"","","","call-function","367","745328","0.0-367.0","z6pxpp20","","","","","","","",""
"null","","","html-keyboard-response","368","746831","0.0-368.0","z6pxpp20","","<span style=""color:Black; font-size:50px;"">Agent A","null","","","","",""
"null","","","video-keyboard-response","369","749940","0.0-369.0","z6pxpp20","","","null","","Agent A","scrambled","STIM_SET_1/1159768.bmp_pp89_L1_V1.0_scrambled_freeview_isoFalse.mp4",""
"null","","","html-keyboard-response","370","751445","0.0-370.0","z6pxpp20","","<span style=""color:Black; font-size:50px;"">Agent B","null","","","","",""
"null","","","video-keyboard-response","371","754558","0.0-371.0","z6pxpp20","","","null","","Agent B","veridical","STIM_SET_1/1159768.bmp_pp89_L1_V1.0_veridical_freeview_isoFalse.mp4",""
"","","","call-function","372","754559","0.0-372.0","z6pxpp20","","","","","","","",""
"2763.320000000065","{""judgement"":1}","[0]","survey-likert","373","757323","0.0-373.0","z6pxpp20","","","","","","","","1"
"1417.859999999986","{""confidence"":3}","[0]","survey-likert","374","758742","0.0-374.0","z6pxpp20","","","","","","","",""
"","","","call-function","375","758742","0.0-375.0","z6pxpp20","","","","","","","",""
"null","","","html-keyboard-response","376","760249","0.0-376.0","z6pxpp20","","<span style=""color:Black; font-size:50px;"">Agent A","null","","","","",""
"null","","","video-keyboard-response","377","763361","0.0-377.0","z6pxpp20","","","null","","Agent A","scrambled","STIM_SET_1/1592362.bmp_pp95_L2_V1.0_scrambled_freeview_isoFalse.mp4",""
"null","","","html-keyboard-response","378","764867","0.0-378.0","z6pxpp20","","<span style=""color:Black; font-size:50px;"">Agent B","null","","","","",""
"null","","","video-keyboard-response","379","767979","0.0-379.0","z6pxpp20","","","null","","Agent B","veridical","STIM_SET_1/1592362.bmp_pp95_L2_V1.0_veridical_freeview_isoFalse.mp4",""
"","","","call-function","380","767980","0.0-380.0","z6pxpp20","","","","","","","",""
"2377.939999999944","{""judgement"":1}","[0]","survey-likert","381","770359","0.0-381.0","z6pxpp20","","","","","","","","1"
"2653.055000000051","{""confidence"":2}","[0]","survey-likert","382","773013","0.0-382.0","z6pxpp20","","","","","","","",""
"","","","call-function","383","773014","0.0-383.0","z6pxpp20","","","","","","","",""
"null","","","html-keyboard-response","384","774516","0.0-384.0","z6pxpp20","","<span style=""color:Black; font-size:50px;"">Agent A","null","","","","",""
"null","","","video-keyboard-response","385","777630","0.0-385.0","z6pxpp20","","","null","","Agent A","scrambled","STIM_SET_1/712977.bmp_pp51_L1_V1.0_scrambled_freeview_isoFalse.mp4",""
"null","","","html-keyboard-response","386","779132","0.0-386.0","z6pxpp20","","<span style=""color:Black; font-size:50px;"">Agent B","null","","","","",""
"null","","","video-keyboard-response","387","782250","0.0-387.0","z6pxpp20","","","null","","Agent B","veridical","STIM_SET_1/712977.bmp_pp51_L1_V1.0_veridical_freeview_isoFalse.mp4",""
"","","","call-function","388","782250","0.0-388.0","z6pxpp20","","","","","","","",""
"2494.384999999893","{""judgement"":1}","[0]","survey-likert","389","784746","0.0-389.0","z6pxpp20","","","","","","","","1"
"1469.7850000000326","{""confidence"":2}","[0]","survey-likert","390","786217","0.0-390.0","z6pxpp20","","","","","","","",""
"","","","call-function","391","786217","0.0-391.0","z6pxpp20","","","","","","","",""
"null","","","html-keyboard-response","392","787720","0.0-392.0","z6pxpp20","","<span style=""color:Black; font-size:50px;"">Agent A","null","","","","",""
"null","","","video-keyboard-response","393","790801","0.0-393.0","z6pxpp20","","","null","","Agent A","scrambled","STIM_SET_1/1159675.bmp_pp77_L3_V1.0_scrambled_freeview_isoFalse.mp4",""
"null","","","html-keyboard-response","394","792303","0.0-394.0","z6pxpp20","","<span style=""color:Black; font-size:50px;"">Agent B","null","","","","",""
"null","","","video-keyboard-response","395","795386","0.0-395.0","z6pxpp20","","","null","","Agent B","veridical","STIM_SET_1/1159675.bmp_pp77_L3_V1.0_veridical_freeview_isoFalse.mp4",""
"","","","call-function","396","795387","0.0-396.0","z6pxpp20","","","","","","","",""
"2797.664999999921","{""judgement"":1}","[0]","survey-likert","397","798185","0.0-397.0","z6pxpp20","","","","","","","","1"
"1890.0650000000605","{""confidence"":1}","[0]","survey-likert","398","800077","0.0-398.0","z6pxpp20","","","","","","","",""
"","","","call-function","399","800077","0.0-399.0","z6pxpp20","","","","","","","",""
"null","","","html-keyboard-response","400","801582","0.0-400.0","z6pxpp20","","<span style=""color:Black; font-size:50px;"">Agent A","null","","","","",""
"null","","","video-keyboard-response","401","804644","0.0-401.0","z6pxpp20","","","null","","Agent A","scrambled","STIM_SET_1/713684.bmp_pp85_L3_V1.0_scrambled_freeview_isoFalse.mp4",""
"null","","","html-keyboard-response","402","806147","0.0-402.0","z6pxpp20","","<span style=""color:Black; font-size:50px;"">Agent B","null","","","","",""
"null","","","video-keyboard-response","403","809208","0.0-403.0","z6pxpp20","","","null","","Agent B","veridical","STIM_SET_1/713684.bmp_pp85_L3_V1.0_veridical_freeview_isoFalse.mp4",""
"","","","call-function","404","809209","0.0-404.0","z6pxpp20","","","","","","","",""
"2787.030000000028","{""judgement"":0}","[0]","survey-likert","405","811997","0.0-405.0","z6pxpp20","","","","","","","","1"
"1311.9299999999348","{""confidence"":0}","[0]","survey-likert","406","813310","0.0-406.0","z6pxpp20","","","","","","","",""
"","","","call-function","407","813310","0.0-407.0","z6pxpp20","","","","","","","",""
"null","","","html-keyboard-response","408","814814","0.0-408.0","z6pxpp20","","<span style=""color:Black; font-size:50px;"">Agent A","null","","","","",""
"null","","","video-keyboard-response","409","817916","0.0-409.0","z6pxpp20","","","null","","Agent A","veridical","STIM_SET_1/286001.bmp_pp54_L2_V1.0_veridical_freeview_isoFalse.mp4",""
"null","","","html-keyboard-response","410","819420","0.0-410.0","z6pxpp20","","<span style=""color:Black; font-size:50px;"">Agent B","null","","","","",""
"null","","","video-keyboard-response","411","822518","0.0-411.0","z6pxpp20","","","null","","Agent B","scrambled","STIM_SET_1/286001.bmp_pp54_L2_V1.0_scrambled_freeview_isoFalse.mp4",""
"","","","call-function","412","822519","0.0-412.0","z6pxpp20","","","","","","","",""
"2530.2050000000745","{""judgement"":1}","[0]","survey-likert","413","825051","0.0-413.0","z6pxpp20","","","","","","","","0"
"1468.6199999999953","{""confidence"":2}","[0]","survey-likert","414","826521","0.0-414.0","z6pxpp20","","","","","","","",""
"1657.359999999986","","","instructions","415","828179","0.0-415.0","z6pxpp20","[{""page_index"":0,""viewing_time"":1133.7899999999208},{""page_index"":1,""viewing_time"":332.3100000000559},{""page_index"":2,""viewing_time"":191.0449999999255}]","","","","","","",""
"1138.8699999999953","","","instructions","416","829318","0.0-416.0","z6pxpp20","[{""page_index"":0,""viewing_time"":307.875},{""page_index"":1,""viewing_time"":472.91499999992084},{""page_index"":2,""viewing_time"":357.9749999999767}]","","","","","","",""
"","","","call-function","417","829319","0.0-417.0","z6pxpp20","","","","","","","",""
"null","","","html-keyboard-response","418","830824","0.0-418.0","z6pxpp20","","<span style=""color:Black; font-size:50px;"">Agent A","null","","","","",""
"null","","","video-keyboard-response","419","833948","0.0-419.0","z6pxpp20","","","null","","Agent A","scrambled","STIM_SET_1/713666.bmp_pp97_L3_V1.0_scrambled_freeview_isoFalse.mp4",""
"null","","","html-keyboard-response","420","835452","0.0-420.0","z6pxpp20","","<span style=""color:Black; font-size:50px;"">Agent B","null","","","","",""
"null","","","video-keyboard-response","421","838531","0.0-421.0","z6pxpp20","","","null","","Agent B","veridical","STIM_SET_1/713666.bmp_pp97_L3_V1.0_veridical_freeview_isoFalse.mp4",""
"","","","call-function","422","838532","0.0-422.0","z6pxpp20","","","","","","","",""
"1704.7399999999907","{""judgement"":1}","[0]","survey-likert","423","840238","0.0-423.0","z6pxpp20","","","","","","","","1"
"1498.5899999999674","{""confidence"":3}","[0]","survey-likert","424","841739","0.0-424.0","z6pxpp20","","","","","","","",""
"","","","call-function","425","841740","0.0-425.0","z6pxpp20","","","","","","","",""
"null","","","html-keyboard-response","426","843243","0.0-426.0","z6pxpp20","","<span style=""color:Black; font-size:50px;"">Agent A","null","","","","",""
"null","","","video-keyboard-response","427","846321","0.0-427.0","z6pxpp20","","","null","","Agent A","scrambled","STIM_SET_1/713371.bmp_pp68_L1_V1.0_scrambled_freeview_isoFalse.mp4",""
"null","","","html-keyboard-response","428","847824","0.0-428.0","z6pxpp20","","<span style=""color:Black; font-size:50px;"">Agent B","null","","","","",""
"null","","","video-keyboard-response","429","850906","0.0-429.0","z6pxpp20","","","null","","Agent B","veridical","STIM_SET_1/713371.bmp_pp68_L1_V1.0_veridical_freeview_isoFalse.mp4",""
"","","","call-function","430","850907","0.0-430.0","z6pxpp20","","","","","","","",""
"1721.8850000000093","{""judgement"":1}","[0]","survey-likert","431","852630","0.0-431.0","z6pxpp20","","","","","","","","1"
"1648.4949999999953","{""confidence"":3}","[0]","survey-likert","432","854279","0.0-432.0","z6pxpp20","","","","","","","",""
"","","","call-function","433","854280","0.0-433.0","z6pxpp20","","","","","","","",""
"null","","","html-keyboard-response","434","855786","0.0-434.0","z6pxpp20","","<span style=""color:Black; font-size:50px;"">Agent A","null","","","","",""
"null","","","video-keyboard-response","435","858856","0.0-435.0","z6pxpp20","","","null","","Agent A","veridical","STIM_SET_1/1593035.bmp_pp94_L2_V1.0_veridical_freeview_isoFalse.mp4",""
"null","","","html-keyboard-response","436","860359","0.0-436.0","z6pxpp20","","<span style=""color:Black; font-size:50px;"">Agent B","null","","","","",""
"null","","","video-keyboard-response","437","863429","0.0-437.0","z6pxpp20","","","null","","Agent B","scrambled","STIM_SET_1/1593035.bmp_pp94_L2_V1.0_scrambled_freeview_isoFalse.mp4",""
"","","","call-function","438","863429","0.0-438.0","z6pxpp20","","","","","","","",""
"2694.1049999999814","{""judgement"":1}","[0]","survey-likert","439","866124","0.0-439.0","z6pxpp20","","","","","","","","0"
"1944.1949999999488","{""confidence"":2}","[0]","survey-likert","440","868070","0.0-440.0","z6pxpp20","","","","","","","",""
"","","","call-function","441","868070","0.0-441.0","z6pxpp20","","","","","","","",""
"null","","","html-keyboard-response","442","869572","0.0-442.0","z6pxpp20","","<span style=""color:Black; font-size:50px;"">Agent A","null","","","","",""
"null","","","video-keyboard-response","443","872687","0.0-443.0","z6pxpp20","","","null","","Agent A","scrambled","STIM_SET_1/1592397.bmp_pp85_L3_V1.0_scrambled_freeview_isoFalse.mp4",""
"null","","","html-keyboard-response","444","874189","0.0-444.0","z6pxpp20","","<span style=""color:Black; font-size:50px;"">Agent B","null","","","","",""
"null","","","video-keyboard-response","445","877305","0.0-445.0","z6pxpp20","","","null","","Agent B","veridical","STIM_SET_1/1592397.bmp_pp85_L3_V1.0_veridical_freeview_isoFalse.mp4",""
"","","","call-function","446","877305","0.0-446.0","z6pxpp20","","","","","","","",""
"5581.32500000007","{""judgement"":1}","[0]","survey-likert","447","882888","0.0-447.0","z6pxpp20","","","","","","","","1"
"2813.9599999999627","{""confidence"":2}","[0]","survey-likert","448","885703","0.0-448.0","z6pxpp20","","","","","","","",""
"","","","call-function","449","885703","0.0-449.0","z6pxpp20","","","","","","","",""
"null","","","html-keyboard-response","450","887210","0.0-450.0","z6pxpp20","","<span style=""color:Black; font-size:50px;"">Agent A","null","","","","",""
"null","","","video-keyboard-response","451","890298","0.0-451.0","z6pxpp20","","","null","","Agent A","scrambled","STIM_SET_1/1593041.bmp_pp58_L1_V1.0_scrambled_freeview_isoFalse.mp4",""
"null","","","html-keyboard-response","452","891800","0.0-452.0","z6pxpp20","","<span style=""color:Black; font-size:50px;"">Agent B","null","","","","",""
"null","","","video-keyboard-response","453","894886","0.0-453.0","z6pxpp20","","","null","","Agent B","veridical","STIM_SET_1/1593041.bmp_pp58_L1_V1.0_veridical_freeview_isoFalse.mp4",""
"","","","call-function","454","894887","0.0-454.0","z6pxpp20","","","","","","","",""
"2406.5350000000326","{""judgement"":0}","[0]","survey-likert","455","897294","0.0-455.0","z6pxpp20","","","","","","","","1"
"1001.9350000000559","{""confidence"":1}","[0]","survey-likert","456","898297","0.0-456.0","z6pxpp20","","","","","","","",""
"","","","call-function","457","898298","0.0-457.0","z6pxpp20","","","","","","","",""
"null","","","html-keyboard-response","458","899800","0.0-458.0","z6pxpp20","","<span style=""color:Black; font-size:50px;"">Agent A","null","","","","",""
"null","","","video-keyboard-response","459","902913","0.0-459.0","z6pxpp20","","","null","","Agent A","veridical","STIM_SET_1/1591876.bmp_pp63_L1_V1.0_veridical_freeview_isoFalse.mp4",""
"null","","","html-keyboard-response","460","904415","0.0-460.0","z6pxpp20","","<span style=""color:Black; font-size:50px;"">Agent B","null","","","","",""
"null","","","video-keyboard-response","461","907535","0.0-461.0","z6pxpp20","","","null","","Agent B","scrambled","STIM_SET_1/1591876.bmp_pp63_L1_V1.0_scrambled_freeview_isoFalse.mp4",""
"","","","call-function","462","907536","0.0-462.0","z6pxpp20","","","","","","","",""
"1752.0699999999488","{""judgement"":0}","[0]","survey-likert","463","909289","0.0-463.0","z6pxpp20","","","","","","","","0"
"1938.9249999999302","{""confidence"":3}","[0]","survey-likert","464","911229","0.0-464.0","z6pxpp20","","","","","","","",""
"","","","call-function","465","911230","0.0-465.0","z6pxpp20","","","","","","","",""
"null","","","html-keyboard-response","466","912731","0.0-466.0","z6pxpp20","","<span style=""color:Black; font-size:50px;"">Agent A","null","","","","",""
"null","","","video-keyboard-response","467","915793","0.0-467.0","z6pxpp20","","","null","","Agent A","scrambled","STIM_SET_1/713760.bmp_pp81_L1_V1.0_scrambled_freeview_isoFalse.mp4",""
"null","","","html-keyboard-response","468","917299","0.0-468.0","z6pxpp20","","<span style=""color:Black; font-size:50px;"">Agent B","null","","","","",""
"null","","","video-keyboard-response","469","920366","0.0-469.0","z6pxpp20","","","null","","Agent B","veridical","STIM_SET_1/713760.bmp_pp81_L1_V1.0_veridical_freeview_isoFalse.mp4",""
"","","","call-function","470","920366","0.0-470.0","z6pxpp20","","","","","","","",""
"3667.7850000000326","{""judgement"":1}","[0]","survey-likert","471","924035","0.0-471.0","z6pxpp20","","","","","","","","1"
"1624.875","{""confidence"":1}","[0]","survey-likert","472","925661","0.0-472.0","z6pxpp20","","","","","","","",""
"","","","call-function","473","925662","0.0-473.0","z6pxpp20","","","","","","","",""
"null","","","html-keyboard-response","474","927166","0.0-474.0","z6pxpp20","","<span style=""color:Black; font-size:50px;"">Agent A","null","","","","",""
"null","","","video-keyboard-response","475","930241","0.0-475.0","z6pxpp20","","","null","","Agent A","scrambled","STIM_SET_1/1592581.bmp_pp100_L3_V1.0_scrambled_freeview_isoFalse.mp4",""
"null","","","html-keyboard-response","476","931744","0.0-476.0","z6pxpp20","","<span style=""color:Black; font-size:50px;"">Agent B","null","","","","",""
"null","","","video-keyboard-response","477","934819","0.0-477.0","z6pxpp20","","","null","","Agent B","veridical","STIM_SET_1/1592581.bmp_pp100_L3_V1.0_veridical_freeview_isoFalse.mp4",""
"","","","call-function","478","934819","0.0-478.0","z6pxpp20","","","","","","","",""
"1536.9799999999814","{""judgement"":1}","[0]","survey-likert","479","936357","0.0-479.0","z6pxpp20","","","","","","","","1"
"1592.7249999999767","{""confidence"":2}","[0]","survey-likert","480","937952","0.0-480.0","z6pxpp20","","","","","","","",""
"","","","call-function","481","937952","0.0-481.0","z6pxpp20","","","","","","","",""
"null","","","html-keyboard-response","482","939456","0.0-482.0","z6pxpp20","","<span style=""color:Black; font-size:50px;"">Agent A","null","","","","",""
"null","","","video-keyboard-response","483","942571","0.0-483.0","z6pxpp20","","","null","","Agent A","scrambled","STIM_SET_1/1592934.bmp_pp63_L1_V1.0_scrambled_freeview_isoFalse.mp4",""
"null","","","html-keyboard-response","484","944075","0.0-484.0","z6pxpp20","","<span style=""color:Black; font-size:50px;"">Agent B","null","","","","",""
"null","","","video-keyboard-response","485","947149","0.0-485.0","z6pxpp20","","","null","","Agent B","veridical","STIM_SET_1/1592934.bmp_pp63_L1_V1.0_veridical_freeview_isoFalse.mp4",""
"","","","call-function","486","947150","0.0-486.0","z6pxpp20","","","","","","","",""
"1549.3099999999395","{""judgement"":0}","[0]","survey-likert","487","948701","0.0-487.0","z6pxpp20","","","","","","","","1"
"1325.3649999999907","{""confidence"":1}","[0]","survey-likert","488","950028","0.0-488.0","z6pxpp20","","","","","","","",""
"","","","call-function","489","950029","0.0-489.0","z6pxpp20","","","","","","","",""
"null","","","html-keyboard-response","490","951531","0.0-490.0","z6pxpp20","","<span style=""color:Black; font-size:50px;"">Agent A","null","","","","",""
"null","","","video-keyboard-response","491","954608","0.0-491.0","z6pxpp20","","","null","","Agent A","veridical","STIM_SET_1/498253.bmp_pp67_L2_V1.0_veridical_freeview_isoFalse.mp4",""
"null","","","html-keyboard-response","492","956114","0.0-492.0","z6pxpp20","","<span style=""color:Black; font-size:50px;"">Agent B","null","","","","",""
"null","","","video-keyboard-response","493","959192","0.0-493.0","z6pxpp20","","","null","","Agent B","scrambled","STIM_SET_1/498253.bmp_pp67_L2_V1.0_scrambled_freeview_isoFalse.mp4",""
"","","","call-function","494","959193","0.0-494.0","z6pxpp20","","","","","","","",""
"3699.519999999902","{""judgement"":0}","[0]","survey-likert","495","962893","0.0-495.0","z6pxpp20","","","","","","","","0"
"1690.7050000000745","{""confidence"":0}","[0]","survey-likert","496","964585","0.0-496.0","z6pxpp20","","","","","","","",""
"6083.0650000000605","","","instructions","497","970669","0.0-497.0","z6pxpp20","[{""page_index"":0,""viewing_time"":5503.344999999972},{""page_index"":1,""viewing_time"":365.22500000009313},{""page_index"":2,""viewing_time"":214.26500000001397}]","","","","","","",""
"799.9799999999814","","","instructions","498","971470","0.0-498.0","z6pxpp20","[{""page_index"":0,""viewing_time"":428.5999999999767},{""page_index"":1,""viewing_time"":167.15000000002328},{""page_index"":2,""viewing_time"":204.11999999999534}]","","","","","","",""
"","","","call-function","499","971471","0.0-499.0","z6pxpp20","","","","","","","",""
"null","","","html-keyboard-response","500","972973","0.0-500.0","z6pxpp20","","<span style=""color:Black; font-size:50px;"">Agent A","null","","","","",""
"null","","","video-keyboard-response","501","976051","0.0-501.0","z6pxpp20","","","null","","Agent A","veridical","STIM_SET_1/1592657.bmp_pp98_L1_V1.0_veridical_freeview_isoFalse.mp4",""
"null","","","html-keyboard-response","502","977553","0.0-502.0","z6pxpp20","","<span style=""color:Black; font-size:50px;"">Agent B","null","","","","",""
"null","","","video-keyboard-response","503","980630","0.0-503.0","z6pxpp20","","","null","","Agent B","scrambled","STIM_SET_1/1592657.bmp_pp98_L1_V1.0_scrambled_freeview_isoFalse.mp4",""
"","","","call-function","504","980631","0.0-504.0","z6pxpp20","","","","","","","",""
"1559.1450000000186","{""judgement"":0}","[0]","survey-likert","505","982191","0.0-505.0","z6pxpp20","","","","","","","","0"
"2243.804999999935","{""confidence"":3}","[0]","survey-likert","506","984436","0.0-506.0","z6pxpp20","","","","","","","",""
"","","","call-function","507","984436","0.0-507.0","z6pxpp20","","","","","","","",""
"null","","","html-keyboard-response","508","985940","0.0-508.0","z6pxpp20","","<span style=""color:Black; font-size:50px;"">Agent A","null","","","","",""
"null","","","video-keyboard-response","509","989013","0.0-509.0","z6pxpp20","","","null","","Agent A","veridical","STIM_SET_1/497950.bmp_pp151_L1_V1.0_veridical_freeview_isoFalse.mp4",""
"null","","","html-keyboard-response","510","990517","0.0-510.0","z6pxpp20","","<span style=""color:Black; font-size:50px;"">Agent B","null","","","","",""
"null","","","video-keyboard-response","511","993590","0.0-511.0","z6pxpp20","","","null","","Agent B","scrambled","STIM_SET_1/497950.bmp_pp151_L1_V1.0_scrambled_freeview_isoFalse.mp4",""
"","","","call-function","512","993591","0.0-512.0","z6pxpp20","","","","","","","",""
"1533.4450000000652","{""judgement"":0}","[0]","survey-likert","513","995125","0.0-513.0","z6pxpp20","","","","","","","","0"
"1347.9899999999907","{""confidence"":3}","[0]","survey-likert","514","996475","0.0-514.0","z6pxpp20","","","","","","","",""
"","","","call-function","515","996475","0.0-515.0","z6pxpp20","","","","","","","",""
"null","","","html-keyboard-response","516","997980","0.0-516.0","z6pxpp20","","<span style=""color:Black; font-size:50px;"">Agent A","null","","","","",""
"null","","","video-keyboard-response","517","1001090","0.0-517.0","z6pxpp20","","","null","","Agent A","veridical","STIM_SET_1/713513.bmp_pp62_L2_V1.0_veridical_freeview_isoFalse.mp4",""
"null","","","html-keyboard-response","518","1002591","0.0-518.0","z6pxpp20","","<span style=""color:Black; font-size:50px;"">Agent B","null","","","","",""
"null","","","video-keyboard-response","519","1005705","0.0-519.0","z6pxpp20","","","null","","Agent B","scrambled","STIM_SET_1/713513.bmp_pp62_L2_V1.0_scrambled_freeview_isoFalse.mp4",""
"","","","call-function","520","1005705","0.0-520.0","z6pxpp20","","","","","","","",""
"2409.3300000000745","{""judgement"":1}","[0]","survey-likert","521","1008116","0.0-521.0","z6pxpp20","","","","","","","","0"
"1313.0050000000047","{""confidence"":3}","[0]","survey-likert","522","1009430","0.0-522.0","z6pxpp20","","","","","","","",""
"","","","call-function","523","1009431","0.0-523.0","z6pxpp20","","","","","","","",""
"null","","","html-keyboard-response","524","1010933","0.0-524.0","z6pxpp20","","<span style=""color:Black; font-size:50px;"">Agent A","null","","","","",""
"null","","","video-keyboard-response","525","1014016","0.0-525.0","z6pxpp20","","","null","","Agent A","veridical","STIM_SET_1/713779.bmp_pp152_L2_V1.0_veridical_freeview_isoFalse.mp4",""
"null","","","html-keyboard-response","526","1015523","0.0-526.0","z6pxpp20","","<span style=""color:Black; font-size:50px;"">Agent B","null","","","","",""
"null","","","video-keyboard-response","527","1018588","0.0-527.0","z6pxpp20","","","null","","Agent B","scrambled","STIM_SET_1/713779.bmp_pp152_L2_V1.0_scrambled_freeview_isoFalse.mp4",""
"","","","call-function","528","1018589","0.0-528.0","z6pxpp20","","","","","","","",""
"2100.030000000028","{""judgement"":0}","[0]","survey-likert","529","1020690","0.0-529.0","z6pxpp20","","","","","","","","0"
"2269.109999999986","{""confidence"":1}","[0]","survey-likert","530","1022960","0.0-530.0","z6pxpp20","","","","","","","",""
"","","","call-function","531","1022961","0.0-531.0","z6pxpp20","","","","","","","",""
"null","","","html-keyboard-response","532","1024465","0.0-532.0","z6pxpp20","","<span style=""color:Black; font-size:50px;"">Agent A","null","","","","",""
"null","","","video-keyboard-response","533","1027536","0.0-533.0","z6pxpp20","","","null","","Agent A","veridical","STIM_SET_1/1159829.bmp_pp91_L3_V1.0_veridical_freeview_isoFalse.mp4",""
"null","","","html-keyboard-response","534","1029037","0.0-534.0","z6pxpp20","","<span style=""color:Black; font-size:50px;"">Agent B","null","","","","",""
"null","","","video-keyboard-response","535","1032150","0.0-535.0","z6pxpp20","","","null","","Agent B","scrambled","STIM_SET_1/1159829.bmp_pp91_L3_V1.0_scrambled_freeview_isoFalse.mp4",""
"","","","call-function","536","1032151","0.0-536.0","z6pxpp20","","","","","","","",""
"2491.314999999944","{""judgement"":0}","[0]","survey-likert","537","1034643","0.0-537.0","z6pxpp20","","","","","","","","0"
"2110.060000000056","{""confidence"":0}","[0]","survey-likert","538","1036754","0.0-538.0","z6pxpp20","","","","","","","",""
"","","","call-function","539","1036755","0.0-539.0","z6pxpp20","","","","","","","",""
"null","","","html-keyboard-response","540","1038259","0.0-540.0","z6pxpp20","","<span style=""color:Black; font-size:50px;"">Agent A","null","","","","",""
"null","","","video-keyboard-response","541","1041336","0.0-541.0","z6pxpp20","","","null","","Agent A","scrambled","STIM_SET_1/1593146.bmp_pp93_L1_V1.0_scrambled_freeview_isoFalse.mp4",""
"null","","","html-keyboard-response","542","1042840","0.0-542.0","z6pxpp20","","<span style=""color:Black; font-size:50px;"">Agent B","null","","","","",""
"null","","","video-keyboard-response","543","1045917","0.0-543.0","z6pxpp20","","","null","","Agent B","veridical","STIM_SET_1/1593146.bmp_pp93_L1_V1.0_veridical_freeview_isoFalse.mp4",""
"","","","call-function","544","1045917","0.0-544.0","z6pxpp20","","","","","","","",""
"2562.2850000000326","{""judgement"":0}","[0]","survey-likert","545","1048481","0.0-545.0","z6pxpp20","","","","","","","","1"
"2596.8299999998417","{""confidence"":2}","[0]","survey-likert","546","1051079","0.0-546.0","z6pxpp20","","","","","","","",""
"","","","call-function","547","1051079","0.0-547.0","z6pxpp20","","","","","","","",""
"null","","","html-keyboard-response","548","1052581","0.0-548.0","z6pxpp20","","<span style=""color:Black; font-size:50px;"">Agent A","null","","","","",""
"null","","","video-keyboard-response","549","1055654","0.0-549.0","z6pxpp20","","","null","","Agent A","scrambled","STIM_SET_1/498170.bmp_pp153_L3_V1.0_scrambled_freeview_isoFalse.mp4",""
"null","","","html-keyboard-response","550","1057157","0.0-550.0","z6pxpp20","","<span style=""color:Black; font-size:50px;"">Agent B","null","","","","",""
"null","","","video-keyboard-response","551","1060272","0.0-551.0","z6pxpp20","","","null","","Agent B","veridical","STIM_SET_1/498170.bmp_pp153_L3_V1.0_veridical_freeview_isoFalse.mp4",""
"","","","call-function","552","1060274","0.0-552.0","z6pxpp20","","","","","","","",""
"4973.449999999953","{""judgement"":1}","[0]","survey-likert","553","1065250","0.0-553.0","z6pxpp20","","","","","","","","1"
"1666.1100000001024","{""confidence"":1}","[0]","survey-likert","554","1066917","0.0-554.0","z6pxpp20","","","","","","","",""
"","","","call-function","555","1066919","0.0-555.0","z6pxpp20","","","","","","","",""
"null","","","html-keyboard-response","556","1068423","0.0-556.0","z6pxpp20","","<span style=""color:Black; font-size:50px;"">Agent A","null","","","","",""
"null","","","video-keyboard-response","557","1071503","0.0-557.0","z6pxpp20","","","null","","Agent A","veridical","STIM_SET_1/713620.bmp_pp65_L3_V1.0_veridical_freeview_isoFalse.mp4",""
"null","","","html-keyboard-response","558","1073010","0.0-558.0","z6pxpp20","","<span style=""color:Black; font-size:50px;"">Agent B","null","","","","",""
"null","","","video-keyboard-response","559","1076089","0.0-559.0","z6pxpp20","","","null","","Agent B","scrambled","STIM_SET_1/713620.bmp_pp65_L3_V1.0_scrambled_freeview_isoFalse.mp4",""
"","","","call-function","560","1076090","0.0-560.0","z6pxpp20","","","","","","","",""
"2776.0749999999534","{""judgement"":1}","[0]","survey-likert","561","1078867","0.0-561.0","z6pxpp20","","","","","","","","0"
"2498.9899999999907","{""confidence"":3}","[0]","survey-likert","562","1081367","0.0-562.0","z6pxpp20","","","","","","","",""
"","","","call-function","563","1081368","0.0-563.0","z6pxpp20","","","","","","","",""
"null","","","html-keyboard-response","564","1082869","0.0-564.0","z6pxpp20","","<span style=""color:Black; font-size:50px;"">Agent A","null","","","","",""
"null","","","video-keyboard-response","565","1085940","0.0-565.0","z6pxpp20","","","null","","Agent A","veridical","STIM_SET_1/1592619.bmp_pp56_L3_V1.0_veridical_freeview_isoFalse.mp4",""
"null","","","html-keyboard-response","566","1087442","0.0-566.0","z6pxpp20","","<span style=""color:Black; font-size:50px;"">Agent B","null","","","","",""
"null","","","video-keyboard-response","567","1090511","0.0-567.0","z6pxpp20","","","null","","Agent B","scrambled","STIM_SET_1/1592619.bmp_pp56_L3_V1.0_scrambled_freeview_isoFalse.mp4",""
"","","","call-function","568","1090512","0.0-568.0","z6pxpp20","","","","","","","",""
"1715.9950000001118","{""judgement"":0}","[0]","survey-likert","569","1092229","0.0-569.0","z6pxpp20","","","","","","","","0"
"1405.75","{""confidence"":3}","[0]","survey-likert","570","1093636","0.0-570.0","z6pxpp20","","","","","","","",""
"","","","call-function","571","1093636","0.0-571.0","z6pxpp20","","","","","","","",""
"null","","","html-keyboard-response","572","1095142","0.0-572.0","z6pxpp20","","<span style=""color:Black; font-size:50px;"">Agent A","null","","","","",""
"null","","","video-keyboard-response","573","1098264","0.0-573.0","z6pxpp20","","","null","","Agent A","scrambled","STIM_SET_1/285751.bmp_pp55_L3_V1.0_scrambled_freeview_isoFalse.mp4",""
"null","","","html-keyboard-response","574","1099766","0.0-574.0","z6pxpp20","","<span style=""color:Black; font-size:50px;"">Agent B","null","","","","",""
"null","","","video-keyboard-response","575","1102884","0.0-575.0","z6pxpp20","","","null","","Agent B","veridical","STIM_SET_1/285751.bmp_pp55_L3_V1.0_veridical_freeview_isoFalse.mp4",""
"","","","call-function","576","1102885","0.0-576.0","z6pxpp20","","","","","","","",""
"1722.7700000000186","{""judgement"":1}","[0]","survey-likert","577","1104609","0.0-577.0","z6pxpp20","","","","","","","","1"
"2626.684999999823","{""confidence"":2}","[0]","survey-likert","578","1107237","0.0-578.0","z6pxpp20","","","","","","","",""
"1715.1449999997858","","","instructions","579","1108953","0.0-579.0","z6pxpp20","[{""page_index"":0,""viewing_time"":1714.934999999823}]","","","","","","",""
"847.339999999851","","","instructions","580","1109801","0.0-580.0","z6pxpp20","[{""page_index"":0,""viewing_time"":847.2399999999907}]","","","","","","",""
"11342.215000000084","{""post-1"":3}","[0]","survey-likert","581","1121144","0.0-581.0","z6pxpp20","","","","","","","",""
"8128.834999999963","{""post-1"":2}","[0]","survey-likert","582","1129274","0.0-582.0","z6pxpp20","","","","","","","",""
"9817.880000000121","{""post-2"":2}","[0]","survey-likert","583","1139094","0.0-583.0","z6pxpp20","","","","","","","",""
"6144.959999999963","{""post-2"":1}","[0]","survey-likert","584","1145240","0.0-584.0","z6pxpp20","","","","","","","",""
"12650.52500000014","{""post-3"":3}","[0]","survey-likert","585","1157893","0.0-585.0","z6pxpp20","","","","","","","",""
"1790.6299999998882","{""post-3"":2}","[0]","survey-likert","586","1159686","0.0-586.0","z6pxpp20","","","","","","","",""
"6962.389999999898","{""post-4"":2}","[0]","survey-likert","587","1166651","0.0-587.0","z6pxpp20","","","","","","","",""
"2578.469999999972","{""post-4"":1}","[0]","survey-likert","588","1169231","0.0-588.0","z6pxpp20","","","","","","","",""
"5036.409999999916","{""post-5"":1}","[0]","survey-likert","589","1174269","0.0-589.0","z6pxpp20","","","","","","","",""
"6280.910000000149","{""post-5"":1}","[0]","survey-likert","590","1180551","0.0-590.0","z6pxpp20","","","","","","","",""
"34779.37999999989","{""Q0"":""It was kind of hard to distinguish which was which at times, other ones felt intuitive""}","","survey-text","591","1215336","0.0-591.0","z6pxpp20","","","","","","","",""
"43750.6100000001","{""Q0"":""I looked at the picture and tried gauging which hot spot pattern more closely resembled where I looked""}","","survey-text","592","1259091","0.0-592.0","z6pxpp20","","","","","","","",""
"25615.429999999935","{""Q0"":""Some of them felt very similar and hard to distinguish from each other ""}","","survey-text","593","1284711","0.0-593.0","z6pxpp20","","","","","","","",""
"1041.5400000000373","","","instructions","594","1285754","0.0-594.0","z6pxpp20","[{""page_index"":0,""viewing_time"":1041.3249999999534}]","","","","","","",""
"692621.29","{""Experimenter_end"":[""Printed ID# z6pxpp20 on consent form"",""Given subject SONA credit or payment"",""Given the subject debrief form""]}","[0]","survey-multi-select","595","1978380","0.0-595.0","z6pxpp20","","","","","","","",""
