"rt","responses","question_order","trial_type","trial_index","time_elapsed","internal_node_id","ID","view_history","stimulus","key_press","value","agent","condition","image","correct_answer"
"17218.175","{""Experimenter"":[""Confirmed subject's identity (ID card)"",""Confirmed normal or corrected-to-normal vision"",""Obtained consent (signature and date)"",""Checked the test room lighting"",""Checked computer screen lighting"",""Checked distance from screen to chin rest (50cm)"",""Cleaned and adjusted chin rest"",""Counterbalanced the order of the tasks"",""Opened the experiment in Firefox"",""Made the experiment full screen"",""Encouraged subject to silence phone, put away distractors, etc.""]}","[0]","survey-multi-select","0","17227","0.0-0.0","zj41psak","","","","","","","",""
"64612.380000000005","","","instructions","1","81841","0.0-1.0","zj41psak","[{""page_index"":0,""viewing_time"":64612.229999999996}]","","","","","","",""
"10338.485","","","instructions","2","92180","0.0-2.0","zj41psak","[{""page_index"":0,""viewing_time"":1877.5149999999994},{""page_index"":1,""viewing_time"":4610.860000000001},{""page_index"":2,""viewing_time"":3849.9850000000006}]","","","","","","",""
"2276.300000000003","","","instructions","3","94457","0.0-3.0","zj41psak","[{""page_index"":0,""viewing_time"":2276.195000000007}]","","","","","","",""
"null","","","video-keyboard-response","4","97535","0.0-4.0","zj41psak","","","null","","","","",""
"14322.265","","","instructions","5","111858","0.0-5.0","zj41psak","[{""page_index"":0,""viewing_time"":1654.0950000000012},{""page_index"":1,""viewing_time"":2028.0699999999924},{""page_index"":2,""viewing_time"":880.0550000000076},{""page_index"":3,""viewing_time"":2839.25},{""page_index"":4,""viewing_time"":6920.664999999994}]","","","","","","",""
"3093.3849999999948","","","instructions","6","114952","0.0-6.0","zj41psak","[{""page_index"":0,""viewing_time"":3093.2599999999948}]","","","","","","",""
"","","","call-function","7","114953","0.0-7.0","zj41psak","","","","","","","",""
"null","","","html-keyboard-response","8","116455","0.0-8.0","zj41psak","","<span style=""color:Black; font-size:50px;"">Agent A","null","","","","",""
"null","","","video-keyboard-response","9","119535","0.0-9.0","zj41psak","","","null","","Agent A","veridical","STIM_SET_1_REAL/498155.bmp_pp61_L2_V1.0_veridical_freeview_isoFalse_fps144.mp4",""
"null","","","html-keyboard-response","10","121037","0.0-10.0","zj41psak","","<span style=""color:Black; font-size:50px;"">Agent B","null","","","","",""
"null","","","video-keyboard-response","11","124124","0.0-11.0","zj41psak","","","null","","Agent B","scrambled","STIM_SET_3/498258.bmp_pp51_L1_V2_veridical_freeview_isoFalsemismatch_498155.bmp_L2_fps90.mp4",""
"","","","call-function","12","124124","0.0-12.0","zj41psak","","","","","","","",""
"2056.4000000000087","{""judgement"":0}","[0]","survey-likert","13","126182","0.0-13.0","zj41psak","","","","","","","","0"
"2101.3399999999965","{""confidence"":3}","[0]","survey-likert","14","128285","0.0-14.0","zj41psak","","","","","","","",""
"","","","call-function","15","128285","0.0-15.0","zj41psak","","","","","","","",""
"null","","","html-keyboard-response","16","129791","0.0-16.0","zj41psak","","<span style=""color:Black; font-size:50px;"">Agent A","null","","","","",""
"null","","","video-keyboard-response","17","132869","0.0-17.0","zj41psak","","","null","","Agent A","scrambled","STIM_SET_3/713689.bmp_pp153_L3_V2_veridical_freeview_isoFalsemismatch_498175.bmp_L1_fps90.mp4",""
"null","","","html-keyboard-response","18","134372","0.0-18.0","zj41psak","","<span style=""color:Black; font-size:50px;"">Agent B","null","","","","",""
"null","","","video-keyboard-response","19","137471","0.0-19.0","zj41psak","","","null","","Agent B","veridical","STIM_SET_1_REAL/498175.bmp_pp154_L1_V1.0_veridical_freeview_isoFalse_fps144.mp4",""
"","","","call-function","20","137471","0.0-20.0","zj41psak","","","","","","","",""
"1835.0100000000093","{""judgement"":1}","[0]","survey-likert","21","139308","0.0-21.0","zj41psak","","","","","","","","1"
"1765.7449999999953","{""confidence"":3}","[0]","survey-likert","22","141075","0.0-22.0","zj41psak","","","","","","","",""
"","","","call-function","23","141076","0.0-23.0","zj41psak","","","","","","","",""
"null","","","html-keyboard-response","24","142578","0.0-24.0","zj41psak","","<span style=""color:Black; font-size:50px;"">Agent A","null","","","","",""
"null","","","video-keyboard-response","25","145686","0.0-25.0","zj41psak","","","null","","Agent A","scrambled","STIM_SET_3/285715.bmp_pp67_L2_V2_veridical_freeview_isoFalsemismatch_1159882.bmp_L2_fps90.mp4",""
"null","","","html-keyboard-response","26","147192","0.0-26.0","zj41psak","","<span style=""color:Black; font-size:50px;"">Agent B","null","","","","",""
"null","","","video-keyboard-response","27","150281","0.0-27.0","zj41psak","","","null","","Agent B","veridical","STIM_SET_1_REAL/1159882.bmp_pp61_L2_V1.0_veridical_freeview_isoFalse_fps144.mp4",""
"","","","call-function","28","150282","0.0-28.0","zj41psak","","","","","","","",""
"3862.454999999987","{""judgement"":1}","[0]","survey-likert","29","154145","0.0-29.0","zj41psak","","","","","","","","1"
"2290.6299999999756","{""confidence"":1}","[0]","survey-likert","30","156437","0.0-30.0","zj41psak","","","","","","","",""
"","","","call-function","31","156437","0.0-31.0","zj41psak","","","","","","","",""
"null","","","html-keyboard-response","32","157942","0.0-32.0","zj41psak","","<span style=""color:Black; font-size:50px;"">Agent A","null","","","","",""
"null","","","video-keyboard-response","33","161017","0.0-33.0","zj41psak","","","null","","Agent A","scrambled","STIM_SET_3/713742.bmp_pp91_L3_V2_veridical_freeview_isoFalsemismatch_498170.bmp_L3_fps90.mp4",""
"null","","","html-keyboard-response","34","162519","0.0-34.0","zj41psak","","<span style=""color:Black; font-size:50px;"">Agent B","null","","","","",""
"null","","","video-keyboard-response","35","165610","0.0-35.0","zj41psak","","","null","","Agent B","veridical","STIM_SET_1_REAL/498170.bmp_pp153_L3_V1.0_veridical_freeview_isoFalse_fps144.mp4",""
"","","","call-function","36","165611","0.0-36.0","zj41psak","","","","","","","",""
"10494.070000000007","{""judgement"":1}","[0]","survey-likert","37","176106","0.0-37.0","zj41psak","","","","","","","","1"
"3272.6199999999953","{""confidence"":1}","[0]","survey-likert","38","179380","0.0-38.0","zj41psak","","","","","","","",""
"","","","call-function","39","179381","0.0-39.0","zj41psak","","","","","","","",""
"null","","","html-keyboard-response","40","180885","0.0-40.0","zj41psak","","<span style=""color:Black; font-size:50px;"">Agent A","null","","","","",""
"null","","","video-keyboard-response","41","183954","0.0-41.0","zj41psak","","","null","","Agent A","scrambled","STIM_SET_3/713652.bmp_pp89_L1_V2_veridical_freeview_isoFalsemismatch_1592807.bmp_L1_fps90.mp4",""
"null","","","html-keyboard-response","42","185457","0.0-42.0","zj41psak","","<span style=""color:Black; font-size:50px;"">Agent B","null","","","","",""
"null","","","video-keyboard-response","43","188537","0.0-43.0","zj41psak","","","null","","Agent B","veridical","STIM_SET_1_REAL/1592807.bmp_pp68_L1_V1.0_veridical_freeview_isoFalse_fps144.mp4",""
"","","","call-function","44","188538","0.0-44.0","zj41psak","","","","","","","",""
"1620.8349999999919","{""judgement"":1}","[0]","survey-likert","45","190160","0.0-45.0","zj41psak","","","","","","","","1"
"2027.6900000000023","{""confidence"":3}","[0]","survey-likert","46","192189","0.0-46.0","zj41psak","","","","","","","",""
"","","","call-function","47","192191","0.0-47.0","zj41psak","","","","","","","",""
"null","","","html-keyboard-response","48","193696","0.0-48.0","zj41psak","","<span style=""color:Black; font-size:50px;"">Agent A","null","","","","",""
"null","","","video-keyboard-response","49","196760","0.0-49.0","zj41psak","","","null","","Agent A","veridical","STIM_SET_1_REAL/1592133.bmp_pp75_L1_V1.0_veridical_freeview_isoFalse_fps144.mp4",""
"null","","","html-keyboard-response","50","198264","0.0-50.0","zj41psak","","<span style=""color:Black; font-size:50px;"">Agent B","null","","","","",""
"null","","","video-keyboard-response","51","201355","0.0-51.0","zj41psak","","","null","","Agent B","scrambled","STIM_SET_3/1160247.bmp_pp54_L2_V2_veridical_freeview_isoFalsemismatch_1592133.bmp_L1_fps90.mp4",""
"","","","call-function","52","201356","0.0-52.0","zj41psak","","","","","","","",""
"3438.6149999999907","{""judgement"":0}","[0]","survey-likert","53","204796","0.0-53.0","zj41psak","","","","","","","","0"
"1141.9750000000058","{""confidence"":1}","[0]","survey-likert","54","205939","0.0-54.0","zj41psak","","","","","","","",""
"","","","call-function","55","205940","0.0-55.0","zj41psak","","","","","","","",""
"null","","","html-keyboard-response","56","207444","0.0-56.0","zj41psak","","<span style=""color:Black; font-size:50px;"">Agent A","null","","","","",""
"null","","","video-keyboard-response","57","210522","0.0-57.0","zj41psak","","","null","","Agent A","scrambled","STIM_SET_3/1159592.bmp_pp91_L3_V2_veridical_freeview_isoFalsemismatch_285994.bmp_L3_fps90.mp4",""
"null","","","html-keyboard-response","58","212024","0.0-58.0","zj41psak","","<span style=""color:Black; font-size:50px;"">Agent B","null","","","","",""
"null","","","video-keyboard-response","59","215089","0.0-59.0","zj41psak","","","null","","Agent B","veridical","STIM_SET_1_REAL/285994.bmp_pp92_L3_V1.0_veridical_freeview_isoFalse_fps144.mp4",""
"","","","call-function","60","215090","0.0-60.0","zj41psak","","","","","","","",""
"1356.460000000021","{""judgement"":1}","[0]","survey-likert","61","216448","0.0-61.0","zj41psak","","","","","","","","1"
"2077.3850000000093","{""confidence"":3}","[0]","survey-likert","62","218526","0.0-62.0","zj41psak","","","","","","","",""
"","","","call-function","63","218527","0.0-63.0","zj41psak","","","","","","","",""
"null","","","html-keyboard-response","64","220032","0.0-64.0","zj41psak","","<span style=""color:Black; font-size:50px;"">Agent A","null","","","","",""
"null","","","video-keyboard-response","65","223141","0.0-65.0","zj41psak","","","null","","Agent A","scrambled","STIM_SET_3/285684.bmp_pp80_L3_V2_veridical_freeview_isoFalsemismatch_713760.bmp_L1_fps90.mp4",""
"null","","","html-keyboard-response","66","224643","0.0-66.0","zj41psak","","<span style=""color:Black; font-size:50px;"">Agent B","null","","","","",""
"null","","","video-keyboard-response","67","227746","0.0-67.0","zj41psak","","","null","","Agent B","veridical","STIM_SET_1_REAL/713760.bmp_pp81_L1_V1.0_veridical_freeview_isoFalse_fps144.mp4",""
"","","","call-function","68","227746","0.0-68.0","zj41psak","","","","","","","",""
"1733.6349999999802","{""judgement"":1}","[0]","survey-likert","69","229482","0.0-69.0","zj41psak","","","","","","","","1"
"2096.959999999992","{""confidence"":2}","[0]","survey-likert","70","231580","0.0-70.0","zj41psak","","","","","","","",""
"","","","call-function","71","231580","0.0-71.0","zj41psak","","","","","","","",""
"null","","","html-keyboard-response","72","233084","0.0-72.0","zj41psak","","<span style=""color:Black; font-size:50px;"">Agent A","null","","","","",""
"null","","","video-keyboard-response","73","236182","0.0-73.0","zj41psak","","","null","","Agent A","scrambled","STIM_SET_3/1591781.bmp_pp63_L1_V2_veridical_freeview_isoFalsemismatch_1593041.bmp_L1_fps90.mp4",""
"null","","","html-keyboard-response","74","237686","0.0-74.0","zj41psak","","<span style=""color:Black; font-size:50px;"">Agent B","null","","","","",""
"null","","","video-keyboard-response","75","240790","0.0-75.0","zj41psak","","","null","","Agent B","veridical","STIM_SET_1_REAL/1593041.bmp_pp58_L1_V1.0_veridical_freeview_isoFalse_fps144.mp4",""
"","","","call-function","76","240791","0.0-76.0","zj41psak","","","","","","","",""
"3698.235000000015","{""judgement"":0}","[0]","survey-likert","77","244490","0.0-77.0","zj41psak","","","","","","","","1"
"2345.070000000007","{""confidence"":1}","[0]","survey-likert","78","246836","0.0-78.0","zj41psak","","","","","","","",""
"","","","call-function","79","246837","0.0-79.0","zj41psak","","","","","","","",""
"null","","","html-keyboard-response","80","248339","0.0-80.0","zj41psak","","<span style=""color:Black; font-size:50px;"">Agent A","null","","","","",""
"null","","","video-keyboard-response","81","251438","0.0-81.0","zj41psak","","","null","","Agent A","scrambled","STIM_SET_3/713381.bmp_pp82_L2_V2_veridical_freeview_isoFalsemismatch_1159572.bmp_L1_fps90.mp4",""
"null","","","html-keyboard-response","82","252940","0.0-82.0","zj41psak","","<span style=""color:Black; font-size:50px;"">Agent B","null","","","","",""
"null","","","video-keyboard-response","83","256028","0.0-83.0","zj41psak","","","null","","Agent B","veridical","STIM_SET_1_REAL/1159572.bmp_pp71_L1_V1.0_veridical_freeview_isoFalse_fps144.mp4",""
"","","","call-function","84","256029","0.0-84.0","zj41psak","","","","","","","",""
"1784.9100000000035","{""judgement"":1}","[0]","survey-likert","85","257814","0.0-85.0","zj41psak","","","","","","","","1"
"1399.2249999999767","{""confidence"":3}","[0]","survey-likert","86","259215","0.0-86.0","zj41psak","","","","","","","",""
"3438.9899999999907","","","instructions","87","262655","0.0-87.0","zj41psak","[{""page_index"":0,""viewing_time"":1076.7250000000058},{""page_index"":1,""viewing_time"":1308.0349999999744},{""page_index"":2,""viewing_time"":1054.0199999999895}]","","","","","","",""
"5893.325000000012","","","instructions","88","268549","0.0-88.0","zj41psak","[{""page_index"":0,""viewing_time"":1484.1500000000233},{""page_index"":1,""viewing_time"":3610.0750000000116},{""page_index"":2,""viewing_time"":798.9049999999697}]","","","","","","",""
"","","","call-function","89","268549","0.0-89.0","zj41psak","","","","","","","",""
"null","","","html-keyboard-response","90","270051","0.0-90.0","zj41psak","","<span style=""color:Black; font-size:50px;"">Agent A","null","","","","",""
"null","","","video-keyboard-response","91","273121","0.0-91.0","zj41psak","","","null","","Agent A","veridical","STIM_SET_1_REAL/1159621.bmp_pp92_L3_V1.0_veridical_freeview_isoFalse_fps144.mp4",""
"null","","","html-keyboard-response","92","274625","0.0-92.0","zj41psak","","<span style=""color:Black; font-size:50px;"">Agent B","null","","","","",""
"null","","","video-keyboard-response","93","279102","0.0-93.0","zj41psak","","","null","","Agent B","scrambled","STIM_SET_3/1159860.bmp_pp152_L2_V2_veridical_freeview_isoFalsemismatch_1159621.bmp_L3_fps90.mp4",""
"","","","call-function","94","279103","0.0-94.0","zj41psak","","","","","","","",""
"3182.0900000000256","{""judgement"":0}","[0]","survey-likert","95","282286","0.0-95.0","zj41psak","","","","","","","","0"
"999.570000000007","{""confidence"":1}","[0]","survey-likert","96","283287","0.0-96.0","zj41psak","","","","","","","",""
"","","","call-function","97","283287","0.0-97.0","zj41psak","","","","","","","",""
"null","","","html-keyboard-response","98","284791","0.0-98.0","zj41psak","","<span style=""color:Black; font-size:50px;"">Agent A","null","","","","",""
"null","","","video-keyboard-response","99","287861","0.0-99.0","zj41psak","","","null","","Agent A","veridical","STIM_SET_1_REAL/1592499.bmp_pp96_L2_V1.0_veridical_freeview_isoFalse_fps144.mp4",""
"null","","","html-keyboard-response","100","289364","0.0-100.0","zj41psak","","<span style=""color:Black; font-size:50px;"">Agent B","null","","","","",""
"null","","","video-keyboard-response","101","292432","0.0-101.0","zj41psak","","","null","","Agent B","scrambled","STIM_SET_3/1159819.bmp_pp151_L1_V2_veridical_freeview_isoFalsemismatch_1592499.bmp_L2_fps90.mp4",""
"","","","call-function","102","292433","0.0-102.0","zj41psak","","","","","","","",""
"3206.3800000000047","{""judgement"":1}","[0]","survey-likert","103","295640","0.0-103.0","zj41psak","","","","","","","","0"
"2864.8850000000093","{""confidence"":1}","[0]","survey-likert","104","298506","0.0-104.0","zj41psak","","","","","","","",""
"","","","call-function","105","298507","0.0-105.0","zj41psak","","","","","","","",""
"null","","","html-keyboard-response","106","300009","0.0-106.0","zj41psak","","<span style=""color:Black; font-size:50px;"">Agent A","null","","","","",""
"null","","","video-keyboard-response","107","303133","0.0-107.0","zj41psak","","","null","","Agent A","scrambled","STIM_SET_3/1592530.bmp_pp75_L1_V2_veridical_freeview_isoFalsemismatch_1591961.bmp_L2_fps90.mp4",""
"null","","","html-keyboard-response","108","304637","0.0-108.0","zj41psak","","<span style=""color:Black; font-size:50px;"">Agent B","null","","","","",""
"null","","","video-keyboard-response","109","307741","0.0-109.0","zj41psak","","","null","","Agent B","veridical","STIM_SET_1_REAL/1591961.bmp_pp67_L2_V1.0_veridical_freeview_isoFalse_fps144.mp4",""
"","","","call-function","110","307741","0.0-110.0","zj41psak","","","","","","","",""
"1835.655000000028","{""judgement"":1}","[0]","survey-likert","111","309578","0.0-111.0","zj41psak","","","","","","","","1"
"1874.7999999999884","{""confidence"":2}","[0]","survey-likert","112","311454","0.0-112.0","zj41psak","","","","","","","",""
"","","","call-function","113","311454","0.0-113.0","zj41psak","","","","","","","",""
"null","","","html-keyboard-response","114","312956","0.0-114.0","zj41psak","","<span style=""color:Black; font-size:50px;"">Agent A","null","","","","",""
"null","","","video-keyboard-response","115","316049","0.0-115.0","zj41psak","","","null","","Agent A","scrambled","STIM_SET_3/713328.bmp_pp86_L2_V2_veridical_freeview_isoFalsemismatch_1591994.bmp_L3_fps90.mp4",""
"null","","","html-keyboard-response","116","317552","0.0-116.0","zj41psak","","<span style=""color:Black; font-size:50px;"">Agent B","null","","","","",""
"null","","","video-keyboard-response","117","320661","0.0-117.0","zj41psak","","","null","","Agent B","veridical","STIM_SET_1_REAL/1591994.bmp_pp69_L3_V1.0_veridical_freeview_isoFalse_fps144.mp4",""
"","","","call-function","118","320661","0.0-118.0","zj41psak","","","","","","","",""
"1390.5199999999604","{""judgement"":1}","[0]","survey-likert","119","322053","0.0-119.0","zj41psak","","","","","","","","1"
"2301.0350000000326","{""confidence"":3}","[0]","survey-likert","120","324356","0.0-120.0","zj41psak","","","","","","","",""
"","","","call-function","121","324358","0.0-121.0","zj41psak","","","","","","","",""
"null","","","html-keyboard-response","122","325864","0.0-122.0","zj41psak","","<span style=""color:Black; font-size:50px;"">Agent A","null","","","","",""
"null","","","video-keyboard-response","123","328934","0.0-123.0","zj41psak","","","null","","Agent A","scrambled","STIM_SET_3/1592350.bmp_pp55_L3_V2_veridical_freeview_isoFalsemismatch_498111.bmp_L2_fps90.mp4",""
"null","","","html-keyboard-response","124","330438","0.0-124.0","zj41psak","","<span style=""color:Black; font-size:50px;"">Agent B","null","","","","",""
"null","","","video-keyboard-response","125","333518","0.0-125.0","zj41psak","","","null","","Agent B","veridical","STIM_SET_1_REAL/498111.bmp_pp88_L2_V1.0_veridical_freeview_isoFalse_fps144.mp4",""
"","","","call-function","126","333519","0.0-126.0","zj41psak","","","","","","","",""
"1499.5100000000093","{""judgement"":1}","[0]","survey-likert","127","335021","0.0-127.0","zj41psak","","","","","","","","1"
"1355.2150000000256","{""confidence"":3}","[0]","survey-likert","128","336377","0.0-128.0","zj41psak","","","","","","","",""
"","","","call-function","129","336378","0.0-129.0","zj41psak","","","","","","","",""
"null","","","html-keyboard-response","130","337882","0.0-130.0","zj41psak","","<span style=""color:Black; font-size:50px;"">Agent A","null","","","","",""
"null","","","video-keyboard-response","131","340961","0.0-131.0","zj41psak","","","null","","Agent A","veridical","STIM_SET_1_REAL/1159675.bmp_pp77_L3_V1.0_veridical_freeview_isoFalse_fps144.mp4",""
"null","","","html-keyboard-response","132","342466","0.0-132.0","zj41psak","","<span style=""color:Black; font-size:50px;"">Agent B","null","","","","",""
"null","","","video-keyboard-response","133","345557","0.0-133.0","zj41psak","","","null","","Agent B","scrambled","STIM_SET_3/1159508.bmp_pp151_L1_V2_veridical_freeview_isoFalsemismatch_1159675.bmp_L3_fps90.mp4",""
"","","","call-function","134","345558","0.0-134.0","zj41psak","","","","","","","",""
"10591.270000000019","{""judgement"":1}","[0]","survey-likert","135","356150","0.0-135.0","zj41psak","","","","","","","","0"
"1423.5899999999674","{""confidence"":1}","[0]","survey-likert","136","357575","0.0-136.0","zj41psak","","","","","","","",""
"","","","call-function","137","357576","0.0-137.0","zj41psak","","","","","","","",""
"null","","","html-keyboard-response","138","359079","0.0-138.0","zj41psak","","<span style=""color:Black; font-size:50px;"">Agent A","null","","","","",""
"null","","","video-keyboard-response","139","362208","0.0-139.0","zj41psak","","","null","","Agent A","scrambled","STIM_SET_3/498025.bmp_pp81_L1_V2_veridical_freeview_isoFalsemismatch_713681.bmp_L2_fps90.mp4",""
"null","","","html-keyboard-response","140","363710","0.0-140.0","zj41psak","","<span style=""color:Black; font-size:50px;"">Agent B","null","","","","",""
"null","","","video-keyboard-response","141","366806","0.0-141.0","zj41psak","","","null","","Agent B","veridical","STIM_SET_1_REAL/713681.bmp_pp86_L2_V1.0_veridical_freeview_isoFalse_fps144.mp4",""
"","","","call-function","142","366806","0.0-142.0","zj41psak","","","","","","","",""
"1739.8549999999814","{""judgement"":1}","[0]","survey-likert","143","368548","0.0-143.0","zj41psak","","","","","","","","1"
"2203.5650000000023","{""confidence"":2}","[0]","survey-likert","144","370753","0.0-144.0","zj41psak","","","","","","","",""
"","","","call-function","145","370753","0.0-145.0","zj41psak","","","","","","","",""
"null","","","html-keyboard-response","146","372255","0.0-146.0","zj41psak","","<span style=""color:Black; font-size:50px;"">Agent A","null","","","","",""
"null","","","video-keyboard-response","147","375348","0.0-147.0","zj41psak","","","null","","Agent A","scrambled","STIM_SET_3/1159329.bmp_pp61_L2_V2_veridical_freeview_isoFalsemismatch_1592817.bmp_L3_fps90.mp4",""
"null","","","html-keyboard-response","148","376852","0.0-148.0","zj41psak","","<span style=""color:Black; font-size:50px;"">Agent B","null","","","","",""
"null","","","video-keyboard-response","149","379938","0.0-149.0","zj41psak","","","null","","Agent B","veridical","STIM_SET_1_REAL/1592817.bmp_pp55_L3_V1.0_veridical_freeview_isoFalse_fps144.mp4",""
"","","","call-function","150","379939","0.0-150.0","zj41psak","","","","","","","",""
"2259.7799999999697","{""judgement"":1}","[0]","survey-likert","151","382200","0.0-151.0","zj41psak","","","","","","","","1"
"1304.795000000042","{""confidence"":1}","[0]","survey-likert","152","383506","0.0-152.0","zj41psak","","","","","","","",""
"","","","call-function","153","383506","0.0-153.0","zj41psak","","","","","","","",""
"null","","","html-keyboard-response","154","385007","0.0-154.0","zj41psak","","<span style=""color:Black; font-size:50px;"">Agent A","null","","","","",""
"null","","","video-keyboard-response","155","388118","0.0-155.0","zj41psak","","","null","","Agent A","scrambled","STIM_SET_3/1159956.bmp_pp59_L3_V2_veridical_freeview_isoFalsemismatch_1159829.bmp_L3_fps90.mp4",""
"null","","","html-keyboard-response","156","389623","0.0-156.0","zj41psak","","<span style=""color:Black; font-size:50px;"">Agent B","null","","","","",""
"null","","","video-keyboard-response","157","392689","0.0-157.0","zj41psak","","","null","","Agent B","veridical","STIM_SET_1_REAL/1159829.bmp_pp91_L3_V1.0_veridical_freeview_isoFalse_fps144.mp4",""
"","","","call-function","158","392690","0.0-158.0","zj41psak","","","","","","","",""
"2163.6350000000093","{""judgement"":1}","[0]","survey-likert","159","394854","0.0-159.0","zj41psak","","","","","","","","1"
"1820.820000000007","{""confidence"":0}","[0]","survey-likert","160","396677","0.0-160.0","zj41psak","","","","","","","",""
"","","","call-function","161","396677","0.0-161.0","zj41psak","","","","","","","",""
"null","","","html-keyboard-response","162","398181","0.0-162.0","zj41psak","","<span style=""color:Black; font-size:50px;"">Agent A","null","","","","",""
"null","","","video-keyboard-response","163","401258","0.0-163.0","zj41psak","","","null","","Agent A","veridical","STIM_SET_1_REAL/713749.bmp_pp88_L2_V1.0_veridical_freeview_isoFalse_fps144.mp4",""
"null","","","html-keyboard-response","164","402764","0.0-164.0","zj41psak","","<span style=""color:Black; font-size:50px;"">Agent B","null","","","","",""
"null","","","video-keyboard-response","165","405845","0.0-165.0","zj41psak","","","null","","Agent B","scrambled","STIM_SET_3/713858.bmp_pp57_L1_V2_veridical_freeview_isoFalsemismatch_713749.bmp_L2_fps90.mp4",""
"","","","call-function","166","405845","0.0-166.0","zj41psak","","","","","","","",""
"1790.1149999999907","{""judgement"":0}","[0]","survey-likert","167","407636","0.0-167.0","zj41psak","","","","","","","","0"
"2808.75","{""confidence"":1}","[0]","survey-likert","168","410446","0.0-168.0","zj41psak","","","","","","","",""
"5877","","","instructions","169","416324","0.0-169.0","zj41psak","[{""page_index"":0,""viewing_time"":1883.8099999999977},{""page_index"":1,""viewing_time"":3024.9349999999977},{""page_index"":2,""viewing_time"":968.0999999999767}]","","","","","","",""
"2269.5050000000047","","","instructions","170","418594","0.0-170.0","zj41psak","[{""page_index"":0,""viewing_time"":664.2200000000303},{""page_index"":1,""viewing_time"":1136.0849999999627},{""page_index"":2,""viewing_time"":469.08500000002095}]","","","","","","",""
"","","","call-function","171","418595","0.0-171.0","zj41psak","","","","","","","",""
"null","","","html-keyboard-response","172","420096","0.0-172.0","zj41psak","","<span style=""color:Black; font-size:50px;"">Agent A","null","","","","",""
"null","","","video-keyboard-response","173","423188","0.0-173.0","zj41psak","","","null","","Agent A","scrambled","STIM_SET_3/285959.bmp_pp93_L1_V2_veridical_freeview_isoFalsemismatch_498253.bmp_L2_fps90.mp4",""
"null","","","html-keyboard-response","174","424692","0.0-174.0","zj41psak","","<span style=""color:Black; font-size:50px;"">Agent B","null","","","","",""
"null","","","video-keyboard-response","175","427797","0.0-175.0","zj41psak","","","null","","Agent B","veridical","STIM_SET_1_REAL/498253.bmp_pp67_L2_V1.0_veridical_freeview_isoFalse_fps144.mp4",""
"","","","call-function","176","427797","0.0-176.0","zj41psak","","","","","","","",""
"3957.509999999951","{""judgement"":0}","[0]","survey-likert","177","431756","0.0-177.0","zj41psak","","","","","","","","1"
"2149.359999999986","{""confidence"":1}","[0]","survey-likert","178","433907","0.0-178.0","zj41psak","","","","","","","",""
"","","","call-function","179","433907","0.0-179.0","zj41psak","","","","","","","",""
"null","","","html-keyboard-response","180","435409","0.0-180.0","zj41psak","","<span style=""color:Black; font-size:50px;"">Agent A","null","","","","",""
"null","","","video-keyboard-response","181","438510","0.0-181.0","zj41psak","","","null","","Agent A","veridical","STIM_SET_1_REAL/1592581.bmp_pp100_L3_V1.0_veridical_freeview_isoFalse_fps144.mp4",""
"null","","","html-keyboard-response","182","440017","0.0-182.0","zj41psak","","<span style=""color:Black; font-size:50px;"">Agent B","null","","","","",""
"null","","","video-keyboard-response","183","443129","0.0-183.0","zj41psak","","","null","","Agent B","scrambled","STIM_SET_3/1160189.bmp_pp64_L1_V2_veridical_freeview_isoFalsemismatch_1592581.bmp_L3_fps90.mp4",""
"","","","call-function","184","443129","0.0-184.0","zj41psak","","","","","","","",""
"1587.390000000014","{""judgement"":0}","[0]","survey-likert","185","444717","0.0-185.0","zj41psak","","","","","","","","0"
"1411.3950000000186","{""confidence"":2}","[0]","survey-likert","186","446130","0.0-186.0","zj41psak","","","","","","","",""
"","","","call-function","187","446130","0.0-187.0","zj41psak","","","","","","","",""
"null","","","html-keyboard-response","188","447637","0.0-188.0","zj41psak","","<span style=""color:Black; font-size:50px;"">Agent A","null","","","","",""
"null","","","video-keyboard-response","189","450741","0.0-189.0","zj41psak","","","null","","Agent A","veridical","STIM_SET_1_REAL/1159855.bmp_pp99_L2_V1.0_veridical_freeview_isoFalse_fps144.mp4",""
"null","","","html-keyboard-response","190","452248","0.0-190.0","zj41psak","","<span style=""color:Black; font-size:50px;"">Agent B","null","","","","",""
"null","","","video-keyboard-response","191","455339","0.0-191.0","zj41psak","","","null","","Agent B","scrambled","STIM_SET_3/285932.bmp_pp64_L1_V2_veridical_freeview_isoFalsemismatch_1159855.bmp_L2_fps90.mp4",""
"","","","call-function","192","455340","0.0-192.0","zj41psak","","","","","","","",""
"2113.3499999999767","{""judgement"":0}","[0]","survey-likert","193","457455","0.0-193.0","zj41psak","","","","","","","","0"
"1780.704999999958","{""confidence"":1}","[0]","survey-likert","194","459238","0.0-194.0","zj41psak","","","","","","","",""
"","","","call-function","195","459239","0.0-195.0","zj41psak","","","","","","","",""
"null","","","html-keyboard-response","196","460740","0.0-196.0","zj41psak","","<span style=""color:Black; font-size:50px;"">Agent A","null","","","","",""
"null","","","video-keyboard-response","197","463824","0.0-197.0","zj41psak","","","null","","Agent A","scrambled","STIM_SET_3/1592025.bmp_pp68_L1_V2_veridical_freeview_isoFalsemismatch_1592351.bmp_L1_fps90.mp4",""
"null","","","html-keyboard-response","198","465326","0.0-198.0","zj41psak","","<span style=""color:Black; font-size:50px;"">Agent B","null","","","","",""
"null","","","video-keyboard-response","199","468391","0.0-199.0","zj41psak","","","null","","Agent B","veridical","STIM_SET_1_REAL/1592351.bmp_pp51_L1_V1.0_veridical_freeview_isoFalse_fps144.mp4",""
"","","","call-function","200","468392","0.0-200.0","zj41psak","","","","","","","",""
"2232.8099999999977","{""judgement"":0}","[0]","survey-likert","201","470626","0.0-201.0","zj41psak","","","","","","","","1"
"2160.210000000021","{""confidence"":1}","[0]","survey-likert","202","472787","0.0-202.0","zj41psak","","","","","","","",""
"","","","call-function","203","472788","0.0-203.0","zj41psak","","","","","","","",""
"null","","","html-keyboard-response","204","474292","0.0-204.0","zj41psak","","<span style=""color:Black; font-size:50px;"">Agent A","null","","","","",""
"null","","","video-keyboard-response","205","477357","0.0-205.0","zj41psak","","","null","","Agent A","scrambled","STIM_SET_3/1592044.bmp_pp94_L2_V2_veridical_freeview_isoFalsemismatch_1159446.bmp_L3_fps90.mp4",""
"null","","","html-keyboard-response","206","478862","0.0-206.0","zj41psak","","<span style=""color:Black; font-size:50px;"">Agent B","null","","","","",""
"null","","","video-keyboard-response","207","481921","0.0-207.0","zj41psak","","","null","","Agent B","veridical","STIM_SET_1_REAL/1159446.bmp_pp60_L3_V1.0_veridical_freeview_isoFalse_fps144.mp4",""
"","","","call-function","208","481922","0.0-208.0","zj41psak","","","","","","","",""
"1388.9249999999884","{""judgement"":1}","[0]","survey-likert","209","483311","0.0-209.0","zj41psak","","","","","","","","1"
"1288.320000000007","{""confidence"":2}","[0]","survey-likert","210","484601","0.0-210.0","zj41psak","","","","","","","",""
"","","","call-function","211","484602","0.0-211.0","zj41psak","","","","","","","",""
"null","","","html-keyboard-response","212","486108","0.0-212.0","zj41psak","","<span style=""color:Black; font-size:50px;"">Agent A","null","","","","",""
"null","","","video-keyboard-response","213","489214","0.0-213.0","zj41psak","","","null","","Agent A","veridical","STIM_SET_1_REAL/713211.bmp_pp100_L3_V1.0_veridical_freeview_isoFalse_fps144.mp4",""
"null","","","html-keyboard-response","214","490718","0.0-214.0","zj41psak","","<span style=""color:Black; font-size:50px;"">Agent B","null","","","","",""
"null","","","video-keyboard-response","215","493816","0.0-215.0","zj41psak","","","null","","Agent B","scrambled","STIM_SET_3/1592921.bmp_pp69_L3_V2_veridical_freeview_isoFalsemismatch_713211.bmp_L3_fps90.mp4",""
"","","","call-function","216","493816","0.0-216.0","zj41psak","","","","","","","",""
"2436.1600000000326","{""judgement"":0}","[0]","survey-likert","217","496253","0.0-217.0","zj41psak","","","","","","","","0"
"1486.390000000014","{""confidence"":1}","[0]","survey-likert","218","497741","0.0-218.0","zj41psak","","","","","","","",""
"","","","call-function","219","497742","0.0-219.0","zj41psak","","","","","","","",""
"null","","","html-keyboard-response","220","499243","0.0-220.0","zj41psak","","<span style=""color:Black; font-size:50px;"">Agent A","null","","","","",""
"null","","","video-keyboard-response","221","502359","0.0-221.0","zj41psak","","","null","","Agent A","scrambled","STIM_SET_3/713770.bmp_pp89_L1_V2_veridical_freeview_isoFalsemismatch_61537.bmp_L3_fps90.mp4",""
"null","","","html-keyboard-response","222","503863","0.0-222.0","zj41psak","","<span style=""color:Black; font-size:50px;"">Agent B","null","","","","",""
"null","","","video-keyboard-response","223","506960","0.0-223.0","zj41psak","","","null","","Agent B","veridical","STIM_SET_1_REAL/61537.bmp_pp73_L3_V1.0_veridical_freeview_isoFalse_fps144.mp4",""
"","","","call-function","224","506960","0.0-224.0","zj41psak","","","","","","","",""
"2900.115000000049","{""judgement"":1}","[0]","survey-likert","225","509861","0.0-225.0","zj41psak","","","","","","","","1"
"2192.8850000000093","{""confidence"":1}","[0]","survey-likert","226","512056","0.0-226.0","zj41psak","","","","","","","",""
"","","","call-function","227","512057","0.0-227.0","zj41psak","","","","","","","",""
"null","","","html-keyboard-response","228","513559","0.0-228.0","zj41psak","","<span style=""color:Black; font-size:50px;"">Agent A","null","","","","",""
"null","","","video-keyboard-response","229","516663","0.0-229.0","zj41psak","","","null","","Agent A","veridical","STIM_SET_1_REAL/713593.bmp_pp64_L1_V1.0_veridical_freeview_isoFalse_fps144.mp4",""
"null","","","html-keyboard-response","230","518167","0.0-230.0","zj41psak","","<span style=""color:Black; font-size:50px;"">Agent B","null","","","","",""
"null","","","video-keyboard-response","231","521281","0.0-231.0","zj41psak","","","null","","Agent B","scrambled","STIM_SET_3/1592747.bmp_pp53_L2_V2_veridical_freeview_isoFalsemismatch_713593.bmp_L1_fps90.mp4",""
"","","","call-function","232","521281","0.0-232.0","zj41psak","","","","","","","",""
"1335.3349999999627","{""judgement"":0}","[0]","survey-likert","233","522617","0.0-233.0","zj41psak","","","","","","","","0"
"1533.2750000000233","{""confidence"":2}","[0]","survey-likert","234","524152","0.0-234.0","zj41psak","","","","","","","",""
"","","","call-function","235","524153","0.0-235.0","zj41psak","","","","","","","",""
"null","","","html-keyboard-response","236","525657","0.0-236.0","zj41psak","","<span style=""color:Black; font-size:50px;"">Agent A","null","","","","",""
"null","","","video-keyboard-response","237","528741","0.0-237.0","zj41psak","","","null","","Agent A","scrambled","STIM_SET_3/1592201.bmp_pp97_L3_V2_veridical_freeview_isoFalsemismatch_713089.bmp_L3_fps90.mp4",""
"null","","","html-keyboard-response","238","530243","0.0-238.0","zj41psak","","<span style=""color:Black; font-size:50px;"">Agent B","null","","","","",""
"null","","","video-keyboard-response","239","533308","0.0-239.0","zj41psak","","","null","","Agent B","veridical","STIM_SET_1_REAL/713089.bmp_pp60_L3_V1.0_veridical_freeview_isoFalse_fps144.mp4",""
"","","","call-function","240","533309","0.0-240.0","zj41psak","","","","","","","",""
"1326.469999999972","{""judgement"":1}","[0]","survey-likert","241","534636","0.0-241.0","zj41psak","","","","","","","","1"
"1272.484999999986","{""confidence"":3}","[0]","survey-likert","242","535910","0.0-242.0","zj41psak","","","","","","","",""
"","","","call-function","243","535910","0.0-243.0","zj41psak","","","","","","","",""
"null","","","html-keyboard-response","244","537413","0.0-244.0","zj41psak","","<span style=""color:Black; font-size:50px;"">Agent A","null","","","","",""
"null","","","video-keyboard-response","245","540493","0.0-245.0","zj41psak","","","null","","Agent A","scrambled","STIM_SET_3/107909.bmp_pp95_L2_V2_veridical_freeview_isoFalsemismatch_1592372.bmp_L1_fps90.mp4",""
"null","","","html-keyboard-response","246","541996","0.0-246.0","zj41psak","","<span style=""color:Black; font-size:50px;"">Agent B","null","","","","",""
"null","","","video-keyboard-response","247","545076","0.0-247.0","zj41psak","","","null","","Agent B","veridical","STIM_SET_1_REAL/1592372.bmp_pp76_L1_V1.0_veridical_freeview_isoFalse_fps144.mp4",""
"","","","call-function","248","545077","0.0-248.0","zj41psak","","","","","","","",""
"1756.7549999998882","{""judgement"":0}","[0]","survey-likert","249","546835","0.0-249.0","zj41psak","","","","","","","","1"
"3147.465000000084","{""confidence"":2}","[0]","survey-likert","250","549984","0.0-250.0","zj41psak","","","","","","","",""
"15338.675000000047","","","instructions","251","565323","0.0-251.0","zj41psak","[{""page_index"":0,""viewing_time"":10367.079999999958},{""page_index"":1,""viewing_time"":2275.0500000000466},{""page_index"":2,""viewing_time"":2696.3950000000186}]","","","","","","",""
"1900.405000000028","","","instructions","252","567224","0.0-252.0","zj41psak","[{""page_index"":0,""viewing_time"":854.3049999999348},{""page_index"":1,""viewing_time"":511.04000000003725},{""page_index"":2,""viewing_time"":534.9599999999627}]","","","","","","",""
"","","","call-function","253","567225","0.0-253.0","zj41psak","","","","","","","",""
"null","","","html-keyboard-response","254","568728","0.0-254.0","zj41psak","","<span style=""color:Black; font-size:50px;"">Agent A","null","","","","",""
"null","","","video-keyboard-response","255","571856","0.0-255.0","zj41psak","","","null","","Agent A","scrambled","STIM_SET_3/1592289.bmp_pp92_L3_V2_veridical_freeview_isoFalsemismatch_713666.bmp_L3_fps90.mp4",""
"null","","","html-keyboard-response","256","573359","0.0-256.0","zj41psak","","<span style=""color:Black; font-size:50px;"">Agent B","null","","","","",""
"null","","","video-keyboard-response","257","576469","0.0-257.0","zj41psak","","","null","","Agent B","veridical","STIM_SET_1_REAL/713666.bmp_pp97_L3_V1.0_veridical_freeview_isoFalse_fps144.mp4",""
"","","","call-function","258","576471","0.0-258.0","zj41psak","","","","","","","",""
"1588.9000000000233","{""judgement"":1}","[0]","survey-likert","259","578061","0.0-259.0","zj41psak","","","","","","","","1"
"1643.3950000000186","{""confidence"":2}","[0]","survey-likert","260","579706","0.0-260.0","zj41psak","","","","","","","",""
"","","","call-function","261","579707","0.0-261.0","zj41psak","","","","","","","",""
"null","","","html-keyboard-response","262","581210","0.0-262.0","zj41psak","","<span style=""color:Black; font-size:50px;"">Agent A","null","","","","",""
"null","","","video-keyboard-response","263","584274","0.0-263.0","zj41psak","","","null","","Agent A","scrambled","STIM_SET_3/498398.bmp_pp81_L1_V2_veridical_freeview_isoFalsemismatch_713620.bmp_L3_fps90.mp4",""
"null","","","html-keyboard-response","264","585779","0.0-264.0","zj41psak","","<span style=""color:Black; font-size:50px;"">Agent B","null","","","","",""
"null","","","video-keyboard-response","265","588855","0.0-265.0","zj41psak","","","null","","Agent B","veridical","STIM_SET_1_REAL/713620.bmp_pp65_L3_V1.0_veridical_freeview_isoFalse_fps144.mp4",""
"","","","call-function","266","588856","0.0-266.0","zj41psak","","","","","","","",""
"1672.9749999999767","{""judgement"":1}","[0]","survey-likert","267","590531","0.0-267.0","zj41psak","","","","","","","","1"
"2003.0899999999674","{""confidence"":1}","[0]","survey-likert","268","592536","0.0-268.0","zj41psak","","","","","","","",""
"","","","call-function","269","592536","0.0-269.0","zj41psak","","","","","","","",""
"null","","","html-keyboard-response","270","594039","0.0-270.0","zj41psak","","<span style=""color:Black; font-size:50px;"">Agent A","null","","","","",""
"null","","","video-keyboard-response","271","597118","0.0-271.0","zj41psak","","","null","","Agent A","scrambled","STIM_SET_3/498372.bmp_pp95_L2_V2_veridical_freeview_isoFalsemismatch_1160127.bmp_L2_fps90.mp4",""
"null","","","html-keyboard-response","272","598622","0.0-272.0","zj41psak","","<span style=""color:Black; font-size:50px;"">Agent B","null","","","","",""
"null","","","video-keyboard-response","273","601698","0.0-273.0","zj41psak","","","null","","Agent B","veridical","STIM_SET_1_REAL/1160127.bmp_pp90_L2_V1.0_veridical_freeview_isoFalse_fps144.mp4",""
"","","","call-function","274","601699","0.0-274.0","zj41psak","","","","","","","",""
"1399.6450000000186","{""judgement"":1}","[0]","survey-likert","275","603099","0.0-275.0","zj41psak","","","","","","","","1"
"2182.2600000000093","{""confidence"":2}","[0]","survey-likert","276","605283","0.0-276.0","zj41psak","","","","","","","",""
"","","","call-function","277","605284","0.0-277.0","zj41psak","","","","","","","",""
"null","","","html-keyboard-response","278","606787","0.0-278.0","zj41psak","","<span style=""color:Black; font-size:50px;"">Agent A","null","","","","",""
"null","","","video-keyboard-response","279","609918","0.0-279.0","zj41psak","","","null","","Agent A","scrambled","STIM_SET_3/1591975.bmp_pp88_L2_V2_veridical_freeview_isoFalsemismatch_713017.bmp_L2_fps90.mp4",""
"null","","","html-keyboard-response","280","611420","0.0-280.0","zj41psak","","<span style=""color:Black; font-size:50px;"">Agent B","null","","","","",""
"null","","","video-keyboard-response","281","614518","0.0-281.0","zj41psak","","","null","","Agent B","veridical","STIM_SET_1_REAL/713017.bmp_pp152_L2_V1.0_veridical_freeview_isoFalse_fps144.mp4",""
"","","","call-function","282","614518","0.0-282.0","zj41psak","","","","","","","",""
"2500.8800000000047","{""judgement"":1}","[0]","survey-likert","283","617020","0.0-283.0","zj41psak","","","","","","","","1"
"1336.295000000042","{""confidence"":1}","[0]","survey-likert","284","618357","0.0-284.0","zj41psak","","","","","","","",""
"","","","call-function","285","618358","0.0-285.0","zj41psak","","","","","","","",""
"null","","","html-keyboard-response","286","619863","0.0-286.0","zj41psak","","<span style=""color:Black; font-size:50px;"">Agent A","null","","","","",""
"null","","","video-keyboard-response","287","622956","0.0-287.0","zj41psak","","","null","","Agent A","scrambled","STIM_SET_3/1592314.bmp_pp100_L3_V2_veridical_freeview_isoFalsemismatch_713707.bmp_L1_fps90.mp4",""
"null","","","html-keyboard-response","288","624460","0.0-288.0","zj41psak","","<span style=""color:Black; font-size:50px;"">Agent B","null","","","","",""
"null","","","video-keyboard-response","289","627572","0.0-289.0","zj41psak","","","null","","Agent B","veridical","STIM_SET_1_REAL/713707.bmp_pp154_L1_V1.0_veridical_freeview_isoFalse_fps144.mp4",""
"","","","call-function","290","627572","0.0-290.0","zj41psak","","","","","","","",""
"3262.484999999986","{""judgement"":0}","[0]","survey-likert","291","630836","0.0-291.0","zj41psak","","","","","","","","1"
"2495.819999999949","{""confidence"":2}","[0]","survey-likert","292","633333","0.0-292.0","zj41psak","","","","","","","",""
"","","","call-function","293","633333","0.0-293.0","zj41psak","","","","","","","",""
"null","","","html-keyboard-response","294","634841","0.0-294.0","zj41psak","","<span style=""color:Black; font-size:50px;"">Agent A","null","","","","",""
"null","","","video-keyboard-response","295","637946","0.0-295.0","zj41psak","","","null","","Agent A","scrambled","STIM_SET_3/1592305.bmp_pp65_L3_V2_veridical_freeview_isoFalsemismatch_713779.bmp_L2_fps90.mp4",""
"null","","","html-keyboard-response","296","639450","0.0-296.0","zj41psak","","<span style=""color:Black; font-size:50px;"">Agent B","null","","","","",""
"null","","","video-keyboard-response","297","642540","0.0-297.0","zj41psak","","","null","","Agent B","veridical","STIM_SET_1_REAL/713779.bmp_pp152_L2_V1.0_veridical_freeview_isoFalse_fps144.mp4",""
"","","","call-function","298","642541","0.0-298.0","zj41psak","","","","","","","",""
"1717.3649999999907","{""judgement"":0}","[0]","survey-likert","299","644259","0.0-299.0","zj41psak","","","","","","","","1"
"1205.1899999999441","{""confidence"":3}","[0]","survey-likert","300","645466","0.0-300.0","zj41psak","","","","","","","",""
"","","","call-function","301","645467","0.0-301.0","zj41psak","","","","","","","",""
"null","","","html-keyboard-response","302","646970","0.0-302.0","zj41psak","","<span style=""color:Black; font-size:50px;"">Agent A","null","","","","",""
"null","","","video-keyboard-response","303","650052","0.0-303.0","zj41psak","","","null","","Agent A","scrambled","STIM_SET_3/1160204.bmp_pp54_L2_V2_veridical_freeview_isoFalsemismatch_286001.bmp_L2_fps90.mp4",""
"null","","","html-keyboard-response","304","651555","0.0-304.0","zj41psak","","<span style=""color:Black; font-size:50px;"">Agent B","null","","","","",""
"null","","","video-keyboard-response","305","654618","0.0-305.0","zj41psak","","","null","","Agent B","veridical","STIM_SET_1_REAL/286001.bmp_pp54_L2_V1.0_veridical_freeview_isoFalse_fps144.mp4",""
"","","","call-function","306","654618","0.0-306.0","zj41psak","","","","","","","",""
"1467.5049999998882","{""judgement"":0}","[0]","survey-likert","307","656087","0.0-307.0","zj41psak","","","","","","","","1"
"1221.0200000000186","{""confidence"":2}","[0]","survey-likert","308","657309","0.0-308.0","zj41psak","","","","","","","",""
"","","","call-function","309","657310","0.0-309.0","zj41psak","","","","","","","",""
"null","","","html-keyboard-response","310","658814","0.0-310.0","zj41psak","","<span style=""color:Black; font-size:50px;"">Agent A","null","","","","",""
"null","","","video-keyboard-response","311","661882","0.0-311.0","zj41psak","","","null","","Agent A","veridical","STIM_SET_1_REAL/285933.bmp_pp81_L1_V1.0_veridical_freeview_isoFalse_fps144.mp4",""
"null","","","html-keyboard-response","312","663383","0.0-312.0","zj41psak","","<span style=""color:Black; font-size:50px;"">Agent B","null","","","","",""
"null","","","video-keyboard-response","313","666538","0.0-313.0","zj41psak","","","null","","Agent B","scrambled","STIM_SET_3/1159973.bmp_pp98_L1_V2_veridical_freeview_isoFalsemismatch_285933.bmp_L1_fps90.mp4",""
"","","","call-function","314","666539","0.0-314.0","zj41psak","","","","","","","",""
"1707.1649999999208","{""judgement"":0}","[0]","survey-likert","315","668247","0.0-315.0","zj41psak","","","","","","","","0"
"1060.204999999958","{""confidence"":2}","[0]","survey-likert","316","669308","0.0-316.0","zj41psak","","","","","","","",""
"","","","call-function","317","669309","0.0-317.0","zj41psak","","","","","","","",""
"null","","","html-keyboard-response","318","670813","0.0-318.0","zj41psak","","<span style=""color:Black; font-size:50px;"">Agent A","null","","","","",""
"null","","","video-keyboard-response","319","673909","0.0-319.0","zj41psak","","","null","","Agent A","veridical","STIM_SET_1_REAL/713513.bmp_pp62_L2_V1.0_veridical_freeview_isoFalse_fps144.mp4",""
"null","","","html-keyboard-response","320","675411","0.0-320.0","zj41psak","","<span style=""color:Black; font-size:50px;"">Agent B","null","","","","",""
"null","","","video-keyboard-response","321","678517","0.0-321.0","zj41psak","","","null","","Agent B","scrambled","STIM_SET_3/1592047.bmp_pp51_L1_V2_veridical_freeview_isoFalsemismatch_713513.bmp_L2_fps90.mp4",""
"","","","call-function","322","678518","0.0-322.0","zj41psak","","","","","","","",""
"2977.125","{""judgement"":0}","[0]","survey-likert","323","681496","0.0-323.0","zj41psak","","","","","","","","0"
"1241.1500000000233","{""confidence"":2}","[0]","survey-likert","324","682738","0.0-324.0","zj41psak","","","","","","","",""
"","","","call-function","325","682739","0.0-325.0","zj41psak","","","","","","","",""
"null","","","html-keyboard-response","326","684241","0.0-326.0","zj41psak","","<span style=""color:Black; font-size:50px;"">Agent A","null","","","","",""
"null","","","video-keyboard-response","327","687348","0.0-327.0","zj41psak","","","null","","Agent A","scrambled","STIM_SET_3/1159325.bmp_pp67_L2_V2_veridical_freeview_isoFalsemismatch_1593035.bmp_L2_fps90.mp4",""
"null","","","html-keyboard-response","328","688854","0.0-328.0","zj41psak","","<span style=""color:Black; font-size:50px;"">Agent B","null","","","","",""
"null","","","video-keyboard-response","329","691943","0.0-329.0","zj41psak","","","null","","Agent B","veridical","STIM_SET_1_REAL/1593035.bmp_pp94_L2_V1.0_veridical_freeview_isoFalse_fps144.mp4",""
"","","","call-function","330","691944","0.0-330.0","zj41psak","","","","","","","",""
"3014.625","{""judgement"":0}","[0]","survey-likert","331","694959","0.0-331.0","zj41psak","","","","","","","","1"
"1715.5","{""confidence"":2}","[0]","survey-likert","332","696676","0.0-332.0","zj41psak","","","","","","","",""
"2730.7900000000373","","","instructions","333","699408","0.0-333.0","zj41psak","[{""page_index"":0,""viewing_time"":1278.219999999972},{""page_index"":1,""viewing_time"":1019.5},{""page_index"":2,""viewing_time"":432.9200000000419}]","","","","","","",""
"1510.1950000000652","","","instructions","334","700919","0.0-334.0","zj41psak","[{""page_index"":0,""viewing_time"":415.9300000000512},{""page_index"":1,""viewing_time"":534.1149999999907},{""page_index"":2,""viewing_time"":560.0499999999302}]","","","","","","",""
"","","","call-function","335","700919","0.0-335.0","zj41psak","","","","","","","",""
"null","","","html-keyboard-response","336","702422","0.0-336.0","zj41psak","","<span style=""color:Black; font-size:50px;"">Agent A","null","","","","",""
"null","","","video-keyboard-response","337","705532","0.0-337.0","zj41psak","","","null","","Agent A","veridical","STIM_SET_1_REAL/1160168.bmp_pp53_L2_V1.0_veridical_freeview_isoFalse_fps144.mp4",""
"null","","","html-keyboard-response","338","707040","0.0-338.0","zj41psak","","<span style=""color:Black; font-size:50px;"">Agent B","null","","","","",""
"null","","","video-keyboard-response","339","710120","0.0-339.0","zj41psak","","","null","","Agent B","scrambled","STIM_SET_3/1592857.bmp_pp52_L1_V2_veridical_freeview_isoFalsemismatch_1160168.bmp_L2_fps90.mp4",""
"","","","call-function","340","710120","0.0-340.0","zj41psak","","","","","","","",""
"1919.109999999986","{""judgement"":0}","[0]","survey-likert","341","712041","0.0-341.0","zj41psak","","","","","","","","0"
"1376.6500000000233","{""confidence"":2}","[0]","survey-likert","342","713420","0.0-342.0","zj41psak","","","","","","","",""
"","","","call-function","343","713421","0.0-343.0","zj41psak","","","","","","","",""
"null","","","html-keyboard-response","344","714928","0.0-344.0","zj41psak","","<span style=""color:Black; font-size:50px;"">Agent A","null","","","","",""
"null","","","video-keyboard-response","345","717997","0.0-345.0","zj41psak","","","null","","Agent A","veridical","STIM_SET_1_REAL/1592727.bmp_pp59_L3_V1.0_veridical_freeview_isoFalse_fps144.mp4",""
"null","","","html-keyboard-response","346","719504","0.0-346.0","zj41psak","","<span style=""color:Black; font-size:50px;"">Agent B","null","","","","",""
"null","","","video-keyboard-response","347","722584","0.0-347.0","zj41psak","","","null","","Agent B","scrambled","STIM_SET_3/1592038.bmp_pp79_L2_V2_veridical_freeview_isoFalsemismatch_1592727.bmp_L3_fps90.mp4",""
"","","","call-function","348","722585","0.0-348.0","zj41psak","","","","","","","",""
"2779.0100000000093","{""judgement"":0}","[0]","survey-likert","349","725365","0.0-349.0","zj41psak","","","","","","","","0"
"1878.9500000000698","{""confidence"":2}","[0]","survey-likert","350","727245","0.0-350.0","zj41psak","","","","","","","",""
"","","","call-function","351","727246","0.0-351.0","zj41psak","","","","","","","",""
"null","","","html-keyboard-response","352","728747","0.0-352.0","zj41psak","","<span style=""color:Black; font-size:50px;"">Agent A","null","","","","",""
"null","","","video-keyboard-response","353","731824","0.0-353.0","zj41psak","","","null","","Agent A","veridical","STIM_SET_1_REAL/1592804.bmp_pp91_L3_V1.0_veridical_freeview_isoFalse_fps144.mp4",""
"null","","","html-keyboard-response","354","733331","0.0-354.0","zj41psak","","<span style=""color:Black; font-size:50px;"">Agent B","null","","","","",""
"null","","","video-keyboard-response","355","736420","0.0-355.0","zj41psak","","","null","","Agent B","scrambled","STIM_SET_3/1591920.bmp_pp97_L3_V2_veridical_freeview_isoFalsemismatch_1592804.bmp_L3_fps90.mp4",""
"","","","call-function","356","736421","0.0-356.0","zj41psak","","","","","","","",""
"2367.569999999949","{""judgement"":1}","[0]","survey-likert","357","738789","0.0-357.0","zj41psak","","","","","","","","0"
"2511.314999999944","{""confidence"":0}","[0]","survey-likert","358","741302","0.0-358.0","zj41psak","","","","","","","",""
"","","","call-function","359","741303","0.0-359.0","zj41psak","","","","","","","",""
"null","","","html-keyboard-response","360","742807","0.0-360.0","zj41psak","","<span style=""color:Black; font-size:50px;"">Agent A","null","","","","",""
"null","","","video-keyboard-response","361","745926","0.0-361.0","zj41psak","","","null","","Agent A","scrambled","STIM_SET_3/1159874.bmp_pp96_L2_V2_veridical_freeview_isoFalsemismatch_1159515.bmp_L3_fps90.mp4",""
"null","","","html-keyboard-response","362","747431","0.0-362.0","zj41psak","","<span style=""color:Black; font-size:50px;"">Agent B","null","","","","",""
"null","","","video-keyboard-response","363","750531","0.0-363.0","zj41psak","","","null","","Agent B","veridical","STIM_SET_1_REAL/1159515.bmp_pp84_L3_V1.0_veridical_freeview_isoFalse_fps144.mp4",""
"","","","call-function","364","750531","0.0-364.0","zj41psak","","","","","","","",""
"1881.6300000000047","{""judgement"":0}","[0]","survey-likert","365","752414","0.0-365.0","zj41psak","","","","","","","","1"
"1179.0800000000745","{""confidence"":2}","[0]","survey-likert","366","753594","0.0-366.0","zj41psak","","","","","","","",""
"","","","call-function","367","753595","0.0-367.0","zj41psak","","","","","","","",""
"null","","","html-keyboard-response","368","755099","0.0-368.0","zj41psak","","<span style=""color:Black; font-size:50px;"">Agent A","null","","","","",""
"null","","","video-keyboard-response","369","758206","0.0-369.0","zj41psak","","","null","","Agent A","veridical","STIM_SET_1_REAL/1159440.bmp_pp98_L1_V1.0_veridical_freeview_isoFalse_fps144.mp4",""
"null","","","html-keyboard-response","370","759711","0.0-370.0","zj41psak","","<span style=""color:Black; font-size:50px;"">Agent B","null","","","","",""
"null","","","video-keyboard-response","371","762828","0.0-371.0","zj41psak","","","null","","Agent B","scrambled","STIM_SET_3/713829.bmp_pp60_L3_V2_veridical_freeview_isoFalsemismatch_1159440.bmp_L1_fps90.mp4",""
"","","","call-function","372","762829","0.0-372.0","zj41psak","","","","","","","",""
"1493.329999999958","{""judgement"":0}","[0]","survey-likert","373","764323","0.0-373.0","zj41psak","","","","","","","","0"
"1319.5499999999302","{""confidence"":2}","[0]","survey-likert","374","765644","0.0-374.0","zj41psak","","","","","","","",""
"","","","call-function","375","765645","0.0-375.0","zj41psak","","","","","","","",""
"null","","","html-keyboard-response","376","767148","0.0-376.0","zj41psak","","<span style=""color:Black; font-size:50px;"">Agent A","null","","","","",""
"null","","","video-keyboard-response","377","770258","0.0-377.0","zj41psak","","","null","","Agent A","scrambled","STIM_SET_3/1592951.bmp_pp80_L3_V2_veridical_freeview_isoFalsemismatch_712977.bmp_L1_fps90.mp4",""
"null","","","html-keyboard-response","378","771763","0.0-378.0","zj41psak","","<span style=""color:Black; font-size:50px;"">Agent B","null","","","","",""
"null","","","video-keyboard-response","379","774841","0.0-379.0","zj41psak","","","null","","Agent B","veridical","STIM_SET_1_REAL/712977.bmp_pp51_L1_V1.0_veridical_freeview_isoFalse_fps144.mp4",""
"","","","call-function","380","774842","0.0-380.0","zj41psak","","","","","","","",""
"1426.219999999972","{""judgement"":1}","[0]","survey-likert","381","776269","0.0-381.0","zj41psak","","","","","","","","1"
"2318.8249999999534","{""confidence"":3}","[0]","survey-likert","382","778589","0.0-382.0","zj41psak","","","","","","","",""
"","","","call-function","383","778590","0.0-383.0","zj41psak","","","","","","","",""
"null","","","html-keyboard-response","384","780094","0.0-384.0","zj41psak","","<span style=""color:Black; font-size:50px;"">Agent A","null","","","","",""
"null","","","video-keyboard-response","385","783169","0.0-385.0","zj41psak","","","null","","Agent A","veridical","STIM_SET_1_REAL/1159784.bmp_pp73_L3_V1.0_veridical_freeview_isoFalse_fps144.mp4",""
"null","","","html-keyboard-response","386","784671","0.0-386.0","zj41psak","","<span style=""color:Black; font-size:50px;"">Agent B","null","","","","",""
"null","","","video-keyboard-response","387","787741","0.0-387.0","zj41psak","","","null","","Agent B","scrambled","STIM_SET_3/61513.bmp_pp75_L1_V2_veridical_freeview_isoFalsemismatch_1159784.bmp_L3_fps90.mp4",""
"","","","call-function","388","787742","0.0-388.0","zj41psak","","","","","","","",""
"1704.4399999999441","{""judgement"":1}","[0]","survey-likert","389","789447","0.0-389.0","zj41psak","","","","","","","","0"
"1562.115000000107","{""confidence"":3}","[0]","survey-likert","390","791010","0.0-390.0","zj41psak","","","","","","","",""
"","","","call-function","391","791011","0.0-391.0","zj41psak","","","","","","","",""
"null","","","html-keyboard-response","392","792513","0.0-392.0","zj41psak","","<span style=""color:Black; font-size:50px;"">Agent A","null","","","","",""
"null","","","video-keyboard-response","393","795574","0.0-393.0","zj41psak","","","null","","Agent A","scrambled","STIM_SET_3/1160049.bmp_pp53_L2_V2_veridical_freeview_isoFalsemismatch_1591954.bmp_L2_fps90.mp4",""
"null","","","html-keyboard-response","394","797077","0.0-394.0","zj41psak","","<span style=""color:Black; font-size:50px;"">Agent B","null","","","","",""
"null","","","video-keyboard-response","395","800192","0.0-395.0","zj41psak","","","null","","Agent B","veridical","STIM_SET_1_REAL/1591954.bmp_pp62_L2_V1.0_veridical_freeview_isoFalse_fps144.mp4",""
"","","","call-function","396","800193","0.0-396.0","zj41psak","","","","","","","",""
"2035.0349999999162","{""judgement"":1}","[0]","survey-likert","397","802229","0.0-397.0","zj41psak","","","","","","","","1"
"1383.734999999986","{""confidence"":1}","[0]","survey-likert","398","803614","0.0-398.0","zj41psak","","","","","","","",""
"","","","call-function","399","803615","0.0-399.0","zj41psak","","","","","","","",""
"null","","","html-keyboard-response","400","805119","0.0-400.0","zj41psak","","<span style=""color:Black; font-size:50px;"">Agent A","null","","","","",""
"null","","","video-keyboard-response","401","808225","0.0-401.0","zj41psak","","","null","","Agent A","veridical","STIM_SET_1_REAL/713684.bmp_pp85_L3_V1.0_veridical_freeview_isoFalse_fps144.mp4",""
"null","","","html-keyboard-response","402","809728","0.0-402.0","zj41psak","","<span style=""color:Black; font-size:50px;"">Agent B","null","","","","",""
"null","","","video-keyboard-response","403","812841","0.0-403.0","zj41psak","","","null","","Agent B","scrambled","STIM_SET_3/713920.bmp_pp76_L1_V2_veridical_freeview_isoFalsemismatch_713684.bmp_L3_fps90.mp4",""
"","","","call-function","404","812842","0.0-404.0","zj41psak","","","","","","","",""
"1473.5599999999395","{""judgement"":0}","[0]","survey-likert","405","814316","0.0-405.0","zj41psak","","","","","","","","0"
"2485.810000000056","{""confidence"":2}","[0]","survey-likert","406","816804","0.0-406.0","zj41psak","","","","","","","",""
"","","","call-function","407","816805","0.0-407.0","zj41psak","","","","","","","",""
"null","","","html-keyboard-response","408","818309","0.0-408.0","zj41psak","","<span style=""color:Black; font-size:50px;"">Agent A","null","","","","",""
"null","","","video-keyboard-response","409","821410","0.0-409.0","zj41psak","","","null","","Agent A","veridical","STIM_SET_1_REAL/713371.bmp_pp68_L1_V1.0_veridical_freeview_isoFalse_fps144.mp4",""
"null","","","html-keyboard-response","410","822913","0.0-410.0","zj41psak","","<span style=""color:Black; font-size:50px;"">Agent B","null","","","","",""
"null","","","video-keyboard-response","411","826027","0.0-411.0","zj41psak","","","null","","Agent B","scrambled","STIM_SET_3/498396.bmp_pp99_L2_V2_veridical_freeview_isoFalsemismatch_713371.bmp_L1_fps90.mp4",""
"","","","call-function","412","826028","0.0-412.0","zj41psak","","","","","","","",""
"1189.454999999958","{""judgement"":0}","[0]","survey-likert","413","827219","0.0-413.0","zj41psak","","","","","","","","0"
"1563.7849999999162","{""confidence"":3}","[0]","survey-likert","414","828784","0.0-414.0","zj41psak","","","","","","","",""
"4502.135000000009","","","instructions","415","833287","0.0-415.0","zj41psak","[{""page_index"":0,""viewing_time"":3043.7149999999674},{""page_index"":1,""viewing_time"":732.5400000000373},{""page_index"":2,""viewing_time"":725.6500000000233}]","","","","","","",""
"2599.4799999999814","","","instructions","416","835888","0.0-416.0","zj41psak","[{""page_index"":0,""viewing_time"":734.3549999999814},{""page_index"":1,""viewing_time"":1185.2750000000233},{""page_index"":2,""viewing_time"":679.7399999999907}]","","","","","","",""
"","","","call-function","417","835889","0.0-417.0","zj41psak","","","","","","","",""
"null","","","html-keyboard-response","418","837394","0.0-418.0","zj41psak","","<span style=""color:Black; font-size:50px;"">Agent A","null","","","","",""
"null","","","video-keyboard-response","419","840477","0.0-419.0","zj41psak","","","null","","Agent A","scrambled","STIM_SET_3/107955.bmp_pp90_L2_V2_veridical_freeview_isoFalsemismatch_498149.bmp_L2_fps90.mp4",""
"null","","","html-keyboard-response","420","841983","0.0-420.0","zj41psak","","<span style=""color:Black; font-size:50px;"">Agent B","null","","","","",""
"null","","","video-keyboard-response","421","845047","0.0-421.0","zj41psak","","","null","","Agent B","veridical","STIM_SET_1_REAL/498149.bmp_pp99_L2_V1.0_veridical_freeview_isoFalse_fps144.mp4",""
"","","","call-function","422","845048","0.0-422.0","zj41psak","","","","","","","",""
"1568.984999999986","{""judgement"":1}","[0]","survey-likert","423","846618","0.0-423.0","zj41psak","","","","","","","","1"
"1330.5750000000698","{""confidence"":3}","[0]","survey-likert","424","847950","0.0-424.0","zj41psak","","","","","","","",""
"","","","call-function","425","847951","0.0-425.0","zj41psak","","","","","","","",""
"null","","","html-keyboard-response","426","849453","0.0-426.0","zj41psak","","<span style=""color:Black; font-size:50px;"">Agent A","null","","","","",""
"null","","","video-keyboard-response","427","852519","0.0-427.0","zj41psak","","","null","","Agent A","scrambled","STIM_SET_3/1159427.bmp_pp98_L1_V2_veridical_freeview_isoFalsemismatch_1591876.bmp_L1_fps90.mp4",""
"null","","","html-keyboard-response","428","854021","0.0-428.0","zj41psak","","<span style=""color:Black; font-size:50px;"">Agent B","null","","","","",""
"null","","","video-keyboard-response","429","857098","0.0-429.0","zj41psak","","","null","","Agent B","veridical","STIM_SET_1_REAL/1591876.bmp_pp63_L1_V1.0_veridical_freeview_isoFalse_fps144.mp4",""
"","","","call-function","430","857099","0.0-430.0","zj41psak","","","","","","","",""
"1494.3399999999674","{""judgement"":1}","[0]","survey-likert","431","858594","0.0-431.0","zj41psak","","","","","","","","1"
"1224.0699999999488","{""confidence"":3}","[0]","survey-likert","432","859819","0.0-432.0","zj41psak","","","","","","","",""
"","","","call-function","433","859820","0.0-433.0","zj41psak","","","","","","","",""
"null","","","html-keyboard-response","434","861321","0.0-434.0","zj41psak","","<span style=""color:Black; font-size:50px;"">Agent A","null","","","","",""
"null","","","video-keyboard-response","435","864422","0.0-435.0","zj41psak","","","null","","Agent A","veridical","STIM_SET_1_REAL/1592657.bmp_pp98_L1_V1.0_veridical_freeview_isoFalse_fps144.mp4",""
"null","","","html-keyboard-response","436","865925","0.0-436.0","zj41psak","","<span style=""color:Black; font-size:50px;"">Agent B","null","","","","",""
"null","","","video-keyboard-response","437","869036","0.0-437.0","zj41psak","","","null","","Agent B","scrambled","STIM_SET_3/498261.bmp_pp84_L3_V2_veridical_freeview_isoFalsemismatch_1592657.bmp_L1_fps90.mp4",""
"","","","call-function","438","869037","0.0-438.0","zj41psak","","","","","","","",""
"1494.5699999999488","{""judgement"":0}","[0]","survey-likert","439","870532","0.0-439.0","zj41psak","","","","","","","","0"
"1390.1300000000047","{""confidence"":2}","[0]","survey-likert","440","871924","0.0-440.0","zj41psak","","","","","","","",""
"","","","call-function","441","871924","0.0-441.0","zj41psak","","","","","","","",""
"null","","","html-keyboard-response","442","873430","0.0-442.0","zj41psak","","<span style=""color:Black; font-size:50px;"">Agent A","null","","","","",""
"null","","","video-keyboard-response","443","876540","0.0-443.0","zj41psak","","","null","","Agent A","veridical","STIM_SET_1_REAL/713135.bmp_pp54_L2_V1.0_veridical_freeview_isoFalse_fps144.mp4",""
"null","","","html-keyboard-response","444","878043","0.0-444.0","zj41psak","","<span style=""color:Black; font-size:50px;"">Agent B","null","","","","",""
"null","","","video-keyboard-response","445","881141","0.0-445.0","zj41psak","","","null","","Agent B","scrambled","STIM_SET_3/1592567.bmp_pp70_L2_V2_veridical_freeview_isoFalsemismatch_713135.bmp_L2_fps90.mp4",""
"","","","call-function","446","881142","0.0-446.0","zj41psak","","","","","","","",""
"1980.4749999999767","{""judgement"":0}","[0]","survey-likert","447","883124","0.0-447.0","zj41psak","","","","","","","","0"
"1762.0950000000885","{""confidence"":1}","[0]","survey-likert","448","884887","0.0-448.0","zj41psak","","","","","","","",""
"","","","call-function","449","884887","0.0-449.0","zj41psak","","","","","","","",""
"null","","","html-keyboard-response","450","886390","0.0-450.0","zj41psak","","<span style=""color:Black; font-size:50px;"">Agent A","null","","","","",""
"null","","","video-keyboard-response","451","889496","0.0-451.0","zj41psak","","","null","","Agent A","scrambled","STIM_SET_3/1592129.bmp_pp153_L3_V2_veridical_freeview_isoFalsemismatch_1159813.bmp_L2_fps90.mp4",""
"null","","","html-keyboard-response","452","891001","0.0-452.0","zj41psak","","<span style=""color:Black; font-size:50px;"">Agent B","null","","","","",""
"null","","","video-keyboard-response","453","894120","0.0-453.0","zj41psak","","","null","","Agent B","veridical","STIM_SET_1_REAL/1159813.bmp_pp79_L2_V1.0_veridical_freeview_isoFalse_fps144.mp4",""
"","","","call-function","454","894121","0.0-454.0","zj41psak","","","","","","","",""
"2658.125","{""judgement"":1}","[0]","survey-likert","455","896780","0.0-455.0","zj41psak","","","","","","","","1"
"4791.949999999953","{""confidence"":2}","[0]","survey-likert","456","901574","0.0-456.0","zj41psak","","","","","","","",""
"","","","call-function","457","901575","0.0-457.0","zj41psak","","","","","","","",""
"null","","","html-keyboard-response","458","903078","0.0-458.0","zj41psak","","<span style=""color:Black; font-size:50px;"">Agent A","null","","","","",""
"null","","","video-keyboard-response","459","906182","0.0-459.0","zj41psak","","","null","","Agent A","scrambled","STIM_SET_3/713790.bmp_pp100_L3_V2_veridical_freeview_isoFalsemismatch_1592397.bmp_L3_fps90.mp4",""
"null","","","html-keyboard-response","460","907687","0.0-460.0","zj41psak","","<span style=""color:Black; font-size:50px;"">Agent B","null","","","","",""
"null","","","video-keyboard-response","461","910759","0.0-461.0","zj41psak","","","null","","Agent B","veridical","STIM_SET_1_REAL/1592397.bmp_pp85_L3_V1.0_veridical_freeview_isoFalse_fps144.mp4",""
"","","","call-function","462","910759","0.0-462.0","zj41psak","","","","","","","",""
"5262.945000000065","{""judgement"":1}","[0]","survey-likert","463","916023","0.0-463.0","zj41psak","","","","","","","","1"
"1130.2399999999907","{""confidence"":0}","[0]","survey-likert","464","917155","0.0-464.0","zj41psak","","","","","","","",""
"","","","call-function","465","917155","0.0-465.0","zj41psak","","","","","","","",""
"null","","","html-keyboard-response","466","918661","0.0-466.0","zj41psak","","<span style=""color:Black; font-size:50px;"">Agent A","null","","","","",""
"null","","","video-keyboard-response","467","921723","0.0-467.0","zj41psak","","","null","","Agent A","scrambled","STIM_SET_3/498326.bmp_pp57_L1_V2_veridical_freeview_isoFalsemismatch_1592286.bmp_L1_fps90.mp4",""
"null","","","html-keyboard-response","468","923229","0.0-468.0","zj41psak","","<span style=""color:Black; font-size:50px;"">Agent B","null","","","","",""
"null","","","video-keyboard-response","469","926300","0.0-469.0","zj41psak","","","null","","Agent B","veridical","STIM_SET_1_REAL/1592286.bmp_pp52_L1_V1.0_veridical_freeview_isoFalse_fps144.mp4",""
"","","","call-function","470","926300","0.0-470.0","zj41psak","","","","","","","",""
"1423.8649999999907","{""judgement"":1}","[0]","survey-likert","471","927725","0.0-471.0","zj41psak","","","","","","","","1"
"1296.484999999986","{""confidence"":3}","[0]","survey-likert","472","929023","0.0-472.0","zj41psak","","","","","","","",""
"","","","call-function","473","929023","0.0-473.0","zj41psak","","","","","","","",""
"null","","","html-keyboard-response","474","930525","0.0-474.0","zj41psak","","<span style=""color:Black; font-size:50px;"">Agent A","null","","","","",""
"null","","","video-keyboard-response","475","933623","0.0-475.0","zj41psak","","","null","","Agent A","veridical","STIM_SET_1_REAL/1592890.bmp_pp82_L2_V1.0_veridical_freeview_isoFalse_fps144.mp4",""
"null","","","html-keyboard-response","476","935126","0.0-476.0","zj41psak","","<span style=""color:Black; font-size:50px;"">Agent B","null","","","","",""
"null","","","video-keyboard-response","477","938237","0.0-477.0","zj41psak","","","null","","Agent B","scrambled","STIM_SET_3/1592168.bmp_pp71_L1_V2_veridical_freeview_isoFalsemismatch_1592890.bmp_L2_fps90.mp4",""
"","","","call-function","478","938238","0.0-478.0","zj41psak","","","","","","","",""
"4391.680000000051","{""judgement"":0}","[0]","survey-likert","479","942630","0.0-479.0","zj41psak","","","","","","","","0"
"1005.5999999999767","{""confidence"":1}","[0]","survey-likert","480","943637","0.0-480.0","zj41psak","","","","","","","",""
"","","","call-function","481","943638","0.0-481.0","zj41psak","","","","","","","",""
"null","","","html-keyboard-response","482","945142","0.0-482.0","zj41psak","","<span style=""color:Black; font-size:50px;"">Agent A","null","","","","",""
"null","","","video-keyboard-response","483","948252","0.0-483.0","zj41psak","","","null","","Agent A","scrambled","STIM_SET_3/1592017.bmp_pp154_L1_V2_veridical_freeview_isoFalsemismatch_1159777.bmp_L3_fps90.mp4",""
"null","","","html-keyboard-response","484","949755","0.0-484.0","zj41psak","","<span style=""color:Black; font-size:50px;"">Agent B","null","","","","",""
"null","","","video-keyboard-response","485","952861","0.0-485.0","zj41psak","","","null","","Agent B","veridical","STIM_SET_1_REAL/1159777.bmp_pp77_L3_V1.0_veridical_freeview_isoFalse_fps144.mp4",""
"","","","call-function","486","952863","0.0-486.0","zj41psak","","","","","","","",""
"1817.5800000000745","{""judgement"":1}","[0]","survey-likert","487","954682","0.0-487.0","zj41psak","","","","","","","","1"
"1532.3549999999814","{""confidence"":3}","[0]","survey-likert","488","956217","0.0-488.0","zj41psak","","","","","","","",""
"","","","call-function","489","956218","0.0-489.0","zj41psak","","","","","","","",""
"null","","","html-keyboard-response","490","957722","0.0-490.0","zj41psak","","<span style=""color:Black; font-size:50px;"">Agent A","null","","","","",""
"null","","","video-keyboard-response","491","960794","0.0-491.0","zj41psak","","","null","","Agent A","veridical","STIM_SET_1_REAL/713796.bmp_pp84_L3_V1.0_veridical_freeview_isoFalse_fps144.mp4",""
"null","","","html-keyboard-response","492","962297","0.0-492.0","zj41psak","","<span style=""color:Black; font-size:50px;"">Agent B","null","","","","",""
"null","","","video-keyboard-response","493","965391","0.0-493.0","zj41psak","","","null","","Agent B","scrambled","STIM_SET_3/713633.bmp_pp58_L1_V2_veridical_freeview_isoFalsemismatch_713796.bmp_L3_fps90.mp4",""
"","","","call-function","494","965392","0.0-494.0","zj41psak","","","","","","","",""
"1544.170000000042","{""judgement"":0}","[0]","survey-likert","495","966937","0.0-495.0","zj41psak","","","","","","","","0"
"1386.7099999999627","{""confidence"":2}","[0]","survey-likert","496","968325","0.0-496.0","zj41psak","","","","","","","",""
"2371.359999999986","","","instructions","497","970697","0.0-497.0","zj41psak","[{""page_index"":0,""viewing_time"":1011.2600000000093},{""page_index"":1,""viewing_time"":635.8800000000047},{""page_index"":2,""viewing_time"":724.0649999999441}]","","","","","","",""
"2360.4250000000466","","","instructions","498","973059","0.0-498.0","zj41psak","[{""page_index"":0,""viewing_time"":562},{""page_index"":1,""viewing_time"":754.1000000000931},{""page_index"":2,""viewing_time"":1044.2099999999627}]","","","","","","",""
"","","","call-function","499","973060","0.0-499.0","zj41psak","","","","","","","",""
"null","","","html-keyboard-response","500","974561","0.0-500.0","zj41psak","","<span style=""color:Black; font-size:50px;"">Agent A","null","","","","",""
"null","","","video-keyboard-response","501","977626","0.0-501.0","zj41psak","","","null","","Agent A","veridical","STIM_SET_1_REAL/1592619.bmp_pp56_L3_V1.0_veridical_freeview_isoFalse_fps144.mp4",""
"null","","","html-keyboard-response","502","979132","0.0-502.0","zj41psak","","<span style=""color:Black; font-size:50px;"">Agent B","null","","","","",""
"null","","","video-keyboard-response","503","982218","0.0-503.0","zj41psak","","","null","","Agent B","scrambled","STIM_SET_3/150463.bmp_pp55_L3_V2_veridical_freeview_isoFalsemismatch_1592619.bmp_L3_fps90.mp4",""
"","","","call-function","504","982219","0.0-504.0","zj41psak","","","","","","","",""
"1493.7849999999162","{""judgement"":0}","[0]","survey-likert","505","983713","0.0-505.0","zj41psak","","","","","","","","0"
"1441.704999999958","{""confidence"":3}","[0]","survey-likert","506","985156","0.0-506.0","zj41psak","","","","","","","",""
"","","","call-function","507","985157","0.0-507.0","zj41psak","","","","","","","",""
"null","","","html-keyboard-response","508","986661","0.0-508.0","zj41psak","","<span style=""color:Black; font-size:50px;"">Agent A","null","","","","",""
"null","","","video-keyboard-response","509","989753","0.0-509.0","zj41psak","","","null","","Agent A","veridical","STIM_SET_1_REAL/1159447.bmp_pp70_L2_V1.0_veridical_freeview_isoFalse_fps144.mp4",""
"null","","","html-keyboard-response","510","991255","0.0-510.0","zj41psak","","<span style=""color:Black; font-size:50px;"">Agent B","null","","","","",""
"null","","","video-keyboard-response","511","994347","0.0-511.0","zj41psak","","","null","","Agent B","scrambled","STIM_SET_3/1592150.bmp_pp77_L3_V2_veridical_freeview_isoFalsemismatch_1159447.bmp_L2_fps90.mp4",""
"","","","call-function","512","994347","0.0-512.0","zj41psak","","","","","","","",""
"1602.1699999999255","{""judgement"":0}","[0]","survey-likert","513","995950","0.0-513.0","zj41psak","","","","","","","","0"
"1501.625","{""confidence"":3}","[0]","survey-likert","514","997453","0.0-514.0","zj41psak","","","","","","","",""
"","","","call-function","515","997454","0.0-515.0","zj41psak","","","","","","","",""
"null","","","html-keyboard-response","516","998956","0.0-516.0","zj41psak","","<span style=""color:Black; font-size:50px;"">Agent A","null","","","","",""
"null","","","video-keyboard-response","517","1002082","0.0-517.0","zj41psak","","","null","","Agent A","scrambled","STIM_SET_3/285946.bmp_pp79_L2_V2_veridical_freeview_isoFalsemismatch_285751.bmp_L3_fps90.mp4",""
"null","","","html-keyboard-response","518","1003585","0.0-518.0","zj41psak","","<span style=""color:Black; font-size:50px;"">Agent B","null","","","","",""
"null","","","video-keyboard-response","519","1006689","0.0-519.0","zj41psak","","","null","","Agent B","veridical","STIM_SET_1_REAL/285751.bmp_pp55_L3_V1.0_veridical_freeview_isoFalse_fps144.mp4",""
"","","","call-function","520","1006689","0.0-520.0","zj41psak","","","","","","","",""
"2786.8249999999534","{""judgement"":1}","[0]","survey-likert","521","1009477","0.0-521.0","zj41psak","","","","","","","","1"
"2974.0500000000466","{""confidence"":2}","[0]","survey-likert","522","1012452","0.0-522.0","zj41psak","","","","","","","",""
"","","","call-function","523","1012453","0.0-523.0","zj41psak","","","","","","","",""
"null","","","html-keyboard-response","524","1013955","0.0-524.0","zj41psak","","<span style=""color:Black; font-size:50px;"">Agent A","null","","","","",""
"null","","","video-keyboard-response","525","1017045","0.0-525.0","zj41psak","","","null","","Agent A","scrambled","STIM_SET_3/286034.bmp_pp69_L3_V2_veridical_freeview_isoFalsemismatch_713403.bmp_L3_fps90.mp4",""
"null","","","html-keyboard-response","526","1018551","0.0-526.0","zj41psak","","<span style=""color:Black; font-size:50px;"">Agent B","null","","","","",""
"null","","","video-keyboard-response","527","1021636","0.0-527.0","zj41psak","","","null","","Agent B","veridical","STIM_SET_1_REAL/713403.bmp_pp80_L3_V1.0_veridical_freeview_isoFalse_fps144.mp4",""
"","","","call-function","528","1021637","0.0-528.0","zj41psak","","","","","","","",""
"1947.2550000000047","{""judgement"":1}","[0]","survey-likert","529","1023585","0.0-529.0","zj41psak","","","","","","","","1"
"1911.079999999958","{""confidence"":2}","[0]","survey-likert","530","1025498","0.0-530.0","zj41psak","","","","","","","",""
"","","","call-function","531","1025499","0.0-531.0","zj41psak","","","","","","","",""
"null","","","html-keyboard-response","532","1027003","0.0-532.0","zj41psak","","<span style=""color:Black; font-size:50px;"">Agent A","null","","","","",""
"null","","","video-keyboard-response","533","1030082","0.0-533.0","zj41psak","","","null","","Agent A","veridical","STIM_SET_1_REAL/1593146.bmp_pp93_L1_V1.0_veridical_freeview_isoFalse_fps144.mp4",""
"null","","","html-keyboard-response","534","1031586","0.0-534.0","zj41psak","","<span style=""color:Black; font-size:50px;"">Agent B","null","","","","",""
"null","","","video-keyboard-response","535","1034658","0.0-535.0","zj41psak","","","null","","Agent B","scrambled","STIM_SET_3/1592298.bmp_pp56_L3_V2_veridical_freeview_isoFalsemismatch_1593146.bmp_L1_fps90.mp4",""
"","","","call-function","536","1034659","0.0-536.0","zj41psak","","","","","","","",""
"1928.9450000000652","{""judgement"":0}","[0]","survey-likert","537","1036589","0.0-537.0","zj41psak","","","","","","","","0"
"1363.6149999999907","{""confidence"":3}","[0]","survey-likert","538","1037954","0.0-538.0","zj41psak","","","","","","","",""
"","","","call-function","539","1037955","0.0-539.0","zj41psak","","","","","","","",""
"null","","","html-keyboard-response","540","1039458","0.0-540.0","zj41psak","","<span style=""color:Black; font-size:50px;"">Agent A","null","","","","",""
"null","","","video-keyboard-response","541","1042518","0.0-541.0","zj41psak","","","null","","Agent A","veridical","STIM_SET_1_REAL/497950.bmp_pp151_L1_V1.0_veridical_freeview_isoFalse_fps144.mp4",""
"null","","","html-keyboard-response","542","1044022","0.0-542.0","zj41psak","","<span style=""color:Black; font-size:50px;"">Agent B","null","","","","",""
"null","","","video-keyboard-response","543","1047106","0.0-543.0","zj41psak","","","null","","Agent B","scrambled","STIM_SET_3/713274.bmp_pp73_L3_V2_veridical_freeview_isoFalsemismatch_497950.bmp_L1_fps90.mp4",""
"","","","call-function","544","1047107","0.0-544.0","zj41psak","","","","","","","",""
"1584.2700000000186","{""judgement"":0}","[0]","survey-likert","545","1048692","0.0-545.0","zj41psak","","","","","","","","0"
"1138.839999999851","{""confidence"":3}","[0]","survey-likert","546","1049833","0.0-546.0","zj41psak","","","","","","","",""
"","","","call-function","547","1049833","0.0-547.0","zj41psak","","","","","","","",""
"null","","","html-keyboard-response","548","1051335","0.0-548.0","zj41psak","","<span style=""color:Black; font-size:50px;"">Agent A","null","","","","",""
"null","","","video-keyboard-response","549","1054461","0.0-549.0","zj41psak","","","null","","Agent A","scrambled","STIM_SET_3/713788.bmp_pp52_L1_V2_veridical_freeview_isoFalsemismatch_1159768.bmp_L1_fps90.mp4",""
"null","","","html-keyboard-response","550","1055965","0.0-550.0","zj41psak","","<span style=""color:Black; font-size:50px;"">Agent B","null","","","","",""
"null","","","video-keyboard-response","551","1059075","0.0-551.0","zj41psak","","","null","","Agent B","veridical","STIM_SET_1_REAL/1159768.bmp_pp89_L1_V1.0_veridical_freeview_isoFalse_fps144.mp4",""
"","","","call-function","552","1059076","0.0-552.0","zj41psak","","","","","","","",""
"4902.209999999963","{""judgement"":0}","[0]","survey-likert","553","1063980","0.0-553.0","zj41psak","","","","","","","","1"
"1460.9350000000559","{""confidence"":0}","[0]","survey-likert","554","1065442","0.0-554.0","zj41psak","","","","","","","",""
"","","","call-function","555","1065443","0.0-555.0","zj41psak","","","","","","","",""
"null","","","html-keyboard-response","556","1066944","0.0-556.0","zj41psak","","<span style=""color:Black; font-size:50px;"">Agent A","null","","","","",""
"null","","","video-keyboard-response","557","1070042","0.0-557.0","zj41psak","","","null","","Agent A","scrambled","STIM_SET_3/1159392.bmp_pp96_L2_V2_veridical_freeview_isoFalsemismatch_1592934.bmp_L1_fps90.mp4",""
"null","","","html-keyboard-response","558","1071544","0.0-558.0","zj41psak","","<span style=""color:Black; font-size:50px;"">Agent B","null","","","","",""
"null","","","video-keyboard-response","559","1074641","0.0-559.0","zj41psak","","","null","","Agent B","veridical","STIM_SET_1_REAL/1592934.bmp_pp63_L1_V1.0_veridical_freeview_isoFalse_fps144.mp4",""
"","","","call-function","560","1074642","0.0-560.0","zj41psak","","","","","","","",""
"3232.184999999823","{""judgement"":0}","[0]","survey-likert","561","1077875","0.0-561.0","zj41psak","","","","","","","","1"
"1238.160000000149","{""confidence"":0}","[0]","survey-likert","562","1079116","0.0-562.0","zj41psak","","","","","","","",""
"","","","call-function","563","1079117","0.0-563.0","zj41psak","","","","","","","",""
"null","","","html-keyboard-response","564","1080619","0.0-564.0","zj41psak","","<span style=""color:Black; font-size:50px;"">Agent A","null","","","","",""
"null","","","video-keyboard-response","565","1083719","0.0-565.0","zj41psak","","","null","","Agent A","scrambled","STIM_SET_3/1592568.bmp_pp71_L1_V2_veridical_freeview_isoFalsemismatch_285905.bmp_L1_fps90.mp4",""
"null","","","html-keyboard-response","566","1085223","0.0-566.0","zj41psak","","<span style=""color:Black; font-size:50px;"">Agent B","null","","","","",""
"null","","","video-keyboard-response","567","1088291","0.0-567.0","zj41psak","","","null","","Agent B","veridical","STIM_SET_1_REAL/285905.bmp_pp57_L1_V1.0_veridical_freeview_isoFalse_fps144.mp4",""
"","","","call-function","568","1088292","0.0-568.0","zj41psak","","","","","","","",""
"1715.6200000001118","{""judgement"":1}","[0]","survey-likert","569","1090009","0.0-569.0","zj41psak","","","","","","","","1"
"1515.005000000121","{""confidence"":3}","[0]","survey-likert","570","1091526","0.0-570.0","zj41psak","","","","","","","",""
"","","","call-function","571","1091527","0.0-571.0","zj41psak","","","","","","","",""
"null","","","html-keyboard-response","572","1093028","0.0-572.0","zj41psak","","<span style=""color:Black; font-size:50px;"">Agent A","null","","","","",""
"null","","","video-keyboard-response","573","1096096","0.0-573.0","zj41psak","","","null","","Agent A","veridical","STIM_SET_1_REAL/1592362.bmp_pp95_L2_V1.0_veridical_freeview_isoFalse_fps144.mp4",""
"null","","","html-keyboard-response","574","1097601","0.0-574.0","zj41psak","","<span style=""color:Black; font-size:50px;"">Agent B","null","","","","",""
"null","","","video-keyboard-response","575","1100684","0.0-575.0","zj41psak","","","null","","Agent B","scrambled","STIM_SET_3/150277.bmp_pp65_L3_V2_veridical_freeview_isoFalsemismatch_1592362.bmp_L2_fps90.mp4",""
"","","","call-function","576","1100685","0.0-576.0","zj41psak","","","","","","","",""
"1510.4799999999814","{""judgement"":0}","[0]","survey-likert","577","1102197","0.0-577.0","zj41psak","","","","","","","","0"
"1414.6299999998882","{""confidence"":3}","[0]","survey-likert","578","1103613","0.0-578.0","zj41psak","","","","","","","",""
"933.2150000000838","","","instructions","579","1104547","0.0-579.0","zj41psak","[{""page_index"":0,""viewing_time"":933.0749999999534}]","","","","","","",""
"1881.1799999999348","","","instructions","580","1106429","0.0-580.0","zj41psak","[{""page_index"":0,""viewing_time"":1881.0700000000652}]","","","","","","",""
"10373.300000000047","{""post-1"":2}","[0]","survey-likert","581","1116803","0.0-581.0","zj41psak","","","","","","","",""
"3892.910000000149","{""post-1"":1}","[0]","survey-likert","582","1120697","0.0-582.0","zj41psak","","","","","","","",""
"5898.129999999888","{""post-2"":2}","[0]","survey-likert","583","1126597","0.0-583.0","zj41psak","","","","","","","",""
"4571.135000000009","{""post-2"":1}","[0]","survey-likert","584","1131170","0.0-584.0","zj41psak","","","","","","","",""
"3575.1999999999534","{""post-3"":2}","[0]","survey-likert","585","1134746","0.0-585.0","zj41psak","","","","","","","",""
"2200.4549999998417","{""post-3"":1}","[0]","survey-likert","586","1136948","0.0-586.0","zj41psak","","","","","","","",""
"4636.959999999963","{""post-4"":1}","[0]","survey-likert","587","1141586","0.0-587.0","zj41psak","","","","","","","",""
"2524.1099999998696","{""post-4"":0}","[0]","survey-likert","588","1144112","0.0-588.0","zj41psak","","","","","","","",""
"4421.360000000102","{""post-5"":0}","[0]","survey-likert","589","1148535","0.0-589.0","zj41psak","","","","","","","",""
"2880.3000000000466","{""post-5"":2}","[0]","survey-likert","590","1151416","0.0-590.0","zj41psak","","","","","","","",""
"1021.5500000000466","{""Q0"":""""}","","survey-text","591","1152444","0.0-591.0","zj41psak","","","","","","","",""
"871.0299999997951","{""Q0"":""""}","","survey-text","592","1153318","0.0-592.0","zj41psak","","","","","","","",""
"1186.089999999851","{""Q0"":""""}","","survey-text","593","1154507","0.0-593.0","zj41psak","","","","","","","",""
"1822.8649999999907","","","instructions","594","1156330","0.0-594.0","zj41psak","[{""page_index"":0,""viewing_time"":1822.7349999998696}]","","","","","","",""
"33423.97500000009","{""Experimenter_end"":[""Printed ID# zj41psak on consent form"",""Given subject SONA credit or payment"",""Given the subject debrief form""]}","[0]","survey-multi-select","595","1189757","0.0-595.0","zj41psak","","","","","","","",""
