"rt","responses","question_order","trial_type","trial_index","time_elapsed","internal_node_id","ID","view_history","stimulus","key_press","value","agent","condition","image","correct_answer"
"98086.6","{""Experimenter"":[""Confirmed subject's identity (ID card)"",""Confirmed normal or corrected-to-normal vision"",""Obtained consent (signature and date)"",""Checked the test room lighting"",""Checked computer screen lighting"",""Checked distance from screen to chin rest (50cm)"",""Cleaned and adjusted chin rest"",""Counterbalanced the order of the tasks"",""Opened the experiment in Firefox"",""Made the experiment full screen"",""Encouraged subject to silence phone, put away distractors, etc.""]}","[0]","survey-multi-select","0","98094","0.0-0.0","zy3xcfb7","","","","","","","",""
"21962.64499999999","","","instructions","1","120059","0.0-1.0","zy3xcfb7","[{""page_index"":0,""viewing_time"":21962.484999999986}]","","","","","","",""
"29873.615000000005","","","instructions","2","149933","0.0-2.0","zy3xcfb7","[{""page_index"":0,""viewing_time"":1561.7249999999913},{""page_index"":1,""viewing_time"":7034.794999999998},{""page_index"":2,""viewing_time"":21276.970000000016}]","","","","","","",""
"4395.320000000007","","","instructions","3","154329","0.0-3.0","zy3xcfb7","[{""page_index"":0,""viewing_time"":4395.2149999999965}]","","","","","","",""
"null","","","video-keyboard-response","4","157404","0.0-4.0","zy3xcfb7","","","null","","","","",""
"24013.17499999999","","","instructions","5","181419","0.0-5.0","zy3xcfb7","[{""page_index"":0,""viewing_time"":4183.010000000009},{""page_index"":1,""viewing_time"":3170.859999999986},{""page_index"":2,""viewing_time"":1356.0750000000116},{""page_index"":3,""viewing_time"":7582.945000000007},{""page_index"":4,""viewing_time"":7720.079999999987}]","","","","","","",""
"3360.070000000007","","","instructions","6","184780","0.0-6.0","zy3xcfb7","[{""page_index"":0,""viewing_time"":3359.954999999987}]","","","","","","",""
"","","","call-function","7","184780","0.0-7.0","zy3xcfb7","","","","","","","",""
"null","","","html-keyboard-response","8","186283","0.0-8.0","zy3xcfb7","","<span style=""color:Black; font-size:50px;"">Agent A","null","","","","",""
"null","","","video-keyboard-response","9","189360","0.0-9.0","zy3xcfb7","","","null","","Agent A","scrambled","STIM_SET_1/1592581.bmp_pp100_L3_V1.0_scrambled_freeview_isoFalse.mp4",""
"null","","","html-keyboard-response","10","190866","0.0-10.0","zy3xcfb7","","<span style=""color:Black; font-size:50px;"">Agent B","null","","","","",""
"null","","","video-keyboard-response","11","193945","0.0-11.0","zy3xcfb7","","","null","","Agent B","veridical","STIM_SET_1/1592581.bmp_pp100_L3_V1.0_veridical_freeview_isoFalse.mp4",""
"","","","call-function","12","193945","0.0-12.0","zy3xcfb7","","","","","","","",""
"5022.414999999979","{""judgement"":0}","[0]","survey-likert","13","198969","0.0-13.0","zy3xcfb7","","","","","","","","1"
"3022.7149999999965","{""confidence"":0}","[0]","survey-likert","14","201993","0.0-14.0","zy3xcfb7","","","","","","","",""
"","","","call-function","15","201994","0.0-15.0","zy3xcfb7","","","","","","","",""
"null","","","html-keyboard-response","16","203495","0.0-16.0","zy3xcfb7","","<span style=""color:Black; font-size:50px;"">Agent A","null","","","","",""
"null","","","video-keyboard-response","17","206567","0.0-17.0","zy3xcfb7","","","null","","Agent A","scrambled","STIM_SET_1/1593035.bmp_pp94_L2_V1.0_scrambled_freeview_isoFalse.mp4",""
"null","","","html-keyboard-response","18","208072","0.0-18.0","zy3xcfb7","","<span style=""color:Black; font-size:50px;"">Agent B","null","","","","",""
"null","","","video-keyboard-response","19","211182","0.0-19.0","zy3xcfb7","","","null","","Agent B","veridical","STIM_SET_1/1593035.bmp_pp94_L2_V1.0_veridical_freeview_isoFalse.mp4",""
"","","","call-function","20","211182","0.0-20.0","zy3xcfb7","","","","","","","",""
"3069.3249999999825","{""judgement"":0}","[0]","survey-likert","21","214254","0.0-21.0","zy3xcfb7","","","","","","","","1"
"4053.084999999992","{""confidence"":2}","[0]","survey-likert","22","218308","0.0-22.0","zy3xcfb7","","","","","","","",""
"","","","call-function","23","218308","0.0-23.0","zy3xcfb7","","","","","","","",""
"null","","","html-keyboard-response","24","219809","0.0-24.0","zy3xcfb7","","<span style=""color:Black; font-size:50px;"">Agent A","null","","","","",""
"null","","","video-keyboard-response","25","222883","0.0-25.0","zy3xcfb7","","","null","","Agent A","scrambled","STIM_SET_1/285905.bmp_pp57_L1_V1.0_scrambled_freeview_isoFalse.mp4",""
"null","","","html-keyboard-response","26","224387","0.0-26.0","zy3xcfb7","","<span style=""color:Black; font-size:50px;"">Agent B","null","","","","",""
"null","","","video-keyboard-response","27","227510","0.0-27.0","zy3xcfb7","","","null","","Agent B","veridical","STIM_SET_1/285905.bmp_pp57_L1_V1.0_veridical_freeview_isoFalse.mp4",""
"","","","call-function","28","227510","0.0-28.0","zy3xcfb7","","","","","","","",""
"3238.3949999999895","{""judgement"":1}","[0]","survey-likert","29","230750","0.0-29.0","zy3xcfb7","","","","","","","","1"
"4217.11500000002","{""confidence"":1}","[0]","survey-likert","30","234968","0.0-30.0","zy3xcfb7","","","","","","","",""
"","","","call-function","31","234968","0.0-31.0","zy3xcfb7","","","","","","","",""
"null","","","html-keyboard-response","32","236472","0.0-32.0","zy3xcfb7","","<span style=""color:Black; font-size:50px;"">Agent A","null","","","","",""
"null","","","video-keyboard-response","33","239589","0.0-33.0","zy3xcfb7","","","null","","Agent A","scrambled","STIM_SET_1/1591876.bmp_pp63_L1_V1.0_scrambled_freeview_isoFalse.mp4",""
"null","","","html-keyboard-response","34","241092","0.0-34.0","zy3xcfb7","","<span style=""color:Black; font-size:50px;"">Agent B","null","","","","",""
"null","","","video-keyboard-response","35","244208","0.0-35.0","zy3xcfb7","","","null","","Agent B","veridical","STIM_SET_1/1591876.bmp_pp63_L1_V1.0_veridical_freeview_isoFalse.mp4",""
"","","","call-function","36","244208","0.0-36.0","zy3xcfb7","","","","","","","",""
"4719.255000000005","{""judgement"":1}","[0]","survey-likert","37","248929","0.0-37.0","zy3xcfb7","","","","","","","","1"
"4158.059999999998","{""confidence"":0}","[0]","survey-likert","38","253088","0.0-38.0","zy3xcfb7","","","","","","","",""
"","","","call-function","39","253088","0.0-39.0","zy3xcfb7","","","","","","","",""
"null","","","html-keyboard-response","40","254592","0.0-40.0","zy3xcfb7","","<span style=""color:Black; font-size:50px;"">Agent A","null","","","","",""
"null","","","video-keyboard-response","41","257659","0.0-41.0","zy3xcfb7","","","null","","Agent A","scrambled","STIM_SET_1/713403.bmp_pp80_L3_V1.0_scrambled_freeview_isoFalse.mp4",""
"null","","","html-keyboard-response","42","259166","0.0-42.0","zy3xcfb7","","<span style=""color:Black; font-size:50px;"">Agent B","null","","","","",""
"null","","","video-keyboard-response","43","262236","0.0-43.0","zy3xcfb7","","","null","","Agent B","veridical","STIM_SET_1/713403.bmp_pp80_L3_V1.0_veridical_freeview_isoFalse.mp4",""
"","","","call-function","44","262237","0.0-44.0","zy3xcfb7","","","","","","","",""
"2821.7849999999744","{""judgement"":0}","[0]","survey-likert","45","265060","0.0-45.0","zy3xcfb7","","","","","","","","1"
"1897.625","{""confidence"":2}","[0]","survey-likert","46","266959","0.0-46.0","zy3xcfb7","","","","","","","",""
"","","","call-function","47","266960","0.0-47.0","zy3xcfb7","","","","","","","",""
"null","","","html-keyboard-response","48","268464","0.0-48.0","zy3xcfb7","","<span style=""color:Black; font-size:50px;"">Agent A","null","","","","",""
"null","","","video-keyboard-response","49","271548","0.0-49.0","zy3xcfb7","","","null","","Agent A","veridical","STIM_SET_1/1159784.bmp_pp73_L3_V1.0_veridical_freeview_isoFalse.mp4",""
"null","","","html-keyboard-response","50","273052","0.0-50.0","zy3xcfb7","","<span style=""color:Black; font-size:50px;"">Agent B","null","","","","",""
"null","","","video-keyboard-response","51","276132","0.0-51.0","zy3xcfb7","","","null","","Agent B","scrambled","STIM_SET_1/1159784.bmp_pp73_L3_V1.0_scrambled_freeview_isoFalse.mp4",""
"","","","call-function","52","276132","0.0-52.0","zy3xcfb7","","","","","","","",""
"3667.5899999999674","{""judgement"":1}","[0]","survey-likert","53","279801","0.0-53.0","zy3xcfb7","","","","","","","","0"
"1887.820000000007","{""confidence"":2}","[0]","survey-likert","54","281690","0.0-54.0","zy3xcfb7","","","","","","","",""
"","","","call-function","55","281691","0.0-55.0","zy3xcfb7","","","","","","","",""
"null","","","html-keyboard-response","56","283193","0.0-56.0","zy3xcfb7","","<span style=""color:Black; font-size:50px;"">Agent A","null","","","","",""
"null","","","video-keyboard-response","57","286271","0.0-57.0","zy3xcfb7","","","null","","Agent A","veridical","STIM_SET_1/712977.bmp_pp51_L1_V1.0_veridical_freeview_isoFalse.mp4",""
"null","","","html-keyboard-response","58","287774","0.0-58.0","zy3xcfb7","","<span style=""color:Black; font-size:50px;"">Agent B","null","","","","",""
"null","","","video-keyboard-response","59","290892","0.0-59.0","zy3xcfb7","","","null","","Agent B","scrambled","STIM_SET_1/712977.bmp_pp51_L1_V1.0_scrambled_freeview_isoFalse.mp4",""
"","","","call-function","60","290893","0.0-60.0","zy3xcfb7","","","","","","","",""
"3810.7849999999744","{""judgement"":0}","[0]","survey-likert","61","294704","0.0-61.0","zy3xcfb7","","","","","","","","0"
"2896.829999999958","{""confidence"":0}","[0]","survey-likert","62","297603","0.0-62.0","zy3xcfb7","","","","","","","",""
"","","","call-function","63","297603","0.0-63.0","zy3xcfb7","","","","","","","",""
"null","","","html-keyboard-response","64","299106","0.0-64.0","zy3xcfb7","","<span style=""color:Black; font-size:50px;"">Agent A","null","","","","",""
"null","","","video-keyboard-response","65","302221","0.0-65.0","zy3xcfb7","","","null","","Agent A","veridical","STIM_SET_1/1592499.bmp_pp96_L2_V1.0_veridical_freeview_isoFalse.mp4",""
"null","","","html-keyboard-response","66","303727","0.0-66.0","zy3xcfb7","","<span style=""color:Black; font-size:50px;"">Agent B","null","","","","",""
"null","","","video-keyboard-response","67","306839","0.0-67.0","zy3xcfb7","","","null","","Agent B","scrambled","STIM_SET_1/1592499.bmp_pp96_L2_V1.0_scrambled_freeview_isoFalse.mp4",""
"","","","call-function","68","306840","0.0-68.0","zy3xcfb7","","","","","","","",""
"4233.34500000003","{""judgement"":1}","[0]","survey-likert","69","311074","0.0-69.0","zy3xcfb7","","","","","","","","0"
"2315.615000000049","{""confidence"":1}","[0]","survey-likert","70","313391","0.0-70.0","zy3xcfb7","","","","","","","",""
"","","","call-function","71","313391","0.0-71.0","zy3xcfb7","","","","","","","",""
"null","","","html-keyboard-response","72","314896","0.0-72.0","zy3xcfb7","","<span style=""color:Black; font-size:50px;"">Agent A","null","","","","",""
"null","","","video-keyboard-response","73","318008","0.0-73.0","zy3xcfb7","","","null","","Agent A","scrambled","STIM_SET_1/498111.bmp_pp88_L2_V1.0_scrambled_freeview_isoFalse.mp4",""
"null","","","html-keyboard-response","74","319510","0.0-74.0","zy3xcfb7","","<span style=""color:Black; font-size:50px;"">Agent B","null","","","","",""
"null","","","video-keyboard-response","75","322618","0.0-75.0","zy3xcfb7","","","null","","Agent B","veridical","STIM_SET_1/498111.bmp_pp88_L2_V1.0_veridical_freeview_isoFalse.mp4",""
"","","","call-function","76","322618","0.0-76.0","zy3xcfb7","","","","","","","",""
"3344.9400000000023","{""judgement"":0}","[0]","survey-likert","77","325964","0.0-77.0","zy3xcfb7","","","","","","","","1"
"2625.344999999972","{""confidence"":1}","[0]","survey-likert","78","328590","0.0-78.0","zy3xcfb7","","","","","","","",""
"","","","call-function","79","328591","0.0-79.0","zy3xcfb7","","","","","","","",""
"null","","","html-keyboard-response","80","330093","0.0-80.0","zy3xcfb7","","<span style=""color:Black; font-size:50px;"">Agent A","null","","","","",""
"null","","","video-keyboard-response","81","333170","0.0-81.0","zy3xcfb7","","","null","","Agent A","scrambled","STIM_SET_1/498155.bmp_pp61_L2_V1.0_scrambled_freeview_isoFalse.mp4",""
"null","","","html-keyboard-response","82","334675","0.0-82.0","zy3xcfb7","","<span style=""color:Black; font-size:50px;"">Agent B","null","","","","",""
"null","","","video-keyboard-response","83","337757","0.0-83.0","zy3xcfb7","","","null","","Agent B","veridical","STIM_SET_1/498155.bmp_pp61_L2_V1.0_veridical_freeview_isoFalse.mp4",""
"","","","call-function","84","337757","0.0-84.0","zy3xcfb7","","","","","","","",""
"2886.0200000000186","{""judgement"":0}","[0]","survey-likert","85","340644","0.0-85.0","zy3xcfb7","","","","","","","","1"
"2262.319999999949","{""confidence"":0}","[0]","survey-likert","86","342908","0.0-86.0","zy3xcfb7","","","","","","","",""
"12006.195000000007","","","instructions","87","354915","0.0-87.0","zy3xcfb7","[{""page_index"":0,""viewing_time"":1688.3450000000303},{""page_index"":1,""viewing_time"":9152.859999999986},{""page_index"":2,""viewing_time"":1164.8300000000163}]","","","","","","",""
"8143.054999999993","","","instructions","88","363059","0.0-88.0","zy3xcfb7","[{""page_index"":0,""viewing_time"":961.7249999999767},{""page_index"":1,""viewing_time"":6255.285000000033},{""page_index"":2,""viewing_time"":925.8850000000093}]","","","","","","",""
"","","","call-function","89","363060","0.0-89.0","zy3xcfb7","","","","","","","",""
"null","","","html-keyboard-response","90","364564","0.0-90.0","zy3xcfb7","","<span style=""color:Black; font-size:50px;"">Agent A","null","","","","",""
"null","","","video-keyboard-response","91","367631","0.0-91.0","zy3xcfb7","","","null","","Agent A","veridical","STIM_SET_1/1159446.bmp_pp60_L3_V1.0_veridical_freeview_isoFalse.mp4",""
"null","","","html-keyboard-response","92","369136","0.0-92.0","zy3xcfb7","","<span style=""color:Black; font-size:50px;"">Agent B","null","","","","",""
"null","","","video-keyboard-response","93","372205","0.0-93.0","zy3xcfb7","","","null","","Agent B","scrambled","STIM_SET_1/1159446.bmp_pp60_L3_V1.0_scrambled_freeview_isoFalse.mp4",""
"","","","call-function","94","372206","0.0-94.0","zy3xcfb7","","","","","","","",""
"2278.710000000021","{""judgement"":0}","[0]","survey-likert","95","374485","0.0-95.0","zy3xcfb7","","","","","","","","0"
"3522.2000000000116","{""confidence"":2}","[0]","survey-likert","96","378009","0.0-96.0","zy3xcfb7","","","","","","","",""
"","","","call-function","97","378009","0.0-97.0","zy3xcfb7","","","","","","","",""
"null","","","html-keyboard-response","98","379515","0.0-98.0","zy3xcfb7","","<span style=""color:Black; font-size:50px;"">Agent A","null","","","","",""
"null","","","video-keyboard-response","99","382597","0.0-99.0","zy3xcfb7","","","null","","Agent A","veridical","STIM_SET_1/1591954.bmp_pp62_L2_V1.0_veridical_freeview_isoFalse.mp4",""
"null","","","html-keyboard-response","100","384099","0.0-100.0","zy3xcfb7","","<span style=""color:Black; font-size:50px;"">Agent B","null","","","","",""
"null","","","video-keyboard-response","101","387180","0.0-101.0","zy3xcfb7","","","null","","Agent B","scrambled","STIM_SET_1/1591954.bmp_pp62_L2_V1.0_scrambled_freeview_isoFalse.mp4",""
"","","","call-function","102","387180","0.0-102.0","zy3xcfb7","","","","","","","",""
"1913.9199999999837","{""judgement"":1}","[0]","survey-likert","103","389095","0.0-103.0","zy3xcfb7","","","","","","","","0"
"3671.4100000000326","{""confidence"":2}","[0]","survey-likert","104","392768","0.0-104.0","zy3xcfb7","","","","","","","",""
"","","","call-function","105","392768","0.0-105.0","zy3xcfb7","","","","","","","",""
"null","","","html-keyboard-response","106","394270","0.0-106.0","zy3xcfb7","","<span style=""color:Black; font-size:50px;"">Agent A","null","","","","",""
"null","","","video-keyboard-response","107","397378","0.0-107.0","zy3xcfb7","","","null","","Agent A","veridical","STIM_SET_1/1160127.bmp_pp90_L2_V1.0_veridical_freeview_isoFalse.mp4",""
"null","","","html-keyboard-response","108","398881","0.0-108.0","zy3xcfb7","","<span style=""color:Black; font-size:50px;"">Agent B","null","","","","",""
"null","","","video-keyboard-response","109","401989","0.0-109.0","zy3xcfb7","","","null","","Agent B","scrambled","STIM_SET_1/1160127.bmp_pp90_L2_V1.0_scrambled_freeview_isoFalse.mp4",""
"","","","call-function","110","401990","0.0-110.0","zy3xcfb7","","","","","","","",""
"1986.1849999999977","{""judgement"":0}","[0]","survey-likert","111","403977","0.0-111.0","zy3xcfb7","","","","","","","","0"
"4311.235000000044","{""confidence"":3}","[0]","survey-likert","112","408289","0.0-112.0","zy3xcfb7","","","","","","","",""
"","","","call-function","113","408290","0.0-113.0","zy3xcfb7","","","","","","","",""
"null","","","html-keyboard-response","114","409791","0.0-114.0","zy3xcfb7","","<span style=""color:Black; font-size:50px;"">Agent A","null","","","","",""
"null","","","video-keyboard-response","115","412879","0.0-115.0","zy3xcfb7","","","null","","Agent A","scrambled","STIM_SET_1/1593041.bmp_pp58_L1_V1.0_scrambled_freeview_isoFalse.mp4",""
"null","","","html-keyboard-response","116","414380","0.0-116.0","zy3xcfb7","","<span style=""color:Black; font-size:50px;"">Agent B","null","","","","",""
"null","","","video-keyboard-response","117","417468","0.0-117.0","zy3xcfb7","","","null","","Agent B","veridical","STIM_SET_1/1593041.bmp_pp58_L1_V1.0_veridical_freeview_isoFalse.mp4",""
"","","","call-function","118","417468","0.0-118.0","zy3xcfb7","","","","","","","",""
"1824.9749999999767","{""judgement"":1}","[0]","survey-likert","119","419294","0.0-119.0","zy3xcfb7","","","","","","","","1"
"1883.8850000000093","{""confidence"":2}","[0]","survey-likert","120","421179","0.0-120.0","zy3xcfb7","","","","","","","",""
"","","","call-function","121","421179","0.0-121.0","zy3xcfb7","","","","","","","",""
"null","","","html-keyboard-response","122","422684","0.0-122.0","zy3xcfb7","","<span style=""color:Black; font-size:50px;"">Agent A","null","","","","",""
"null","","","video-keyboard-response","123","425755","0.0-123.0","zy3xcfb7","","","null","","Agent A","veridical","STIM_SET_1/497950.bmp_pp151_L1_V1.0_veridical_freeview_isoFalse.mp4",""
"null","","","html-keyboard-response","124","427260","0.0-124.0","zy3xcfb7","","<span style=""color:Black; font-size:50px;"">Agent B","null","","","","",""
"null","","","video-keyboard-response","125","430334","0.0-125.0","zy3xcfb7","","","null","","Agent B","scrambled","STIM_SET_1/497950.bmp_pp151_L1_V1.0_scrambled_freeview_isoFalse.mp4",""
"","","","call-function","126","430334","0.0-126.0","zy3xcfb7","","","","","","","",""
"1928.9650000000256","{""judgement"":0}","[0]","survey-likert","127","432265","0.0-127.0","zy3xcfb7","","","","","","","","0"
"3039.265000000014","{""confidence"":3}","[0]","survey-likert","128","435305","0.0-128.0","zy3xcfb7","","","","","","","",""
"","","","call-function","129","435307","0.0-129.0","zy3xcfb7","","","","","","","",""
"null","","","html-keyboard-response","130","436810","0.0-130.0","zy3xcfb7","","<span style=""color:Black; font-size:50px;"">Agent A","null","","","","",""
"null","","","video-keyboard-response","131","439877","0.0-131.0","zy3xcfb7","","","null","","Agent A","scrambled","STIM_SET_1/1159882.bmp_pp61_L2_V1.0_scrambled_freeview_isoFalse.mp4",""
"null","","","html-keyboard-response","132","441383","0.0-132.0","zy3xcfb7","","<span style=""color:Black; font-size:50px;"">Agent B","null","","","","",""
"null","","","video-keyboard-response","133","444453","0.0-133.0","zy3xcfb7","","","null","","Agent B","veridical","STIM_SET_1/1159882.bmp_pp61_L2_V1.0_veridical_freeview_isoFalse.mp4",""
"","","","call-function","134","444454","0.0-134.0","zy3xcfb7","","","","","","","",""
"2700.6999999999534","{""judgement"":1}","[0]","survey-likert","135","447155","0.0-135.0","zy3xcfb7","","","","","","","","1"
"1782.9949999999953","{""confidence"":2}","[0]","survey-likert","136","448940","0.0-136.0","zy3xcfb7","","","","","","","",""
"","","","call-function","137","448940","0.0-137.0","zy3xcfb7","","","","","","","",""
"null","","","html-keyboard-response","138","450442","0.0-138.0","zy3xcfb7","","<span style=""color:Black; font-size:50px;"">Agent A","null","","","","",""
"null","","","video-keyboard-response","139","453521","0.0-139.0","zy3xcfb7","","","null","","Agent A","scrambled","STIM_SET_1/1593146.bmp_pp93_L1_V1.0_scrambled_freeview_isoFalse.mp4",""
"null","","","html-keyboard-response","140","455024","0.0-140.0","zy3xcfb7","","<span style=""color:Black; font-size:50px;"">Agent B","null","","","","",""
"null","","","video-keyboard-response","141","458100","0.0-141.0","zy3xcfb7","","","null","","Agent B","veridical","STIM_SET_1/1593146.bmp_pp93_L1_V1.0_veridical_freeview_isoFalse.mp4",""
"","","","call-function","142","458102","0.0-142.0","zy3xcfb7","","","","","","","",""
"2362.9550000000163","{""judgement"":1}","[0]","survey-likert","143","460467","0.0-143.0","zy3xcfb7","","","","","","","","1"
"3051.819999999949","{""confidence"":1}","[0]","survey-likert","144","463521","0.0-144.0","zy3xcfb7","","","","","","","",""
"","","","call-function","145","463522","0.0-145.0","zy3xcfb7","","","","","","","",""
"null","","","html-keyboard-response","146","465024","0.0-146.0","zy3xcfb7","","<span style=""color:Black; font-size:50px;"">Agent A","null","","","","",""
"null","","","video-keyboard-response","147","468106","0.0-147.0","zy3xcfb7","","","null","","Agent A","veridical","STIM_SET_1/713017.bmp_pp152_L2_V1.0_veridical_freeview_isoFalse.mp4",""
"null","","","html-keyboard-response","148","469611","0.0-148.0","zy3xcfb7","","<span style=""color:Black; font-size:50px;"">Agent B","null","","","","",""
"null","","","video-keyboard-response","149","472687","0.0-149.0","zy3xcfb7","","","null","","Agent B","scrambled","STIM_SET_1/713017.bmp_pp152_L2_V1.0_scrambled_freeview_isoFalse.mp4",""
"","","","call-function","150","472688","0.0-150.0","zy3xcfb7","","","","","","","",""
"2047.4249999999884","{""judgement"":1}","[0]","survey-likert","151","474736","0.0-151.0","zy3xcfb7","","","","","","","","0"
"1444.2299999999814","{""confidence"":2}","[0]","survey-likert","152","476181","0.0-152.0","zy3xcfb7","","","","","","","",""
"","","","call-function","153","476182","0.0-153.0","zy3xcfb7","","","","","","","",""
"null","","","html-keyboard-response","154","477685","0.0-154.0","zy3xcfb7","","<span style=""color:Black; font-size:50px;"">Agent A","null","","","","",""
"null","","","video-keyboard-response","155","480754","0.0-155.0","zy3xcfb7","","","null","","Agent A","veridical","STIM_SET_1/713089.bmp_pp60_L3_V1.0_veridical_freeview_isoFalse.mp4",""
"null","","","html-keyboard-response","156","482257","0.0-156.0","zy3xcfb7","","<span style=""color:Black; font-size:50px;"">Agent B","null","","","","",""
"null","","","video-keyboard-response","157","485327","0.0-157.0","zy3xcfb7","","","null","","Agent B","scrambled","STIM_SET_1/713089.bmp_pp60_L3_V1.0_scrambled_freeview_isoFalse.mp4",""
"","","","call-function","158","485327","0.0-158.0","zy3xcfb7","","","","","","","",""
"2154.2200000000303","{""judgement"":0}","[0]","survey-likert","159","487482","0.0-159.0","zy3xcfb7","","","","","","","","0"
"4448.044999999984","{""confidence"":3}","[0]","survey-likert","160","491932","0.0-160.0","zy3xcfb7","","","","","","","",""
"","","","call-function","161","491932","0.0-161.0","zy3xcfb7","","","","","","","",""
"null","","","html-keyboard-response","162","493438","0.0-162.0","zy3xcfb7","","<span style=""color:Black; font-size:50px;"">Agent A","null","","","","",""
"null","","","video-keyboard-response","163","496556","0.0-163.0","zy3xcfb7","","","null","","Agent A","veridical","STIM_SET_1/713211.bmp_pp100_L3_V1.0_veridical_freeview_isoFalse.mp4",""
"null","","","html-keyboard-response","164","498061","0.0-164.0","zy3xcfb7","","<span style=""color:Black; font-size:50px;"">Agent B","null","","","","",""
"null","","","video-keyboard-response","165","501181","0.0-165.0","zy3xcfb7","","","null","","Agent B","scrambled","STIM_SET_1/713211.bmp_pp100_L3_V1.0_scrambled_freeview_isoFalse.mp4",""
"","","","call-function","166","501181","0.0-166.0","zy3xcfb7","","","","","","","",""
"3652.6350000000093","{""judgement"":1}","[0]","survey-likert","167","504835","0.0-167.0","zy3xcfb7","","","","","","","","0"
"1744.539999999979","{""confidence"":0}","[0]","survey-likert","168","506581","0.0-168.0","zy3xcfb7","","","","","","","",""
"12546.965000000026","","","instructions","169","519128","0.0-169.0","zy3xcfb7","[{""page_index"":0,""viewing_time"":3317.835000000021},{""page_index"":1,""viewing_time"":8535.940000000002},{""page_index"":2,""viewing_time"":693.0299999999697}]","","","","","","",""
"3137.429999999993","","","instructions","170","522266","0.0-170.0","zy3xcfb7","[{""page_index"":0,""viewing_time"":707.4199999999837},{""page_index"":1,""viewing_time"":1703.8850000000093},{""page_index"":2,""viewing_time"":726.0200000000186}]","","","","","","",""
"","","","call-function","171","522266","0.0-171.0","zy3xcfb7","","","","","","","",""
"null","","","html-keyboard-response","172","523767","0.0-172.0","zy3xcfb7","","<span style=""color:Black; font-size:50px;"">Agent A","null","","","","",""
"null","","","video-keyboard-response","173","526883","0.0-173.0","zy3xcfb7","","","null","","Agent A","veridical","STIM_SET_1/1159621.bmp_pp92_L3_V1.0_veridical_freeview_isoFalse.mp4",""
"null","","","html-keyboard-response","174","528388","0.0-174.0","zy3xcfb7","","<span style=""color:Black; font-size:50px;"">Agent B","null","","","","",""
"null","","","video-keyboard-response","175","531458","0.0-175.0","zy3xcfb7","","","null","","Agent B","scrambled","STIM_SET_1/1159621.bmp_pp92_L3_V1.0_scrambled_freeview_isoFalse.mp4",""
"","","","call-function","176","531459","0.0-176.0","zy3xcfb7","","","","","","","",""
"2672.42499999993","{""judgement"":0}","[0]","survey-likert","177","534132","0.0-177.0","zy3xcfb7","","","","","","","","0"
"1275.4250000000466","{""confidence"":0}","[0]","survey-likert","178","535409","0.0-178.0","zy3xcfb7","","","","","","","",""
"","","","call-function","179","535409","0.0-179.0","zy3xcfb7","","","","","","","",""
"null","","","html-keyboard-response","180","536916","0.0-180.0","zy3xcfb7","","<span style=""color:Black; font-size:50px;"">Agent A","null","","","","",""
"null","","","video-keyboard-response","181","539996","0.0-181.0","zy3xcfb7","","","null","","Agent A","scrambled","STIM_SET_1/713749.bmp_pp88_L2_V1.0_scrambled_freeview_isoFalse.mp4",""
"null","","","html-keyboard-response","182","541499","0.0-182.0","zy3xcfb7","","<span style=""color:Black; font-size:50px;"">Agent B","null","","","","",""
"null","","","video-keyboard-response","183","544580","0.0-183.0","zy3xcfb7","","","null","","Agent B","veridical","STIM_SET_1/713749.bmp_pp88_L2_V1.0_veridical_freeview_isoFalse.mp4",""
"","","","call-function","184","544581","0.0-184.0","zy3xcfb7","","","","","","","",""
"2295.984999999986","{""judgement"":0}","[0]","survey-likert","185","546878","0.0-185.0","zy3xcfb7","","","","","","","","1"
"2800.1900000000605","{""confidence"":0}","[0]","survey-likert","186","549679","0.0-186.0","zy3xcfb7","","","","","","","",""
"","","","call-function","187","549679","0.0-187.0","zy3xcfb7","","","","","","","",""
"null","","","html-keyboard-response","188","551186","0.0-188.0","zy3xcfb7","","<span style=""color:Black; font-size:50px;"">Agent A","null","","","","",""
"null","","","video-keyboard-response","189","554257","0.0-189.0","zy3xcfb7","","","null","","Agent A","veridical","STIM_SET_1/1159829.bmp_pp91_L3_V1.0_veridical_freeview_isoFalse.mp4",""
"null","","","html-keyboard-response","190","555762","0.0-190.0","zy3xcfb7","","<span style=""color:Black; font-size:50px;"">Agent B","null","","","","",""
"null","","","video-keyboard-response","191","558868","0.0-191.0","zy3xcfb7","","","null","","Agent B","scrambled","STIM_SET_1/1159829.bmp_pp91_L3_V1.0_scrambled_freeview_isoFalse.mp4",""
"","","","call-function","192","558869","0.0-192.0","zy3xcfb7","","","","","","","",""
"2227.1300000000047","{""judgement"":1}","[0]","survey-likert","193","561097","0.0-193.0","zy3xcfb7","","","","","","","","0"
"1912.6199999999953","{""confidence"":1}","[0]","survey-likert","194","563011","0.0-194.0","zy3xcfb7","","","","","","","",""
"","","","call-function","195","563011","0.0-195.0","zy3xcfb7","","","","","","","",""
"null","","","html-keyboard-response","196","564517","0.0-196.0","zy3xcfb7","","<span style=""color:Black; font-size:50px;"">Agent A","null","","","","",""
"null","","","video-keyboard-response","197","567636","0.0-197.0","zy3xcfb7","","","null","","Agent A","veridical","STIM_SET_1/1592372.bmp_pp76_L1_V1.0_veridical_freeview_isoFalse.mp4",""
"null","","","html-keyboard-response","198","569143","0.0-198.0","zy3xcfb7","","<span style=""color:Black; font-size:50px;"">Agent B","null","","","","",""
"null","","","video-keyboard-response","199","572268","0.0-199.0","zy3xcfb7","","","null","","Agent B","scrambled","STIM_SET_1/1592372.bmp_pp76_L1_V1.0_scrambled_freeview_isoFalse.mp4",""
"","","","call-function","200","572269","0.0-200.0","zy3xcfb7","","","","","","","",""
"2257.429999999935","{""judgement"":0}","[0]","survey-likert","201","574528","0.0-201.0","zy3xcfb7","","","","","","","","0"
"2061.780000000028","{""confidence"":2}","[0]","survey-likert","202","576591","0.0-202.0","zy3xcfb7","","","","","","","",""
"","","","call-function","203","576592","0.0-203.0","zy3xcfb7","","","","","","","",""
"null","","","html-keyboard-response","204","578093","0.0-204.0","zy3xcfb7","","<span style=""color:Black; font-size:50px;"">Agent A","null","","","","",""
"null","","","video-keyboard-response","205","581173","0.0-205.0","zy3xcfb7","","","null","","Agent A","scrambled","STIM_SET_1/498175.bmp_pp154_L1_V1.0_scrambled_freeview_isoFalse.mp4",""
"null","","","html-keyboard-response","206","582678","0.0-206.0","zy3xcfb7","","<span style=""color:Black; font-size:50px;"">Agent B","null","","","","",""
"null","","","video-keyboard-response","207","585760","0.0-207.0","zy3xcfb7","","","null","","Agent B","veridical","STIM_SET_1/498175.bmp_pp154_L1_V1.0_veridical_freeview_isoFalse.mp4",""
"","","","call-function","208","585760","0.0-208.0","zy3xcfb7","","","","","","","",""
"3728.594999999972","{""judgement"":1}","[0]","survey-likert","209","589490","0.0-209.0","zy3xcfb7","","","","","","","","1"
"2482.530000000028","{""confidence"":0}","[0]","survey-likert","210","591974","0.0-210.0","zy3xcfb7","","","","","","","",""
"","","","call-function","211","591975","0.0-211.0","zy3xcfb7","","","","","","","",""
"null","","","html-keyboard-response","212","593480","0.0-212.0","zy3xcfb7","","<span style=""color:Black; font-size:50px;"">Agent A","null","","","","",""
"null","","","video-keyboard-response","213","596559","0.0-213.0","zy3xcfb7","","","null","","Agent A","scrambled","STIM_SET_1/1159855.bmp_pp99_L2_V1.0_scrambled_freeview_isoFalse.mp4",""
"null","","","html-keyboard-response","214","598065","0.0-214.0","zy3xcfb7","","<span style=""color:Black; font-size:50px;"">Agent B","null","","","","",""
"null","","","video-keyboard-response","215","601144","0.0-215.0","zy3xcfb7","","","null","","Agent B","veridical","STIM_SET_1/1159855.bmp_pp99_L2_V1.0_veridical_freeview_isoFalse.mp4",""
"","","","call-function","216","601145","0.0-216.0","zy3xcfb7","","","","","","","",""
"2276.6500000000233","{""judgement"":1}","[0]","survey-likert","217","603422","0.0-217.0","zy3xcfb7","","","","","","","","1"
"1707.6199999999953","{""confidence"":3}","[0]","survey-likert","218","605131","0.0-218.0","zy3xcfb7","","","","","","","",""
"","","","call-function","219","605132","0.0-219.0","zy3xcfb7","","","","","","","",""
"null","","","html-keyboard-response","220","606633","0.0-220.0","zy3xcfb7","","<span style=""color:Black; font-size:50px;"">Agent A","null","","","","",""
"null","","","video-keyboard-response","221","609717","0.0-221.0","zy3xcfb7","","","null","","Agent A","scrambled","STIM_SET_1/1159675.bmp_pp77_L3_V1.0_scrambled_freeview_isoFalse.mp4",""
"null","","","html-keyboard-response","222","611221","0.0-222.0","zy3xcfb7","","<span style=""color:Black; font-size:50px;"">Agent B","null","","","","",""
"null","","","video-keyboard-response","223","614302","0.0-223.0","zy3xcfb7","","","null","","Agent B","veridical","STIM_SET_1/1159675.bmp_pp77_L3_V1.0_veridical_freeview_isoFalse.mp4",""
"","","","call-function","224","614303","0.0-224.0","zy3xcfb7","","","","","","","",""
"2419.2399999999907","{""judgement"":1}","[0]","survey-likert","225","616723","0.0-225.0","zy3xcfb7","","","","","","","","1"
"1537.7150000000838","{""confidence"":0}","[0]","survey-likert","226","618262","0.0-226.0","zy3xcfb7","","","","","","","",""
"","","","call-function","227","618263","0.0-227.0","zy3xcfb7","","","","","","","",""
"null","","","html-keyboard-response","228","619767","0.0-228.0","zy3xcfb7","","<span style=""color:Black; font-size:50px;"">Agent A","null","","","","",""
"null","","","video-keyboard-response","229","622879","0.0-229.0","zy3xcfb7","","","null","","Agent A","scrambled","STIM_SET_1/1159768.bmp_pp89_L1_V1.0_scrambled_freeview_isoFalse.mp4",""
"null","","","html-keyboard-response","230","624381","0.0-230.0","zy3xcfb7","","<span style=""color:Black; font-size:50px;"">Agent B","null","","","","",""
"null","","","video-keyboard-response","231","627494","0.0-231.0","zy3xcfb7","","","null","","Agent B","veridical","STIM_SET_1/1159768.bmp_pp89_L1_V1.0_veridical_freeview_isoFalse.mp4",""
"","","","call-function","232","627494","0.0-232.0","zy3xcfb7","","","","","","","",""
"2162.6450000000186","{""judgement"":1}","[0]","survey-likert","233","629658","0.0-233.0","zy3xcfb7","","","","","","","","1"
"2461.515000000014","{""confidence"":2}","[0]","survey-likert","234","632121","0.0-234.0","zy3xcfb7","","","","","","","",""
"","","","call-function","235","632121","0.0-235.0","zy3xcfb7","","","","","","","",""
"null","","","html-keyboard-response","236","633622","0.0-236.0","zy3xcfb7","","<span style=""color:Black; font-size:50px;"">Agent A","null","","","","",""
"null","","","video-keyboard-response","237","636729","0.0-237.0","zy3xcfb7","","","null","","Agent A","veridical","STIM_SET_1/713796.bmp_pp84_L3_V1.0_veridical_freeview_isoFalse.mp4",""
"null","","","html-keyboard-response","238","638234","0.0-238.0","zy3xcfb7","","<span style=""color:Black; font-size:50px;"">Agent B","null","","","","",""
"null","","","video-keyboard-response","239","641340","0.0-239.0","zy3xcfb7","","","null","","Agent B","scrambled","STIM_SET_1/713796.bmp_pp84_L3_V1.0_scrambled_freeview_isoFalse.mp4",""
"","","","call-function","240","641341","0.0-240.0","zy3xcfb7","","","","","","","",""
"1680.2099999999627","{""judgement"":1}","[0]","survey-likert","241","643022","0.0-241.0","zy3xcfb7","","","","","","","","0"
"2384.9799999999814","{""confidence"":3}","[0]","survey-likert","242","645408","0.0-242.0","zy3xcfb7","","","","","","","",""
"","","","call-function","243","645409","0.0-243.0","zy3xcfb7","","","","","","","",""
"null","","","html-keyboard-response","244","646913","0.0-244.0","zy3xcfb7","","<span style=""color:Black; font-size:50px;"">Agent A","null","","","","",""
"null","","","video-keyboard-response","245","649991","0.0-245.0","zy3xcfb7","","","null","","Agent A","veridical","STIM_SET_1/713620.bmp_pp65_L3_V1.0_veridical_freeview_isoFalse.mp4",""
"null","","","html-keyboard-response","246","651493","0.0-246.0","zy3xcfb7","","<span style=""color:Black; font-size:50px;"">Agent B","null","","","","",""
"null","","","video-keyboard-response","247","654573","0.0-247.0","zy3xcfb7","","","null","","Agent B","scrambled","STIM_SET_1/713620.bmp_pp65_L3_V1.0_scrambled_freeview_isoFalse.mp4",""
"","","","call-function","248","654574","0.0-248.0","zy3xcfb7","","","","","","","",""
"3390.3349999999627","{""judgement"":0}","[0]","survey-likert","249","657965","0.0-249.0","zy3xcfb7","","","","","","","","0"
"1878.3199999999488","{""confidence"":1}","[0]","survey-likert","250","659845","0.0-250.0","zy3xcfb7","","","","","","","",""
"35931.04000000004","","","instructions","251","695776","0.0-251.0","zy3xcfb7","[{""page_index"":0,""viewing_time"":1124.125},{""page_index"":1,""viewing_time"":24531.734999999986},{""page_index"":2,""viewing_time"":10275.015000000014}]","","","","","","",""
"2986.5200000000186","","","instructions","252","698763","0.0-252.0","zy3xcfb7","[{""page_index"":0,""viewing_time"":842.3499999999767},{""page_index"":1,""viewing_time"":1478.045000000042},{""page_index"":2,""viewing_time"":666.0200000000186}]","","","","","","",""
"","","","call-function","253","698764","0.0-253.0","zy3xcfb7","","","","","","","",""
"null","","","html-keyboard-response","254","700268","0.0-254.0","zy3xcfb7","","<span style=""color:Black; font-size:50px;"">Agent A","null","","","","",""
"null","","","video-keyboard-response","255","703338","0.0-255.0","zy3xcfb7","","","null","","Agent A","veridical","STIM_SET_1/1592351.bmp_pp51_L1_V1.0_veridical_freeview_isoFalse.mp4",""
"null","","","html-keyboard-response","256","704844","0.0-256.0","zy3xcfb7","","<span style=""color:Black; font-size:50px;"">Agent B","null","","","","",""
"null","","","video-keyboard-response","257","707913","0.0-257.0","zy3xcfb7","","","null","","Agent B","scrambled","STIM_SET_1/1592351.bmp_pp51_L1_V1.0_scrambled_freeview_isoFalse.mp4",""
"","","","call-function","258","707914","0.0-258.0","zy3xcfb7","","","","","","","",""
"1697.6149999999907","{""judgement"":0}","[0]","survey-likert","259","709614","0.0-259.0","zy3xcfb7","","","","","","","","0"
"2076.4899999999907","{""confidence"":2}","[0]","survey-likert","260","711692","0.0-260.0","zy3xcfb7","","","","","","","",""
"","","","call-function","261","711692","0.0-261.0","zy3xcfb7","","","","","","","",""
"null","","","html-keyboard-response","262","713197","0.0-262.0","zy3xcfb7","","<span style=""color:Black; font-size:50px;"">Agent A","null","","","","",""
"null","","","video-keyboard-response","263","716280","0.0-263.0","zy3xcfb7","","","null","","Agent A","scrambled","STIM_SET_1/61537.bmp_pp73_L3_V1.0_scrambled_freeview_isoFalse.mp4",""
"null","","","html-keyboard-response","264","717783","0.0-264.0","zy3xcfb7","","<span style=""color:Black; font-size:50px;"">Agent B","null","","","","",""
"null","","","video-keyboard-response","265","720864","0.0-265.0","zy3xcfb7","","","null","","Agent B","veridical","STIM_SET_1/61537.bmp_pp73_L3_V1.0_veridical_freeview_isoFalse.mp4",""
"","","","call-function","266","720865","0.0-266.0","zy3xcfb7","","","","","","","",""
"2007.734999999986","{""judgement"":1}","[0]","survey-likert","267","722874","0.0-267.0","zy3xcfb7","","","","","","","","1"
"2511.435000000056","{""confidence"":1}","[0]","survey-likert","268","725387","0.0-268.0","zy3xcfb7","","","","","","","",""
"","","","call-function","269","725388","0.0-269.0","zy3xcfb7","","","","","","","",""
"null","","","html-keyboard-response","270","726892","0.0-270.0","zy3xcfb7","","<span style=""color:Black; font-size:50px;"">Agent A","null","","","","",""
"null","","","video-keyboard-response","271","729961","0.0-271.0","zy3xcfb7","","","null","","Agent A","scrambled","STIM_SET_1/1592817.bmp_pp55_L3_V1.0_scrambled_freeview_isoFalse.mp4",""
"null","","","html-keyboard-response","272","731467","0.0-272.0","zy3xcfb7","","<span style=""color:Black; font-size:50px;"">Agent B","null","","","","",""
"null","","","video-keyboard-response","273","734535","0.0-273.0","zy3xcfb7","","","null","","Agent B","veridical","STIM_SET_1/1592817.bmp_pp55_L3_V1.0_veridical_freeview_isoFalse.mp4",""
"","","","call-function","274","734536","0.0-274.0","zy3xcfb7","","","","","","","",""
"2980.340000000084","{""judgement"":1}","[0]","survey-likert","275","737517","0.0-275.0","zy3xcfb7","","","","","","","","1"
"1522.844999999972","{""confidence"":2}","[0]","survey-likert","276","739041","0.0-276.0","zy3xcfb7","","","","","","","",""
"","","","call-function","277","739042","0.0-277.0","zy3xcfb7","","","","","","","",""
"null","","","html-keyboard-response","278","740544","0.0-278.0","zy3xcfb7","","<span style=""color:Black; font-size:50px;"">Agent A","null","","","","",""
"null","","","video-keyboard-response","279","743670","0.0-279.0","zy3xcfb7","","","null","","Agent A","veridical","STIM_SET_1/713707.bmp_pp154_L1_V1.0_veridical_freeview_isoFalse.mp4",""
"null","","","html-keyboard-response","280","745176","0.0-280.0","zy3xcfb7","","<span style=""color:Black; font-size:50px;"">Agent B","null","","","","",""
"null","","","video-keyboard-response","281","748304","0.0-281.0","zy3xcfb7","","","null","","Agent B","scrambled","STIM_SET_1/713707.bmp_pp154_L1_V1.0_scrambled_freeview_isoFalse.mp4",""
"","","","call-function","282","748305","0.0-282.0","zy3xcfb7","","","","","","","",""
"1939.3149999999441","{""judgement"":0}","[0]","survey-likert","283","750245","0.0-283.0","zy3xcfb7","","","","","","","","0"
"3237.769999999902","{""confidence"":0}","[0]","survey-likert","284","753484","0.0-284.0","zy3xcfb7","","","","","","","",""
"","","","call-function","285","753485","0.0-285.0","zy3xcfb7","","","","","","","",""
"null","","","html-keyboard-response","286","754985","0.0-286.0","zy3xcfb7","","<span style=""color:Black; font-size:50px;"">Agent A","null","","","","",""
"null","","","video-keyboard-response","287","758099","0.0-287.0","zy3xcfb7","","","null","","Agent A","scrambled","STIM_SET_1/285933.bmp_pp81_L1_V1.0_scrambled_freeview_isoFalse.mp4",""
"null","","","html-keyboard-response","288","759606","0.0-288.0","zy3xcfb7","","<span style=""color:Black; font-size:50px;"">Agent B","null","","","","",""
"null","","","video-keyboard-response","289","762723","0.0-289.0","zy3xcfb7","","","null","","Agent B","veridical","STIM_SET_1/285933.bmp_pp81_L1_V1.0_veridical_freeview_isoFalse.mp4",""
"","","","call-function","290","762723","0.0-290.0","zy3xcfb7","","","","","","","",""
"1892.8499999999767","{""judgement"":1}","[0]","survey-likert","291","764617","0.0-291.0","zy3xcfb7","","","","","","","","1"
"1570.5899999999674","{""confidence"":3}","[0]","survey-likert","292","766189","0.0-292.0","zy3xcfb7","","","","","","","",""
"","","","call-function","293","766189","0.0-293.0","zy3xcfb7","","","","","","","",""
"null","","","html-keyboard-response","294","767691","0.0-294.0","zy3xcfb7","","<span style=""color:Black; font-size:50px;"">Agent A","null","","","","",""
"null","","","video-keyboard-response","295","770793","0.0-295.0","zy3xcfb7","","","null","","Agent A","scrambled","STIM_SET_1/1159813.bmp_pp79_L2_V1.0_scrambled_freeview_isoFalse.mp4",""
"null","","","html-keyboard-response","296","772296","0.0-296.0","zy3xcfb7","","<span style=""color:Black; font-size:50px;"">Agent B","null","","","","",""
"null","","","video-keyboard-response","297","775400","0.0-297.0","zy3xcfb7","","","null","","Agent B","veridical","STIM_SET_1/1159813.bmp_pp79_L2_V1.0_veridical_freeview_isoFalse.mp4",""
"","","","call-function","298","775401","0.0-298.0","zy3xcfb7","","","","","","","",""
"2094.5849999999627","{""judgement"":0}","[0]","survey-likert","299","777496","0.0-299.0","zy3xcfb7","","","","","","","","1"
"1846.9649999999674","{""confidence"":2}","[0]","survey-likert","300","779345","0.0-300.0","zy3xcfb7","","","","","","","",""
"","","","call-function","301","779345","0.0-301.0","zy3xcfb7","","","","","","","",""
"null","","","html-keyboard-response","302","780848","0.0-302.0","zy3xcfb7","","<span style=""color:Black; font-size:50px;"">Agent A","null","","","","",""
"null","","","video-keyboard-response","303","783923","0.0-303.0","zy3xcfb7","","","null","","Agent A","veridical","STIM_SET_1/713513.bmp_pp62_L2_V1.0_veridical_freeview_isoFalse.mp4",""
"null","","","html-keyboard-response","304","785426","0.0-304.0","zy3xcfb7","","<span style=""color:Black; font-size:50px;"">Agent B","null","","","","",""
"null","","","video-keyboard-response","305","788499","0.0-305.0","zy3xcfb7","","","null","","Agent B","scrambled","STIM_SET_1/713513.bmp_pp62_L2_V1.0_scrambled_freeview_isoFalse.mp4",""
"","","","call-function","306","788499","0.0-306.0","zy3xcfb7","","","","","","","",""
"1804.140000000014","{""judgement"":1}","[0]","survey-likert","307","790304","0.0-307.0","zy3xcfb7","","","","","","","","0"
"2597.3000000000466","{""confidence"":1}","[0]","survey-likert","308","792903","0.0-308.0","zy3xcfb7","","","","","","","",""
"","","","call-function","309","792903","0.0-309.0","zy3xcfb7","","","","","","","",""
"null","","","html-keyboard-response","310","794408","0.0-310.0","zy3xcfb7","","<span style=""color:Black; font-size:50px;"">Agent A","null","","","","",""
"null","","","video-keyboard-response","311","797476","0.0-311.0","zy3xcfb7","","","null","","Agent A","veridical","STIM_SET_1/713135.bmp_pp54_L2_V1.0_veridical_freeview_isoFalse.mp4",""
"null","","","html-keyboard-response","312","798979","0.0-312.0","zy3xcfb7","","<span style=""color:Black; font-size:50px;"">Agent B","null","","","","",""
"null","","","video-keyboard-response","313","802049","0.0-313.0","zy3xcfb7","","","null","","Agent B","scrambled","STIM_SET_1/713135.bmp_pp54_L2_V1.0_scrambled_freeview_isoFalse.mp4",""
"","","","call-function","314","802050","0.0-314.0","zy3xcfb7","","","","","","","",""
"3697.560000000056","{""judgement"":0}","[0]","survey-likert","315","805749","0.0-315.0","zy3xcfb7","","","","","","","","0"
"1274.1750000000466","{""confidence"":2}","[0]","survey-likert","316","807024","0.0-316.0","zy3xcfb7","","","","","","","",""
"","","","call-function","317","807025","0.0-317.0","zy3xcfb7","","","","","","","",""
"null","","","html-keyboard-response","318","808528","0.0-318.0","zy3xcfb7","","<span style=""color:Black; font-size:50px;"">Agent A","null","","","","",""
"null","","","video-keyboard-response","319","811647","0.0-319.0","zy3xcfb7","","","null","","Agent A","scrambled","STIM_SET_1/1592807.bmp_pp68_L1_V1.0_scrambled_freeview_isoFalse.mp4",""
"null","","","html-keyboard-response","320","813151","0.0-320.0","zy3xcfb7","","<span style=""color:Black; font-size:50px;"">Agent B","null","","","","",""
"null","","","video-keyboard-response","321","816269","0.0-321.0","zy3xcfb7","","","null","","Agent B","veridical","STIM_SET_1/1592807.bmp_pp68_L1_V1.0_veridical_freeview_isoFalse.mp4",""
"","","","call-function","322","816269","0.0-322.0","zy3xcfb7","","","","","","","",""
"5488.729999999981","{""judgement"":1}","[0]","survey-likert","323","821759","0.0-323.0","zy3xcfb7","","","","","","","","1"
"2379.420000000042","{""confidence"":0}","[0]","survey-likert","324","824139","0.0-324.0","zy3xcfb7","","","","","","","",""
"","","","call-function","325","824140","0.0-325.0","zy3xcfb7","","","","","","","",""
"null","","","html-keyboard-response","326","825643","0.0-326.0","zy3xcfb7","","<span style=""color:Black; font-size:50px;"">Agent A","null","","","","",""
"null","","","video-keyboard-response","327","828753","0.0-327.0","zy3xcfb7","","","null","","Agent A","scrambled","STIM_SET_1/1159572.bmp_pp71_L1_V1.0_scrambled_freeview_isoFalse.mp4",""
"null","","","html-keyboard-response","328","830256","0.0-328.0","zy3xcfb7","","<span style=""color:Black; font-size:50px;"">Agent B","null","","","","",""
"null","","","video-keyboard-response","329","833325","0.0-329.0","zy3xcfb7","","","null","","Agent B","veridical","STIM_SET_1/1159572.bmp_pp71_L1_V1.0_veridical_freeview_isoFalse.mp4",""
"","","","call-function","330","833327","0.0-330.0","zy3xcfb7","","","","","","","",""
"4282.960000000079","{""judgement"":1}","[0]","survey-likert","331","837611","0.0-331.0","zy3xcfb7","","","","","","","","1"
"1716.1599999999162","{""confidence"":2}","[0]","survey-likert","332","839329","0.0-332.0","zy3xcfb7","","","","","","","",""
"11038.354999999981","","","instructions","333","850368","0.0-333.0","zy3xcfb7","[{""page_index"":0,""viewing_time"":1194.344999999972},{""page_index"":1,""viewing_time"":8785.88500000001},{""page_index"":2,""viewing_time"":1057.969999999972}]","","","","","","",""
"2465.314999999944","","","instructions","334","852834","0.0-334.0","zy3xcfb7","[{""page_index"":0,""viewing_time"":581.3499999999767},{""page_index"":1,""viewing_time"":1202.9250000000466},{""page_index"":2,""viewing_time"":680.9349999999395}]","","","","","","",""
"","","","call-function","335","852834","0.0-335.0","zy3xcfb7","","","","","","","",""
"null","","","html-keyboard-response","336","854337","0.0-336.0","zy3xcfb7","","<span style=""color:Black; font-size:50px;"">Agent A","null","","","","",""
"null","","","video-keyboard-response","337","857414","0.0-337.0","zy3xcfb7","","","null","","Agent A","scrambled","STIM_SET_1/1591994.bmp_pp69_L3_V1.0_scrambled_freeview_isoFalse.mp4",""
"null","","","html-keyboard-response","338","858918","0.0-338.0","zy3xcfb7","","<span style=""color:Black; font-size:50px;"">Agent B","null","","","","",""
"null","","","video-keyboard-response","339","862000","0.0-339.0","zy3xcfb7","","","null","","Agent B","veridical","STIM_SET_1/1591994.bmp_pp69_L3_V1.0_veridical_freeview_isoFalse.mp4",""
"","","","call-function","340","862001","0.0-340.0","zy3xcfb7","","","","","","","",""
"2063.319999999949","{""judgement"":0}","[0]","survey-likert","341","864065","0.0-341.0","zy3xcfb7","","","","","","","","1"
"2133.4250000000466","{""confidence"":3}","[0]","survey-likert","342","866200","0.0-342.0","zy3xcfb7","","","","","","","",""
"","","","call-function","343","866201","0.0-343.0","zy3xcfb7","","","","","","","",""
"null","","","html-keyboard-response","344","867704","0.0-344.0","zy3xcfb7","","<span style=""color:Black; font-size:50px;"">Agent A","null","","","","",""
"null","","","video-keyboard-response","345","870784","0.0-345.0","zy3xcfb7","","","null","","Agent A","veridical","STIM_SET_1/713593.bmp_pp64_L1_V1.0_veridical_freeview_isoFalse.mp4",""
"null","","","html-keyboard-response","346","872286","0.0-346.0","zy3xcfb7","","<span style=""color:Black; font-size:50px;"">Agent B","null","","","","",""
"null","","","video-keyboard-response","347","875401","0.0-347.0","zy3xcfb7","","","null","","Agent B","scrambled","STIM_SET_1/713593.bmp_pp64_L1_V1.0_scrambled_freeview_isoFalse.mp4",""
"","","","call-function","348","875401","0.0-348.0","zy3xcfb7","","","","","","","",""
"1504.5149999998976","{""judgement"":1}","[0]","survey-likert","349","876906","0.0-349.0","zy3xcfb7","","","","","","","","0"
"1526.1149999999907","{""confidence"":3}","[0]","survey-likert","350","878434","0.0-350.0","zy3xcfb7","","","","","","","",""
"","","","call-function","351","878434","0.0-351.0","zy3xcfb7","","","","","","","",""
"null","","","html-keyboard-response","352","879937","0.0-352.0","zy3xcfb7","","<span style=""color:Black; font-size:50px;"">Agent A","null","","","","",""
"null","","","video-keyboard-response","353","883062","0.0-353.0","zy3xcfb7","","","null","","Agent A","scrambled","STIM_SET_1/713666.bmp_pp97_L3_V1.0_scrambled_freeview_isoFalse.mp4",""
"null","","","html-keyboard-response","354","884564","0.0-354.0","zy3xcfb7","","<span style=""color:Black; font-size:50px;"">Agent B","null","","","","",""
"null","","","video-keyboard-response","355","887687","0.0-355.0","zy3xcfb7","","","null","","Agent B","veridical","STIM_SET_1/713666.bmp_pp97_L3_V1.0_veridical_freeview_isoFalse.mp4",""
"","","","call-function","356","887688","0.0-356.0","zy3xcfb7","","","","","","","",""
"2475.9749999999767","{""judgement"":1}","[0]","survey-likert","357","890165","0.0-357.0","zy3xcfb7","","","","","","","","1"
"2557.715000000084","{""confidence"":1}","[0]","survey-likert","358","892724","0.0-358.0","zy3xcfb7","","","","","","","",""
"","","","call-function","359","892724","0.0-359.0","zy3xcfb7","","","","","","","",""
"null","","","html-keyboard-response","360","894229","0.0-360.0","zy3xcfb7","","<span style=""color:Black; font-size:50px;"">Agent A","null","","","","",""
"null","","","video-keyboard-response","361","897306","0.0-361.0","zy3xcfb7","","","null","","Agent A","scrambled","STIM_SET_1/1592657.bmp_pp98_L1_V1.0_scrambled_freeview_isoFalse.mp4",""
"null","","","html-keyboard-response","362","898809","0.0-362.0","zy3xcfb7","","<span style=""color:Black; font-size:50px;"">Agent B","null","","","","",""
"null","","","video-keyboard-response","363","901931","0.0-363.0","zy3xcfb7","","","null","","Agent B","veridical","STIM_SET_1/1592657.bmp_pp98_L1_V1.0_veridical_freeview_isoFalse.mp4",""
"","","","call-function","364","901932","0.0-364.0","zy3xcfb7","","","","","","","",""
"2505.314999999944","{""judgement"":0}","[0]","survey-likert","365","904438","0.0-365.0","zy3xcfb7","","","","","","","","1"
"3442.430000000051","{""confidence"":3}","[0]","survey-likert","366","907881","0.0-366.0","zy3xcfb7","","","","","","","",""
"","","","call-function","367","907882","0.0-367.0","zy3xcfb7","","","","","","","",""
"null","","","html-keyboard-response","368","909386","0.0-368.0","zy3xcfb7","","<span style=""color:Black; font-size:50px;"">Agent A","null","","","","",""
"null","","","video-keyboard-response","369","912478","0.0-369.0","zy3xcfb7","","","null","","Agent A","scrambled","STIM_SET_1/713684.bmp_pp85_L3_V1.0_scrambled_freeview_isoFalse.mp4",""
"null","","","html-keyboard-response","370","913984","0.0-370.0","zy3xcfb7","","<span style=""color:Black; font-size:50px;"">Agent B","null","","","","",""
"null","","","video-keyboard-response","371","917080","0.0-371.0","zy3xcfb7","","","null","","Agent B","veridical","STIM_SET_1/713684.bmp_pp85_L3_V1.0_veridical_freeview_isoFalse.mp4",""
"","","","call-function","372","917081","0.0-372.0","zy3xcfb7","","","","","","","",""
"2049.9550000000745","{""judgement"":0}","[0]","survey-likert","373","919132","0.0-373.0","zy3xcfb7","","","","","","","","1"
"2994.4949999999953","{""confidence"":2}","[0]","survey-likert","374","922127","0.0-374.0","zy3xcfb7","","","","","","","",""
"","","","call-function","375","922128","0.0-375.0","zy3xcfb7","","","","","","","",""
"null","","","html-keyboard-response","376","923631","0.0-376.0","zy3xcfb7","","<span style=""color:Black; font-size:50px;"">Agent A","null","","","","",""
"null","","","video-keyboard-response","377","926699","0.0-377.0","zy3xcfb7","","","null","","Agent A","veridical","STIM_SET_1/498170.bmp_pp153_L3_V1.0_veridical_freeview_isoFalse.mp4",""
"null","","","html-keyboard-response","378","928207","0.0-378.0","zy3xcfb7","","<span style=""color:Black; font-size:50px;"">Agent B","null","","","","",""
"null","","","video-keyboard-response","379","936779","0.0-379.0","zy3xcfb7","","","null","","Agent B","scrambled","STIM_SET_1/498170.bmp_pp153_L3_V1.0_scrambled_freeview_isoFalse.mp4",""
"","","","call-function","380","936780","0.0-380.0","zy3xcfb7","","","","","","","",""
"2226.9649999999674","{""judgement"":1}","[0]","survey-likert","381","939009","0.0-381.0","zy3xcfb7","","","","","","","","0"
"2763.6600000000326","{""confidence"":3}","[0]","survey-likert","382","941774","0.0-382.0","zy3xcfb7","","","","","","","",""
"","","","call-function","383","941775","0.0-383.0","zy3xcfb7","","","","","","","",""
"null","","","html-keyboard-response","384","943277","0.0-384.0","zy3xcfb7","","<span style=""color:Black; font-size:50px;"">Agent A","null","","","","",""
"null","","","video-keyboard-response","385","946351","0.0-385.0","zy3xcfb7","","","null","","Agent A","veridical","STIM_SET_1/1592727.bmp_pp59_L3_V1.0_veridical_freeview_isoFalse.mp4",""
"null","","","html-keyboard-response","386","947853","0.0-386.0","zy3xcfb7","","<span style=""color:Black; font-size:50px;"">Agent B","null","","","","",""
"null","","","video-keyboard-response","387","950922","0.0-387.0","zy3xcfb7","","","null","","Agent B","scrambled","STIM_SET_1/1592727.bmp_pp59_L3_V1.0_scrambled_freeview_isoFalse.mp4",""
"","","","call-function","388","950922","0.0-388.0","zy3xcfb7","","","","","","","",""
"2997.329999999958","{""judgement"":1}","[0]","survey-likert","389","953921","0.0-389.0","zy3xcfb7","","","","","","","","0"
"1713.3499999999767","{""confidence"":2}","[0]","survey-likert","390","955636","0.0-390.0","zy3xcfb7","","","","","","","",""
"","","","call-function","391","955636","0.0-391.0","zy3xcfb7","","","","","","","",""
"null","","","html-keyboard-response","392","957139","0.0-392.0","zy3xcfb7","","<span style=""color:Black; font-size:50px;"">Agent A","null","","","","",""
"null","","","video-keyboard-response","393","960206","0.0-393.0","zy3xcfb7","","","null","","Agent A","scrambled","STIM_SET_1/498149.bmp_pp99_L2_V1.0_scrambled_freeview_isoFalse.mp4",""
"null","","","html-keyboard-response","394","961712","0.0-394.0","zy3xcfb7","","<span style=""color:Black; font-size:50px;"">Agent B","null","","","","",""
"null","","","video-keyboard-response","395","964822","0.0-395.0","zy3xcfb7","","","null","","Agent B","veridical","STIM_SET_1/498149.bmp_pp99_L2_V1.0_veridical_freeview_isoFalse.mp4",""
"","","","call-function","396","964823","0.0-396.0","zy3xcfb7","","","","","","","",""
"1617.0800000000745","{""judgement"":0}","[0]","survey-likert","397","966441","0.0-397.0","zy3xcfb7","","","","","","","","1"
"1841.2300000000978","{""confidence"":3}","[0]","survey-likert","398","968283","0.0-398.0","zy3xcfb7","","","","","","","",""
"","","","call-function","399","968284","0.0-399.0","zy3xcfb7","","","","","","","",""
"null","","","html-keyboard-response","400","969789","0.0-400.0","zy3xcfb7","","<span style=""color:Black; font-size:50px;"">Agent A","null","","","","",""
"null","","","video-keyboard-response","401","972913","0.0-401.0","zy3xcfb7","","","null","","Agent A","veridical","STIM_SET_1/1159440.bmp_pp98_L1_V1.0_veridical_freeview_isoFalse.mp4",""
"null","","","html-keyboard-response","402","974417","0.0-402.0","zy3xcfb7","","<span style=""color:Black; font-size:50px;"">Agent B","null","","","","",""
"null","","","video-keyboard-response","403","977538","0.0-403.0","zy3xcfb7","","","null","","Agent B","scrambled","STIM_SET_1/1159440.bmp_pp98_L1_V1.0_scrambled_freeview_isoFalse.mp4",""
"","","","call-function","404","977539","0.0-404.0","zy3xcfb7","","","","","","","",""
"2894.5","{""judgement"":0}","[0]","survey-likert","405","980435","0.0-405.0","zy3xcfb7","","","","","","","","0"
"2644.694999999949","{""confidence"":0}","[0]","survey-likert","406","983081","0.0-406.0","zy3xcfb7","","","","","","","",""
"","","","call-function","407","983082","0.0-407.0","zy3xcfb7","","","","","","","",""
"null","","","html-keyboard-response","408","984587","0.0-408.0","zy3xcfb7","","<span style=""color:Black; font-size:50px;"">Agent A","null","","","","",""
"null","","","video-keyboard-response","409","987668","0.0-409.0","zy3xcfb7","","","null","","Agent A","scrambled","STIM_SET_1/1591961.bmp_pp67_L2_V1.0_scrambled_freeview_isoFalse.mp4",""
"null","","","html-keyboard-response","410","989172","0.0-410.0","zy3xcfb7","","<span style=""color:Black; font-size:50px;"">Agent B","null","","","","",""
"null","","","video-keyboard-response","411","992253","0.0-411.0","zy3xcfb7","","","null","","Agent B","veridical","STIM_SET_1/1591961.bmp_pp67_L2_V1.0_veridical_freeview_isoFalse.mp4",""
"","","","call-function","412","992254","0.0-412.0","zy3xcfb7","","","","","","","",""
"2930","{""judgement"":0}","[0]","survey-likert","413","995184","0.0-413.0","zy3xcfb7","","","","","","","","1"
"2436.090000000084","{""confidence"":3}","[0]","survey-likert","414","997622","0.0-414.0","zy3xcfb7","","","","","","","",""
"4949.165000000037","","","instructions","415","1002571","0.0-415.0","zy3xcfb7","[{""page_index"":0,""viewing_time"":1094.3300000000745},{""page_index"":1,""viewing_time"":2990.564999999944},{""page_index"":2,""viewing_time"":864.109999999986}]","","","","","","",""
"1530.3850000000093","","","instructions","416","1004102","0.0-416.0","zy3xcfb7","[{""page_index"":0,""viewing_time"":546.2299999999814},{""page_index"":1,""viewing_time"":528.1199999999953},{""page_index"":2,""viewing_time"":455.9300000000512}]","","","","","","",""
"","","","call-function","417","1004103","0.0-417.0","zy3xcfb7","","","","","","","",""
"null","","","html-keyboard-response","418","1005605","0.0-418.0","zy3xcfb7","","<span style=""color:Black; font-size:50px;"">Agent A","null","","","","",""
"null","","","video-keyboard-response","419","1008679","0.0-419.0","zy3xcfb7","","","null","","Agent A","veridical","STIM_SET_1/1592286.bmp_pp52_L1_V1.0_veridical_freeview_isoFalse.mp4",""
"null","","","html-keyboard-response","420","1010180","0.0-420.0","zy3xcfb7","","<span style=""color:Black; font-size:50px;"">Agent B","null","","","","",""
"null","","","video-keyboard-response","421","1013257","0.0-421.0","zy3xcfb7","","","null","","Agent B","scrambled","STIM_SET_1/1592286.bmp_pp52_L1_V1.0_scrambled_freeview_isoFalse.mp4",""
"","","","call-function","422","1013258","0.0-422.0","zy3xcfb7","","","","","","","",""
"1711.0750000000698","{""judgement"":0}","[0]","survey-likert","423","1014970","0.0-423.0","zy3xcfb7","","","","","","","","0"
"1895.1699999999255","{""confidence"":0}","[0]","survey-likert","424","1016867","0.0-424.0","zy3xcfb7","","","","","","","",""
"","","","call-function","425","1016867","0.0-425.0","zy3xcfb7","","","","","","","",""
"null","","","html-keyboard-response","426","1018370","0.0-426.0","zy3xcfb7","","<span style=""color:Black; font-size:50px;"">Agent A","null","","","","",""
"null","","","video-keyboard-response","427","1021452","0.0-427.0","zy3xcfb7","","","null","","Agent A","veridical","STIM_SET_1/1592804.bmp_pp91_L3_V1.0_veridical_freeview_isoFalse.mp4",""
"null","","","html-keyboard-response","428","1022955","0.0-428.0","zy3xcfb7","","<span style=""color:Black; font-size:50px;"">Agent B","null","","","","",""
"null","","","video-keyboard-response","429","1026035","0.0-429.0","zy3xcfb7","","","null","","Agent B","scrambled","STIM_SET_1/1592804.bmp_pp91_L3_V1.0_scrambled_freeview_isoFalse.mp4",""
"","","","call-function","430","1026035","0.0-430.0","zy3xcfb7","","","","","","","",""
"3116.594999999972","{""judgement"":0}","[0]","survey-likert","431","1029153","0.0-431.0","zy3xcfb7","","","","","","","","0"
"5462.994999999995","{""confidence"":0}","[0]","survey-likert","432","1034617","0.0-432.0","zy3xcfb7","","","","","","","",""
"","","","call-function","433","1034617","0.0-433.0","zy3xcfb7","","","","","","","",""
"null","","","html-keyboard-response","434","1036121","0.0-434.0","zy3xcfb7","","<span style=""color:Black; font-size:50px;"">Agent A","null","","","","",""
"null","","","video-keyboard-response","435","1039230","0.0-435.0","zy3xcfb7","","","null","","Agent A","veridical","STIM_SET_1/1592133.bmp_pp75_L1_V1.0_veridical_freeview_isoFalse.mp4",""
"null","","","html-keyboard-response","436","1040736","0.0-436.0","zy3xcfb7","","<span style=""color:Black; font-size:50px;"">Agent B","null","","","","",""
"null","","","video-keyboard-response","437","1043852","0.0-437.0","zy3xcfb7","","","null","","Agent B","scrambled","STIM_SET_1/1592133.bmp_pp75_L1_V1.0_scrambled_freeview_isoFalse.mp4",""
"","","","call-function","438","1043853","0.0-438.0","zy3xcfb7","","","","","","","",""
"4346.6849999999395","{""judgement"":0}","[0]","survey-likert","439","1048201","0.0-439.0","zy3xcfb7","","","","","","","","0"
"3085.4550000000745","{""confidence"":1}","[0]","survey-likert","440","1051288","0.0-440.0","zy3xcfb7","","","","","","","",""
"","","","call-function","441","1051290","0.0-441.0","zy3xcfb7","","","","","","","",""
"null","","","html-keyboard-response","442","1052792","0.0-442.0","zy3xcfb7","","<span style=""color:Black; font-size:50px;"">Agent A","null","","","","",""
"null","","","video-keyboard-response","443","1055863","0.0-443.0","zy3xcfb7","","","null","","Agent A","veridical","STIM_SET_1/1592890.bmp_pp82_L2_V1.0_veridical_freeview_isoFalse.mp4",""
"null","","","html-keyboard-response","444","1057368","0.0-444.0","zy3xcfb7","","<span style=""color:Black; font-size:50px;"">Agent B","null","","","","",""
"null","","","video-keyboard-response","445","1060439","0.0-445.0","zy3xcfb7","","","null","","Agent B","scrambled","STIM_SET_1/1592890.bmp_pp82_L2_V1.0_scrambled_freeview_isoFalse.mp4",""
"","","","call-function","446","1060440","0.0-446.0","zy3xcfb7","","","","","","","",""
"2499.5799999998417","{""judgement"":1}","[0]","survey-likert","447","1062941","0.0-447.0","zy3xcfb7","","","","","","","","0"
"1553.2349999998696","{""confidence"":3}","[0]","survey-likert","448","1064495","0.0-448.0","zy3xcfb7","","","","","","","",""
"","","","call-function","449","1064496","0.0-449.0","zy3xcfb7","","","","","","","",""
"null","","","html-keyboard-response","450","1065999","0.0-450.0","zy3xcfb7","","<span style=""color:Black; font-size:50px;"">Agent A","null","","","","",""
"null","","","video-keyboard-response","451","1069065","0.0-451.0","zy3xcfb7","","","null","","Agent A","scrambled","STIM_SET_1/286001.bmp_pp54_L2_V1.0_scrambled_freeview_isoFalse.mp4",""
"null","","","html-keyboard-response","452","1070569","0.0-452.0","zy3xcfb7","","<span style=""color:Black; font-size:50px;"">Agent B","null","","","","",""
"null","","","video-keyboard-response","453","1073634","0.0-453.0","zy3xcfb7","","","null","","Agent B","veridical","STIM_SET_1/286001.bmp_pp54_L2_V1.0_veridical_freeview_isoFalse.mp4",""
"","","","call-function","454","1073634","0.0-454.0","zy3xcfb7","","","","","","","",""
"2287.6750000000466","{""judgement"":0}","[0]","survey-likert","455","1075923","0.0-455.0","zy3xcfb7","","","","","","","","1"
"1993.4199999999255","{""confidence"":0}","[0]","survey-likert","456","1077918","0.0-456.0","zy3xcfb7","","","","","","","",""
"","","","call-function","457","1077918","0.0-457.0","zy3xcfb7","","","","","","","",""
"null","","","html-keyboard-response","458","1079422","0.0-458.0","zy3xcfb7","","<span style=""color:Black; font-size:50px;"">Agent A","null","","","","",""
"null","","","video-keyboard-response","459","1082530","0.0-459.0","zy3xcfb7","","","null","","Agent A","veridical","STIM_SET_1/1592619.bmp_pp56_L3_V1.0_veridical_freeview_isoFalse.mp4",""
"null","","","html-keyboard-response","460","1084034","0.0-460.0","zy3xcfb7","","<span style=""color:Black; font-size:50px;"">Agent B","null","","","","",""
"null","","","video-keyboard-response","461","1087146","0.0-461.0","zy3xcfb7","","","null","","Agent B","scrambled","STIM_SET_1/1592619.bmp_pp56_L3_V1.0_scrambled_freeview_isoFalse.mp4",""
"","","","call-function","462","1087147","0.0-462.0","zy3xcfb7","","","","","","","",""
"3529.155000000028","{""judgement"":1}","[0]","survey-likert","463","1090677","0.0-463.0","zy3xcfb7","","","","","","","","0"
"2555.5799999998417","{""confidence"":0}","[0]","survey-likert","464","1093234","0.0-464.0","zy3xcfb7","","","","","","","",""
"","","","call-function","465","1093234","0.0-465.0","zy3xcfb7","","","","","","","",""
"null","","","html-keyboard-response","466","1094739","0.0-466.0","zy3xcfb7","","<span style=""color:Black; font-size:50px;"">Agent A","null","","","","",""
"null","","","video-keyboard-response","467","1097824","0.0-467.0","zy3xcfb7","","","null","","Agent A","veridical","STIM_SET_1/713779.bmp_pp152_L2_V1.0_veridical_freeview_isoFalse.mp4",""
"null","","","html-keyboard-response","468","1099330","0.0-468.0","zy3xcfb7","","<span style=""color:Black; font-size:50px;"">Agent B","null","","","","",""
"null","","","video-keyboard-response","469","1102416","0.0-469.0","zy3xcfb7","","","null","","Agent B","scrambled","STIM_SET_1/713779.bmp_pp152_L2_V1.0_scrambled_freeview_isoFalse.mp4",""
"","","","call-function","470","1102416","0.0-470.0","zy3xcfb7","","","","","","","",""
"2181.9150000000373","{""judgement"":1}","[0]","survey-likert","471","1104599","0.0-471.0","zy3xcfb7","","","","","","","","0"
"1841.9199999999255","{""confidence"":2}","[0]","survey-likert","472","1106442","0.0-472.0","zy3xcfb7","","","","","","","",""
"","","","call-function","473","1106443","0.0-473.0","zy3xcfb7","","","","","","","",""
"null","","","html-keyboard-response","474","1107948","0.0-474.0","zy3xcfb7","","<span style=""color:Black; font-size:50px;"">Agent A","null","","","","",""
"null","","","video-keyboard-response","475","1111059","0.0-475.0","zy3xcfb7","","","null","","Agent A","veridical","STIM_SET_1/1592934.bmp_pp63_L1_V1.0_veridical_freeview_isoFalse.mp4",""
"null","","","html-keyboard-response","476","1112562","0.0-476.0","zy3xcfb7","","<span style=""color:Black; font-size:50px;"">Agent B","null","","","","",""
"null","","","video-keyboard-response","477","1115677","0.0-477.0","zy3xcfb7","","","null","","Agent B","scrambled","STIM_SET_1/1592934.bmp_pp63_L1_V1.0_scrambled_freeview_isoFalse.mp4",""
"","","","call-function","478","1115678","0.0-478.0","zy3xcfb7","","","","","","","",""
"3062.3599999998696","{""judgement"":0}","[0]","survey-likert","479","1118741","0.0-479.0","zy3xcfb7","","","","","","","","0"
"2060.7949999999255","{""confidence"":2}","[0]","survey-likert","480","1120803","0.0-480.0","zy3xcfb7","","","","","","","",""
"","","","call-function","481","1120804","0.0-481.0","zy3xcfb7","","","","","","","",""
"null","","","html-keyboard-response","482","1122309","0.0-482.0","zy3xcfb7","","<span style=""color:Black; font-size:50px;"">Agent A","null","","","","",""
"null","","","video-keyboard-response","483","1125389","0.0-483.0","zy3xcfb7","","","null","","Agent A","veridical","STIM_SET_1/713371.bmp_pp68_L1_V1.0_veridical_freeview_isoFalse.mp4",""
"null","","","html-keyboard-response","484","1126893","0.0-484.0","zy3xcfb7","","<span style=""color:Black; font-size:50px;"">Agent B","null","","","","",""
"null","","","video-keyboard-response","485","1129973","0.0-485.0","zy3xcfb7","","","null","","Agent B","scrambled","STIM_SET_1/713371.bmp_pp68_L1_V1.0_scrambled_freeview_isoFalse.mp4",""
"","","","call-function","486","1129974","0.0-486.0","zy3xcfb7","","","","","","","",""
"3180.595000000205","{""judgement"":1}","[0]","survey-likert","487","1133155","0.0-487.0","zy3xcfb7","","","","","","","","0"
"1960.4300000001676","{""confidence"":2}","[0]","survey-likert","488","1135117","0.0-488.0","zy3xcfb7","","","","","","","",""
"","","","call-function","489","1135117","0.0-489.0","zy3xcfb7","","","","","","","",""
"null","","","html-keyboard-response","490","1136623","0.0-490.0","zy3xcfb7","","<span style=""color:Black; font-size:50px;"">Agent A","null","","","","",""
"null","","","video-keyboard-response","491","1139704","0.0-491.0","zy3xcfb7","","","null","","Agent A","scrambled","STIM_SET_1/285751.bmp_pp55_L3_V1.0_scrambled_freeview_isoFalse.mp4",""
"null","","","html-keyboard-response","492","1141205","0.0-492.0","zy3xcfb7","","<span style=""color:Black; font-size:50px;"">Agent B","null","","","","",""
"null","","","video-keyboard-response","493","1144284","0.0-493.0","zy3xcfb7","","","null","","Agent B","veridical","STIM_SET_1/285751.bmp_pp55_L3_V1.0_veridical_freeview_isoFalse.mp4",""
"","","","call-function","494","1144285","0.0-494.0","zy3xcfb7","","","","","","","",""
"2610.060000000056","{""judgement"":1}","[0]","survey-likert","495","1146896","0.0-495.0","zy3xcfb7","","","","","","","","1"
"1519.8799999998882","{""confidence"":2}","[0]","survey-likert","496","1148417","0.0-496.0","zy3xcfb7","","","","","","","",""
"2626.195000000065","","","instructions","497","1151044","0.0-497.0","zy3xcfb7","[{""page_index"":0,""viewing_time"":1274.9450000000652},{""page_index"":1,""viewing_time"":749.1799999999348},{""page_index"":2,""viewing_time"":601.9050000000279}]","","","","","","",""
"1716.9599999999627","","","instructions","498","1152762","0.0-498.0","zy3xcfb7","[{""page_index"":0,""viewing_time"":579.7050000000745},{""page_index"":1,""viewing_time"":578.9849999998696},{""page_index"":2,""viewing_time"":558.1650000000373}]","","","","","","",""
"","","","call-function","499","1152762","0.0-499.0","zy3xcfb7","","","","","","","",""
"null","","","html-keyboard-response","500","1154266","0.0-500.0","zy3xcfb7","","<span style=""color:Black; font-size:50px;"">Agent A","null","","","","",""
"null","","","video-keyboard-response","501","1157380","0.0-501.0","zy3xcfb7","","","null","","Agent A","scrambled","STIM_SET_1/1592362.bmp_pp95_L2_V1.0_scrambled_freeview_isoFalse.mp4",""
"null","","","html-keyboard-response","502","1158884","0.0-502.0","zy3xcfb7","","<span style=""color:Black; font-size:50px;"">Agent B","null","","","","",""
"null","","","video-keyboard-response","503","1162001","0.0-503.0","zy3xcfb7","","","null","","Agent B","veridical","STIM_SET_1/1592362.bmp_pp95_L2_V1.0_veridical_freeview_isoFalse.mp4",""
"","","","call-function","504","1162002","0.0-504.0","zy3xcfb7","","","","","","","",""
"2974.8000000000466","{""judgement"":0}","[0]","survey-likert","505","1164978","0.0-505.0","zy3xcfb7","","","","","","","","1"
"1577.9499999999534","{""confidence"":3}","[0]","survey-likert","506","1166559","0.0-506.0","zy3xcfb7","","","","","","","",""
"","","","call-function","507","1166560","0.0-507.0","zy3xcfb7","","","","","","","",""
"null","","","html-keyboard-response","508","1168066","0.0-508.0","zy3xcfb7","","<span style=""color:Black; font-size:50px;"">Agent A","null","","","","",""
"null","","","video-keyboard-response","509","1171149","0.0-509.0","zy3xcfb7","","","null","","Agent A","veridical","STIM_SET_1/1159777.bmp_pp77_L3_V1.0_veridical_freeview_isoFalse.mp4",""
"null","","","html-keyboard-response","510","1172654","0.0-510.0","zy3xcfb7","","<span style=""color:Black; font-size:50px;"">Agent B","null","","","","",""
"null","","","video-keyboard-response","511","1175735","0.0-511.0","zy3xcfb7","","","null","","Agent B","scrambled","STIM_SET_1/1159777.bmp_pp77_L3_V1.0_scrambled_freeview_isoFalse.mp4",""
"","","","call-function","512","1175735","0.0-512.0","zy3xcfb7","","","","","","","",""
"2038.8649999999907","{""judgement"":0}","[0]","survey-likert","513","1177775","0.0-513.0","zy3xcfb7","","","","","","","","0"
"1891.1099999998696","{""confidence"":1}","[0]","survey-likert","514","1179668","0.0-514.0","zy3xcfb7","","","","","","","",""
"","","","call-function","515","1179669","0.0-515.0","zy3xcfb7","","","","","","","",""
"null","","","html-keyboard-response","516","1181172","0.0-516.0","zy3xcfb7","","<span style=""color:Black; font-size:50px;"">Agent A","null","","","","",""
"null","","","video-keyboard-response","517","1184240","0.0-517.0","zy3xcfb7","","","null","","Agent A","scrambled","STIM_SET_1/713760.bmp_pp81_L1_V1.0_scrambled_freeview_isoFalse.mp4",""
"null","","","html-keyboard-response","518","1185741","0.0-518.0","zy3xcfb7","","<span style=""color:Black; font-size:50px;"">Agent B","null","","","","",""
"null","","","video-keyboard-response","519","1188804","0.0-519.0","zy3xcfb7","","","null","","Agent B","veridical","STIM_SET_1/713760.bmp_pp81_L1_V1.0_veridical_freeview_isoFalse.mp4",""
"","","","call-function","520","1188805","0.0-520.0","zy3xcfb7","","","","","","","",""
"2747.3950000000186","{""judgement"":0}","[0]","survey-likert","521","1191553","0.0-521.0","zy3xcfb7","","","","","","","","1"
"1641.9450000000652","{""confidence"":2}","[0]","survey-likert","522","1193196","0.0-522.0","zy3xcfb7","","","","","","","",""
"","","","call-function","523","1193197","0.0-523.0","zy3xcfb7","","","","","","","",""
"null","","","html-keyboard-response","524","1194701","0.0-524.0","zy3xcfb7","","<span style=""color:Black; font-size:50px;"">Agent A","null","","","","",""
"null","","","video-keyboard-response","525","1197819","0.0-525.0","zy3xcfb7","","","null","","Agent A","veridical","STIM_SET_1/1159515.bmp_pp84_L3_V1.0_veridical_freeview_isoFalse.mp4",""
"null","","","html-keyboard-response","526","1199323","0.0-526.0","zy3xcfb7","","<span style=""color:Black; font-size:50px;"">Agent B","null","","","","",""
"null","","","video-keyboard-response","527","1202436","0.0-527.0","zy3xcfb7","","","null","","Agent B","scrambled","STIM_SET_1/1159515.bmp_pp84_L3_V1.0_scrambled_freeview_isoFalse.mp4",""
"","","","call-function","528","1202437","0.0-528.0","zy3xcfb7","","","","","","","",""
"2178.030000000028","{""judgement"":1}","[0]","survey-likert","529","1204616","0.0-529.0","zy3xcfb7","","","","","","","","0"
"2179.8900000001304","{""confidence"":1}","[0]","survey-likert","530","1206797","0.0-530.0","zy3xcfb7","","","","","","","",""
"","","","call-function","531","1206798","0.0-531.0","zy3xcfb7","","","","","","","",""
"null","","","html-keyboard-response","532","1208300","0.0-532.0","zy3xcfb7","","<span style=""color:Black; font-size:50px;"">Agent A","null","","","","",""
"null","","","video-keyboard-response","533","1211410","0.0-533.0","zy3xcfb7","","","null","","Agent A","veridical","STIM_SET_1/1159447.bmp_pp70_L2_V1.0_veridical_freeview_isoFalse.mp4",""
"null","","","html-keyboard-response","534","1212912","0.0-534.0","zy3xcfb7","","<span style=""color:Black; font-size:50px;"">Agent B","null","","","","",""
"null","","","video-keyboard-response","535","1216027","0.0-535.0","zy3xcfb7","","","null","","Agent B","scrambled","STIM_SET_1/1159447.bmp_pp70_L2_V1.0_scrambled_freeview_isoFalse.mp4",""
"","","","call-function","536","1216027","0.0-536.0","zy3xcfb7","","","","","","","",""
"2572.030000000028","{""judgement"":1}","[0]","survey-likert","537","1218600","0.0-537.0","zy3xcfb7","","","","","","","","0"
"1617.4599999999627","{""confidence"":3}","[0]","survey-likert","538","1220219","0.0-538.0","zy3xcfb7","","","","","","","",""
"","","","call-function","539","1220219","0.0-539.0","zy3xcfb7","","","","","","","",""
"null","","","html-keyboard-response","540","1221723","0.0-540.0","zy3xcfb7","","<span style=""color:Black; font-size:50px;"">Agent A","null","","","","",""
"null","","","video-keyboard-response","541","1224836","0.0-541.0","zy3xcfb7","","","null","","Agent A","scrambled","STIM_SET_1/1592397.bmp_pp85_L3_V1.0_scrambled_freeview_isoFalse.mp4",""
"null","","","html-keyboard-response","542","1226341","0.0-542.0","zy3xcfb7","","<span style=""color:Black; font-size:50px;"">Agent B","null","","","","",""
"null","","","video-keyboard-response","543","1229456","0.0-543.0","zy3xcfb7","","","null","","Agent B","veridical","STIM_SET_1/1592397.bmp_pp85_L3_V1.0_veridical_freeview_isoFalse.mp4",""
"","","","call-function","544","1229457","0.0-544.0","zy3xcfb7","","","","","","","",""
"3170.8549999999814","{""judgement"":0}","[0]","survey-likert","545","1232629","0.0-545.0","zy3xcfb7","","","","","","","","1"
"4056.5550000001676","{""confidence"":3}","[0]","survey-likert","546","1236687","0.0-546.0","zy3xcfb7","","","","","","","",""
"","","","call-function","547","1236688","0.0-547.0","zy3xcfb7","","","","","","","",""
"null","","","html-keyboard-response","548","1238191","0.0-548.0","zy3xcfb7","","<span style=""color:Black; font-size:50px;"">Agent A","null","","","","",""
"null","","","video-keyboard-response","549","1241267","0.0-549.0","zy3xcfb7","","","null","","Agent A","scrambled","STIM_SET_1/1160168.bmp_pp53_L2_V1.0_scrambled_freeview_isoFalse.mp4",""
"null","","","html-keyboard-response","550","1242773","0.0-550.0","zy3xcfb7","","<span style=""color:Black; font-size:50px;"">Agent B","null","","","","",""
"null","","","video-keyboard-response","551","1245849","0.0-551.0","zy3xcfb7","","","null","","Agent B","veridical","STIM_SET_1/1160168.bmp_pp53_L2_V1.0_veridical_freeview_isoFalse.mp4",""
"","","","call-function","552","1245849","0.0-552.0","zy3xcfb7","","","","","","","",""
"2914.0400000000373","{""judgement"":0}","[0]","survey-likert","553","1248764","0.0-553.0","zy3xcfb7","","","","","","","","1"
"1324.8349999999627","{""confidence"":0}","[0]","survey-likert","554","1250090","0.0-554.0","zy3xcfb7","","","","","","","",""
"","","","call-function","555","1250091","0.0-555.0","zy3xcfb7","","","","","","","",""
"null","","","html-keyboard-response","556","1251595","0.0-556.0","zy3xcfb7","","<span style=""color:Black; font-size:50px;"">Agent A","null","","","","",""
"null","","","video-keyboard-response","557","1254667","0.0-557.0","zy3xcfb7","","","null","","Agent A","veridical","STIM_SET_1/285994.bmp_pp92_L3_V1.0_veridical_freeview_isoFalse.mp4",""
"null","","","html-keyboard-response","558","1256170","0.0-558.0","zy3xcfb7","","<span style=""color:Black; font-size:50px;"">Agent B","null","","","","",""
"null","","","video-keyboard-response","559","1259238","0.0-559.0","zy3xcfb7","","","null","","Agent B","scrambled","STIM_SET_1/285994.bmp_pp92_L3_V1.0_scrambled_freeview_isoFalse.mp4",""
"","","","call-function","560","1259240","0.0-560.0","zy3xcfb7","","","","","","","",""
"3848.7750000001397","{""judgement"":1}","[0]","survey-likert","561","1263090","0.0-561.0","zy3xcfb7","","","","","","","","0"
"2935.279999999795","{""confidence"":1}","[0]","survey-likert","562","1266027","0.0-562.0","zy3xcfb7","","","","","","","",""
"","","","call-function","563","1266028","0.0-563.0","zy3xcfb7","","","","","","","",""
"null","","","html-keyboard-response","564","1267531","0.0-564.0","zy3xcfb7","","<span style=""color:Black; font-size:50px;"">Agent A","null","","","","",""
"null","","","video-keyboard-response","565","1270606","0.0-565.0","zy3xcfb7","","","null","","Agent A","veridical","STIM_SET_1/713681.bmp_pp86_L2_V1.0_veridical_freeview_isoFalse.mp4",""
"null","","","html-keyboard-response","566","1272108","0.0-566.0","zy3xcfb7","","<span style=""color:Black; font-size:50px;"">Agent B","null","","","","",""
"null","","","video-keyboard-response","567","1275179","0.0-567.0","zy3xcfb7","","","null","","Agent B","scrambled","STIM_SET_1/713681.bmp_pp86_L2_V1.0_scrambled_freeview_isoFalse.mp4",""
"","","","call-function","568","1275179","0.0-568.0","zy3xcfb7","","","","","","","",""
"4592.229999999981","{""judgement"":0}","[0]","survey-likert","569","1279773","0.0-569.0","zy3xcfb7","","","","","","","","0"
"1828.6299999998882","{""confidence"":3}","[0]","survey-likert","570","1281603","0.0-570.0","zy3xcfb7","","","","","","","",""
"","","","call-function","571","1281604","0.0-571.0","zy3xcfb7","","","","","","","",""
"null","","","html-keyboard-response","572","1283106","0.0-572.0","zy3xcfb7","","<span style=""color:Black; font-size:50px;"">Agent A","null","","","","",""
"null","","","video-keyboard-response","573","1286185","0.0-573.0","zy3xcfb7","","","null","","Agent A","scrambled","STIM_SET_1/498253.bmp_pp67_L2_V1.0_scrambled_freeview_isoFalse.mp4",""
"null","","","html-keyboard-response","574","1287690","0.0-574.0","zy3xcfb7","","<span style=""color:Black; font-size:50px;"">Agent B","null","","","","",""
"null","","","video-keyboard-response","575","1290805","0.0-575.0","zy3xcfb7","","","null","","Agent B","veridical","STIM_SET_1/498253.bmp_pp67_L2_V1.0_veridical_freeview_isoFalse.mp4",""
"","","","call-function","576","1290805","0.0-576.0","zy3xcfb7","","","","","","","",""
"3219.0750000001863","{""judgement"":1}","[0]","survey-likert","577","1294025","0.0-577.0","zy3xcfb7","","","","","","","","1"
"1313.8300000000745","{""confidence"":2}","[0]","survey-likert","578","1295340","0.0-578.0","zy3xcfb7","","","","","","","",""
"2672.965000000084","","","instructions","579","1298014","0.0-579.0","zy3xcfb7","[{""page_index"":0,""viewing_time"":2672.8300000000745}]","","","","","","",""
"2114.8000000000466","","","instructions","580","1300129","0.0-580.0","zy3xcfb7","[{""page_index"":0,""viewing_time"":2114.564999999944}]","","","","","","",""
"10800.715000000084","{""post-1"":2}","[0]","survey-likert","581","1310931","0.0-581.0","zy3xcfb7","","","","","","","",""
"5491.314999999944","{""post-1"":0}","[0]","survey-likert","582","1316424","0.0-582.0","zy3xcfb7","","","","","","","",""
"7448.040000000037","{""post-2"":2}","[0]","survey-likert","583","1323873","0.0-583.0","zy3xcfb7","","","","","","","",""
"17547.125","{""post-2"":0}","[0]","survey-likert","584","1341422","0.0-584.0","zy3xcfb7","","","","","","","",""
"8502.934999999823","{""post-3"":3}","[0]","survey-likert","585","1349927","0.0-585.0","zy3xcfb7","","","","","","","",""
"4897.104999999981","{""post-3"":0}","[0]","survey-likert","586","1354826","0.0-586.0","zy3xcfb7","","","","","","","",""
"9626.629999999888","{""post-4"":3}","[0]","survey-likert","587","1364455","0.0-587.0","zy3xcfb7","","","","","","","",""
"3477.744999999879","{""post-4"":0}","[0]","survey-likert","588","1367934","0.0-588.0","zy3xcfb7","","","","","","","",""
"9442.850000000093","{""post-5"":1}","[0]","survey-likert","589","1377378","0.0-589.0","zy3xcfb7","","","","","","","",""
"6003.315000000177","{""post-5"":3}","[0]","survey-likert","590","1383383","0.0-590.0","zy3xcfb7","","","","","","","",""
"66887.65500000003","{""Q0"":""I felt that it was easier to follow the images that had real people in them, as opposed to the images of landscapes or objects.""}","","survey-text","591","1450276","0.0-591.0","zy3xcfb7","","","","","","","",""
"98543.75499999989","{""Q0"":""I found it easiest to deduce what the agent was looking at when it came to pictures of people. For pictures of objects and landscapes, I employed the strategy of following the eye movements of the agent and comparing them to my own.""}","","survey-text","592","1548824","0.0-592.0","zy3xcfb7","","","","","","","",""
"67385.59000000008","{""Q0"":""I found it most difficult to determine which agent was actually human when it came to the pictures without people in them.""}","","survey-text","593","1616214","0.0-593.0","zy3xcfb7","","","","","","","",""
"2162.3700000001118","","","instructions","594","1618378","0.0-594.0","zy3xcfb7","[{""page_index"":0,""viewing_time"":2162.1700000001583}]","","","","","","",""
"61783.3899999999","{""Experimenter_end"":[""Printed ID# zy3xcfb7 on consent form"",""Given subject SONA credit or payment"",""Given the subject debrief form""]}","[0]","survey-multi-select","595","1680165","0.0-595.0","zy3xcfb7","","","","","","","",""
