"rt","responses","question_order","trial_type","trial_index","time_elapsed","internal_node_id","ID","view_history","stimulus","key_press","value","agent","condition","image","correct_answer"
"141743.19999999998","{""Experimenter"":[""Confirmed subject's identity (ID card)"",""Confirmed normal or corrected-to-normal vision"",""Obtained consent (signature and date)"",""Checked the test room lighting"",""Checked computer screen lighting"",""Checked distance from screen to chin rest (50cm)"",""Cleaned and adjusted chin rest"",""Counterbalanced the order of the tasks"",""Opened the experiment in Firefox"",""Made the experiment full screen"",""Encouraged subject to silence phone, put away distractors, etc.""]}","[0]","survey-multi-select","0","141752","0.0-0.0","zynxvp2b","","","","","","","",""
"30448.554999999993","","","instructions","1","172202","0.0-1.0","zynxvp2b","[{""page_index"":0,""viewing_time"":30448.389999999985}]","","","","","","",""
"14439.929999999993","","","instructions","2","186644","0.0-2.0","zynxvp2b","[{""page_index"":0,""viewing_time"":60.60999999998603},{""page_index"":1,""viewing_time"":8080.529999999999},{""page_index"":2,""viewing_time"":6298.2149999999965}]","","","","","","",""
"2482","","","instructions","3","189127","0.0-3.0","zynxvp2b","[{""page_index"":0,""viewing_time"":2481.8949999999895}]","","","","","","",""
"null","","","video-keyboard-response","4","192202","0.0-4.0","zynxvp2b","","","null","","","","",""
"20183.415000000008","","","instructions","5","212386","0.0-5.0","zynxvp2b","[{""page_index"":0,""viewing_time"":2994.320000000007},{""page_index"":1,""viewing_time"":3593.6900000000023},{""page_index"":2,""viewing_time"":2510.2299999999814},{""page_index"":3,""viewing_time"":4610.565000000002},{""page_index"":4,""viewing_time"":6474.4800000000105}]","","","","","","",""
"7826.349999999977","","","instructions","6","220213","0.0-6.0","zynxvp2b","[{""page_index"":0,""viewing_time"":7826.239999999991}]","","","","","","",""
"","","","call-function","7","220214","0.0-7.0","zynxvp2b","","","","","","","",""
"null","","","html-keyboard-response","8","221717","0.0-8.0","zynxvp2b","","<span style=""color:Black; font-size:50px;"">Agent A","null","","","","",""
"null","","","video-keyboard-response","9","224787","0.0-9.0","zynxvp2b","","","null","","Agent A","veridical","STIM_SET_1_REAL/285933.bmp_pp81_L1_V1.0_veridical_freeview_isoFalse_fps144.mp4",""
"null","","","html-keyboard-response","10","226292","0.0-10.0","zynxvp2b","","<span style=""color:Black; font-size:50px;"">Agent B","null","","","","",""
"null","","","video-keyboard-response","11","229366","0.0-11.0","zynxvp2b","","","null","","Agent B","scrambled","STIM_SET_3/1159973.bmp_pp98_L1_V2_veridical_freeview_isoFalsemismatch_285933.bmp_L1_fps90.mp4",""
"","","","call-function","12","229366","0.0-12.0","zynxvp2b","","","","","","","",""
"4385.815000000002","{""judgement"":0}","[0]","survey-likert","13","233754","0.0-13.0","zynxvp2b","","","","","","","","0"
"7175.514999999985","{""confidence"":2}","[0]","survey-likert","14","240931","0.0-14.0","zynxvp2b","","","","","","","",""
"","","","call-function","15","240931","0.0-15.0","zynxvp2b","","","","","","","",""
"null","","","html-keyboard-response","16","242435","0.0-16.0","zynxvp2b","","<span style=""color:Black; font-size:50px;"">Agent A","null","","","","",""
"null","","","video-keyboard-response","17","245514","0.0-17.0","zynxvp2b","","","null","","Agent A","veridical","STIM_SET_1_REAL/61537.bmp_pp73_L3_V1.0_veridical_freeview_isoFalse_fps144.mp4",""
"null","","","html-keyboard-response","18","247016","0.0-18.0","zynxvp2b","","<span style=""color:Black; font-size:50px;"">Agent B","null","","","","",""
"null","","","video-keyboard-response","19","250118","0.0-19.0","zynxvp2b","","","null","","Agent B","scrambled","STIM_SET_3/713770.bmp_pp89_L1_V2_veridical_freeview_isoFalsemismatch_61537.bmp_L3_fps90.mp4",""
"","","","call-function","20","250119","0.0-20.0","zynxvp2b","","","","","","","",""
"5757.960000000021","{""judgement"":0}","[0]","survey-likert","21","255879","0.0-21.0","zynxvp2b","","","","","","","","0"
"6274.810000000027","{""confidence"":2}","[0]","survey-likert","22","262155","0.0-22.0","zynxvp2b","","","","","","","",""
"","","","call-function","23","262155","0.0-23.0","zynxvp2b","","","","","","","",""
"null","","","html-keyboard-response","24","263659","0.0-24.0","zynxvp2b","","<span style=""color:Black; font-size:50px;"">Agent A","null","","","","",""
"null","","","video-keyboard-response","25","266720","0.0-25.0","zynxvp2b","","","null","","Agent A","scrambled","STIM_SET_3/1592951.bmp_pp80_L3_V2_veridical_freeview_isoFalsemismatch_712977.bmp_L1_fps90.mp4",""
"null","","","html-keyboard-response","26","268222","0.0-26.0","zynxvp2b","","<span style=""color:Black; font-size:50px;"">Agent B","null","","","","",""
"null","","","video-keyboard-response","27","271325","0.0-27.0","zynxvp2b","","","null","","Agent B","veridical","STIM_SET_1_REAL/712977.bmp_pp51_L1_V1.0_veridical_freeview_isoFalse_fps144.mp4",""
"","","","call-function","28","271326","0.0-28.0","zynxvp2b","","","","","","","",""
"5353.549999999988","{""judgement"":1}","[0]","survey-likert","29","276681","0.0-29.0","zynxvp2b","","","","","","","","1"
"1783.6549999999697","{""confidence"":1}","[0]","survey-likert","30","278466","0.0-30.0","zynxvp2b","","","","","","","",""
"","","","call-function","31","278466","0.0-31.0","zynxvp2b","","","","","","","",""
"null","","","html-keyboard-response","32","279972","0.0-32.0","zynxvp2b","","<span style=""color:Black; font-size:50px;"">Agent A","null","","","","",""
"null","","","video-keyboard-response","33","283080","0.0-33.0","zynxvp2b","","","null","","Agent A","veridical","STIM_SET_1_REAL/713749.bmp_pp88_L2_V1.0_veridical_freeview_isoFalse_fps144.mp4",""
"null","","","html-keyboard-response","34","284582","0.0-34.0","zynxvp2b","","<span style=""color:Black; font-size:50px;"">Agent B","null","","","","",""
"null","","","video-keyboard-response","35","287682","0.0-35.0","zynxvp2b","","","null","","Agent B","scrambled","STIM_SET_3/713858.bmp_pp57_L1_V2_veridical_freeview_isoFalsemismatch_713749.bmp_L2_fps90.mp4",""
"","","","call-function","36","287683","0.0-36.0","zynxvp2b","","","","","","","",""
"3291.6350000000093","{""judgement"":0}","[0]","survey-likert","37","290975","0.0-37.0","zynxvp2b","","","","","","","","0"
"3497.7050000000163","{""confidence"":3}","[0]","survey-likert","38","294474","0.0-38.0","zynxvp2b","","","","","","","",""
"","","","call-function","39","294475","0.0-39.0","zynxvp2b","","","","","","","",""
"null","","","html-keyboard-response","40","295978","0.0-40.0","zynxvp2b","","<span style=""color:Black; font-size:50px;"">Agent A","null","","","","",""
"null","","","video-keyboard-response","41","299046","0.0-41.0","zynxvp2b","","","null","","Agent A","veridical","STIM_SET_1_REAL/1592286.bmp_pp52_L1_V1.0_veridical_freeview_isoFalse_fps144.mp4",""
"null","","","html-keyboard-response","42","300552","0.0-42.0","zynxvp2b","","<span style=""color:Black; font-size:50px;"">Agent B","null","","","","",""
"null","","","video-keyboard-response","43","303615","0.0-43.0","zynxvp2b","","","null","","Agent B","scrambled","STIM_SET_3/498326.bmp_pp57_L1_V2_veridical_freeview_isoFalsemismatch_1592286.bmp_L1_fps90.mp4",""
"","","","call-function","44","303616","0.0-44.0","zynxvp2b","","","","","","","",""
"2386.649999999965","{""judgement"":1}","[0]","survey-likert","45","306003","0.0-45.0","zynxvp2b","","","","","","","","0"
"2273.6849999999977","{""confidence"":3}","[0]","survey-likert","46","308278","0.0-46.0","zynxvp2b","","","","","","","",""
"","","","call-function","47","308279","0.0-47.0","zynxvp2b","","","","","","","",""
"null","","","html-keyboard-response","48","309782","0.0-48.0","zynxvp2b","","<span style=""color:Black; font-size:50px;"">Agent A","null","","","","",""
"null","","","video-keyboard-response","49","312858","0.0-49.0","zynxvp2b","","","null","","Agent A","scrambled","STIM_SET_3/713633.bmp_pp58_L1_V2_veridical_freeview_isoFalsemismatch_713796.bmp_L3_fps90.mp4",""
"null","","","html-keyboard-response","50","314365","0.0-50.0","zynxvp2b","","<span style=""color:Black; font-size:50px;"">Agent B","null","","","","",""
"null","","","video-keyboard-response","51","317459","0.0-51.0","zynxvp2b","","","null","","Agent B","veridical","STIM_SET_1_REAL/713796.bmp_pp84_L3_V1.0_veridical_freeview_isoFalse_fps144.mp4",""
"","","","call-function","52","317460","0.0-52.0","zynxvp2b","","","","","","","",""
"2237.8600000000442","{""judgement"":1}","[0]","survey-likert","53","319699","0.0-53.0","zynxvp2b","","","","","","","","1"
"1098.25","{""confidence"":2}","[0]","survey-likert","54","320799","0.0-54.0","zynxvp2b","","","","","","","",""
"","","","call-function","55","320800","0.0-55.0","zynxvp2b","","","","","","","",""
"null","","","html-keyboard-response","56","322302","0.0-56.0","zynxvp2b","","<span style=""color:Black; font-size:50px;"">Agent A","null","","","","",""
"null","","","video-keyboard-response","57","325365","0.0-57.0","zynxvp2b","","","null","","Agent A","veridical","STIM_SET_1_REAL/498170.bmp_pp153_L3_V1.0_veridical_freeview_isoFalse_fps144.mp4",""
"null","","","html-keyboard-response","58","326868","0.0-58.0","zynxvp2b","","<span style=""color:Black; font-size:50px;"">Agent B","null","","","","",""
"null","","","video-keyboard-response","59","329946","0.0-59.0","zynxvp2b","","","null","","Agent B","scrambled","STIM_SET_3/713742.bmp_pp91_L3_V2_veridical_freeview_isoFalsemismatch_498170.bmp_L3_fps90.mp4",""
"","","","call-function","60","329947","0.0-60.0","zynxvp2b","","","","","","","",""
"5636.005000000005","{""judgement"":1}","[0]","survey-likert","61","335585","0.0-61.0","zynxvp2b","","","","","","","","0"
"1835.7999999999884","{""confidence"":1}","[0]","survey-likert","62","337422","0.0-62.0","zynxvp2b","","","","","","","",""
"","","","call-function","63","337423","0.0-63.0","zynxvp2b","","","","","","","",""
"null","","","html-keyboard-response","64","338926","0.0-64.0","zynxvp2b","","<span style=""color:Black; font-size:50px;"">Agent A","null","","","","",""
"null","","","video-keyboard-response","65","342003","0.0-65.0","zynxvp2b","","","null","","Agent A","veridical","STIM_SET_1_REAL/713707.bmp_pp154_L1_V1.0_veridical_freeview_isoFalse_fps144.mp4",""
"null","","","html-keyboard-response","66","343507","0.0-66.0","zynxvp2b","","<span style=""color:Black; font-size:50px;"">Agent B","null","","","","",""
"null","","","video-keyboard-response","67","346572","0.0-67.0","zynxvp2b","","","null","","Agent B","scrambled","STIM_SET_3/1592314.bmp_pp100_L3_V2_veridical_freeview_isoFalsemismatch_713707.bmp_L1_fps90.mp4",""
"","","","call-function","68","346572","0.0-68.0","zynxvp2b","","","","","","","",""
"10987.104999999981","{""judgement"":1}","[0]","survey-likert","69","357560","0.0-69.0","zynxvp2b","","","","","","","","0"
"2665.3099999999977","{""confidence"":1}","[0]","survey-likert","70","360228","0.0-70.0","zynxvp2b","","","","","","","",""
"","","","call-function","71","360228","0.0-71.0","zynxvp2b","","","","","","","",""
"null","","","html-keyboard-response","72","361731","0.0-72.0","zynxvp2b","","<span style=""color:Black; font-size:50px;"">Agent A","null","","","","",""
"null","","","video-keyboard-response","73","364800","0.0-73.0","zynxvp2b","","","null","","Agent A","scrambled","STIM_SET_3/1159508.bmp_pp151_L1_V2_veridical_freeview_isoFalsemismatch_1159675.bmp_L3_fps90.mp4",""
"null","","","html-keyboard-response","74","366302","0.0-74.0","zynxvp2b","","<span style=""color:Black; font-size:50px;"">Agent B","null","","","","",""
"null","","","video-keyboard-response","75","369404","0.0-75.0","zynxvp2b","","","null","","Agent B","veridical","STIM_SET_1_REAL/1159675.bmp_pp77_L3_V1.0_veridical_freeview_isoFalse_fps144.mp4",""
"","","","call-function","76","369406","0.0-76.0","zynxvp2b","","","","","","","",""
"9940.274999999965","{""judgement"":1}","[0]","survey-likert","77","379347","0.0-77.0","zynxvp2b","","","","","","","","1"
"3282.7200000000303","{""confidence"":3}","[0]","survey-likert","78","382631","0.0-78.0","zynxvp2b","","","","","","","",""
"","","","call-function","79","382632","0.0-79.0","zynxvp2b","","","","","","","",""
"null","","","html-keyboard-response","80","384133","0.0-80.0","zynxvp2b","","<span style=""color:Black; font-size:50px;"">Agent A","null","","","","",""
"null","","","video-keyboard-response","81","387222","0.0-81.0","zynxvp2b","","","null","","Agent A","veridical","STIM_SET_1_REAL/497950.bmp_pp151_L1_V1.0_veridical_freeview_isoFalse_fps144.mp4",""
"null","","","html-keyboard-response","82","388729","0.0-82.0","zynxvp2b","","<span style=""color:Black; font-size:50px;"">Agent B","null","","","","",""
"null","","","video-keyboard-response","83","391826","0.0-83.0","zynxvp2b","","","null","","Agent B","scrambled","STIM_SET_3/713274.bmp_pp73_L3_V2_veridical_freeview_isoFalsemismatch_497950.bmp_L1_fps90.mp4",""
"","","","call-function","84","391826","0.0-84.0","zynxvp2b","","","","","","","",""
"2257.3800000000047","{""judgement"":0}","[0]","survey-likert","85","394084","0.0-85.0","zynxvp2b","","","","","","","","0"
"4509.414999999979","{""confidence"":2}","[0]","survey-likert","86","398595","0.0-86.0","zynxvp2b","","","","","","","",""
"217634.825","","","instructions","87","616231","0.0-87.0","zynxvp2b","[{""page_index"":0,""viewing_time"":5000.51999999996},{""page_index"":1,""viewing_time"":211413.77500000002},{""page_index"":2,""viewing_time"":1220.359999999986}]","","","","","","",""
"5793.140000000014","","","instructions","88","622025","0.0-88.0","zynxvp2b","[{""page_index"":0,""viewing_time"":1037.329999999958},{""page_index"":1,""viewing_time"":3717.585000000079},{""page_index"":2,""viewing_time"":1038.1199999999953}]","","","","","","",""
"","","","call-function","89","622025","0.0-89.0","zynxvp2b","","","","","","","",""
"null","","","html-keyboard-response","90","623527","0.0-90.0","zynxvp2b","","<span style=""color:Black; font-size:50px;"">Agent A","null","","","","",""
"null","","","video-keyboard-response","91","626592","0.0-91.0","zynxvp2b","","","null","","Agent A","scrambled","STIM_SET_3/1159860.bmp_pp152_L2_V2_veridical_freeview_isoFalsemismatch_1159621.bmp_L3_fps90.mp4",""
"null","","","html-keyboard-response","92","628098","0.0-92.0","zynxvp2b","","<span style=""color:Black; font-size:50px;"">Agent B","null","","","","",""
"null","","","video-keyboard-response","93","631160","0.0-93.0","zynxvp2b","","","null","","Agent B","veridical","STIM_SET_1_REAL/1159621.bmp_pp92_L3_V1.0_veridical_freeview_isoFalse_fps144.mp4",""
"","","","call-function","94","631161","0.0-94.0","zynxvp2b","","","","","","","",""
"2907.1299999998882","{""judgement"":1}","[0]","survey-likert","95","634069","0.0-95.0","zynxvp2b","","","","","","","","1"
"4366.070000000065","{""confidence"":1}","[0]","survey-likert","96","638436","0.0-96.0","zynxvp2b","","","","","","","",""
"","","","call-function","97","638437","0.0-97.0","zynxvp2b","","","","","","","",""
"null","","","html-keyboard-response","98","639940","0.0-98.0","zynxvp2b","","<span style=""color:Black; font-size:50px;"">Agent A","null","","","","",""
"null","","","video-keyboard-response","99","643020","0.0-99.0","zynxvp2b","","","null","","Agent A","scrambled","STIM_SET_3/713381.bmp_pp82_L2_V2_veridical_freeview_isoFalsemismatch_1159572.bmp_L1_fps90.mp4",""
"null","","","html-keyboard-response","100","644524","0.0-100.0","zynxvp2b","","<span style=""color:Black; font-size:50px;"">Agent B","null","","","","",""
"null","","","video-keyboard-response","101","647587","0.0-101.0","zynxvp2b","","","null","","Agent B","veridical","STIM_SET_1_REAL/1159572.bmp_pp71_L1_V1.0_veridical_freeview_isoFalse_fps144.mp4",""
"","","","call-function","102","647588","0.0-102.0","zynxvp2b","","","","","","","",""
"2079.390000000014","{""judgement"":1}","[0]","survey-likert","103","649669","0.0-103.0","zynxvp2b","","","","","","","","1"
"3940.465000000084","{""confidence"":2}","[0]","survey-likert","104","653612","0.0-104.0","zynxvp2b","","","","","","","",""
"","","","call-function","105","653612","0.0-105.0","zynxvp2b","","","","","","","",""
"null","","","html-keyboard-response","106","655113","0.0-106.0","zynxvp2b","","<span style=""color:Black; font-size:50px;"">Agent A","null","","","","",""
"null","","","video-keyboard-response","107","658206","0.0-107.0","zynxvp2b","","","null","","Agent A","veridical","STIM_SET_1_REAL/1159813.bmp_pp79_L2_V1.0_veridical_freeview_isoFalse_fps144.mp4",""
"null","","","html-keyboard-response","108","659708","0.0-108.0","zynxvp2b","","<span style=""color:Black; font-size:50px;"">Agent B","null","","","","",""
"null","","","video-keyboard-response","109","662775","0.0-109.0","zynxvp2b","","","null","","Agent B","scrambled","STIM_SET_3/1592129.bmp_pp153_L3_V2_veridical_freeview_isoFalsemismatch_1159813.bmp_L2_fps90.mp4",""
"","","","call-function","110","662776","0.0-110.0","zynxvp2b","","","","","","","",""
"3302.6600000000326","{""judgement"":0}","[0]","survey-likert","111","666080","0.0-111.0","zynxvp2b","","","","","","","","0"
"2583.4250000000466","{""confidence"":2}","[0]","survey-likert","112","668665","0.0-112.0","zynxvp2b","","","","","","","",""
"","","","call-function","113","668665","0.0-113.0","zynxvp2b","","","","","","","",""
"null","","","html-keyboard-response","114","670166","0.0-114.0","zynxvp2b","","<span style=""color:Black; font-size:50px;"">Agent A","null","","","","",""
"null","","","video-keyboard-response","115","673228","0.0-115.0","zynxvp2b","","","null","","Agent A","scrambled","STIM_SET_3/1592047.bmp_pp51_L1_V2_veridical_freeview_isoFalsemismatch_713513.bmp_L2_fps90.mp4",""
"null","","","html-keyboard-response","116","674735","0.0-116.0","zynxvp2b","","<span style=""color:Black; font-size:50px;"">Agent B","null","","","","",""
"null","","","video-keyboard-response","117","677832","0.0-117.0","zynxvp2b","","","null","","Agent B","veridical","STIM_SET_1_REAL/713513.bmp_pp62_L2_V1.0_veridical_freeview_isoFalse_fps144.mp4",""
"","","","call-function","118","677833","0.0-118.0","zynxvp2b","","","","","","","",""
"2651.7299999999814","{""judgement"":1}","[0]","survey-likert","119","680485","0.0-119.0","zynxvp2b","","","","","","","","1"
"10736.604999999981","{""confidence"":1}","[0]","survey-likert","120","691223","0.0-120.0","zynxvp2b","","","","","","","",""
"","","","call-function","121","691225","0.0-121.0","zynxvp2b","","","","","","","",""
"null","","","html-keyboard-response","122","692726","0.0-122.0","zynxvp2b","","<span style=""color:Black; font-size:50px;"">Agent A","null","","","","",""
"null","","","video-keyboard-response","123","695835","0.0-123.0","zynxvp2b","","","null","","Agent A","scrambled","STIM_SET_3/498372.bmp_pp95_L2_V2_veridical_freeview_isoFalsemismatch_1160127.bmp_L2_fps90.mp4",""
"null","","","html-keyboard-response","124","697338","0.0-124.0","zynxvp2b","","<span style=""color:Black; font-size:50px;"">Agent B","null","","","","",""
"null","","","video-keyboard-response","125","700445","0.0-125.0","zynxvp2b","","","null","","Agent B","veridical","STIM_SET_1_REAL/1160127.bmp_pp90_L2_V1.0_veridical_freeview_isoFalse_fps144.mp4",""
"","","","call-function","126","700446","0.0-126.0","zynxvp2b","","","","","","","",""
"1405.6449999999022","{""judgement"":1}","[0]","survey-likert","127","701853","0.0-127.0","zynxvp2b","","","","","","","","1"
"2787.1500000000233","{""confidence"":2}","[0]","survey-likert","128","704641","0.0-128.0","zynxvp2b","","","","","","","",""
"","","","call-function","129","704642","0.0-129.0","zynxvp2b","","","","","","","",""
"null","","","html-keyboard-response","130","706148","0.0-130.0","zynxvp2b","","<span style=""color:Black; font-size:50px;"">Agent A","null","","","","",""
"null","","","video-keyboard-response","131","709260","0.0-131.0","zynxvp2b","","","null","","Agent A","scrambled","STIM_SET_3/285946.bmp_pp79_L2_V2_veridical_freeview_isoFalsemismatch_285751.bmp_L3_fps90.mp4",""
"null","","","html-keyboard-response","132","710768","0.0-132.0","zynxvp2b","","<span style=""color:Black; font-size:50px;"">Agent B","null","","","","",""
"null","","","video-keyboard-response","133","713846","0.0-133.0","zynxvp2b","","","null","","Agent B","veridical","STIM_SET_1_REAL/285751.bmp_pp55_L3_V1.0_veridical_freeview_isoFalse_fps144.mp4",""
"","","","call-function","134","713847","0.0-134.0","zynxvp2b","","","","","","","",""
"2618.45000000007","{""judgement"":1}","[0]","survey-likert","135","716467","0.0-135.0","zynxvp2b","","","","","","","","1"
"3731.405000000028","{""confidence"":2}","[0]","survey-likert","136","720200","0.0-136.0","zynxvp2b","","","","","","","",""
"","","","call-function","137","720201","0.0-137.0","zynxvp2b","","","","","","","",""
"null","","","html-keyboard-response","138","721705","0.0-138.0","zynxvp2b","","<span style=""color:Black; font-size:50px;"">Agent A","null","","","","",""
"null","","","video-keyboard-response","139","724775","0.0-139.0","zynxvp2b","","","null","","Agent A","scrambled","STIM_SET_3/1160204.bmp_pp54_L2_V2_veridical_freeview_isoFalsemismatch_286001.bmp_L2_fps90.mp4",""
"null","","","html-keyboard-response","140","726279","0.0-140.0","zynxvp2b","","<span style=""color:Black; font-size:50px;"">Agent B","null","","","","",""
"null","","","video-keyboard-response","141","729344","0.0-141.0","zynxvp2b","","","null","","Agent B","veridical","STIM_SET_1_REAL/286001.bmp_pp54_L2_V1.0_veridical_freeview_isoFalse_fps144.mp4",""
"","","","call-function","142","729345","0.0-142.0","zynxvp2b","","","","","","","",""
"6481.735000000102","{""judgement"":1}","[0]","survey-likert","143","735828","0.0-143.0","zynxvp2b","","","","","","","","1"
"6111.744999999995","{""confidence"":2}","[0]","survey-likert","144","741941","0.0-144.0","zynxvp2b","","","","","","","",""
"","","","call-function","145","741941","0.0-145.0","zynxvp2b","","","","","","","",""
"null","","","html-keyboard-response","146","743444","0.0-146.0","zynxvp2b","","<span style=""color:Black; font-size:50px;"">Agent A","null","","","","",""
"null","","","video-keyboard-response","147","746505","0.0-147.0","zynxvp2b","","","null","","Agent A","veridical","STIM_SET_1_REAL/1592351.bmp_pp51_L1_V1.0_veridical_freeview_isoFalse_fps144.mp4",""
"null","","","html-keyboard-response","148","748008","0.0-148.0","zynxvp2b","","<span style=""color:Black; font-size:50px;"">Agent B","null","","","","",""
"null","","","video-keyboard-response","149","751106","0.0-149.0","zynxvp2b","","","null","","Agent B","scrambled","STIM_SET_3/1592025.bmp_pp68_L1_V2_veridical_freeview_isoFalsemismatch_1592351.bmp_L1_fps90.mp4",""
"","","","call-function","150","751106","0.0-150.0","zynxvp2b","","","","","","","",""
"2423.7050000000745","{""judgement"":0}","[0]","survey-likert","151","753532","0.0-151.0","zynxvp2b","","","","","","","","0"
"1476.6600000000326","{""confidence"":3}","[0]","survey-likert","152","755010","0.0-152.0","zynxvp2b","","","","","","","",""
"","","","call-function","153","755010","0.0-153.0","zynxvp2b","","","","","","","",""
"null","","","html-keyboard-response","154","756513","0.0-154.0","zynxvp2b","","<span style=""color:Black; font-size:50px;"">Agent A","null","","","","",""
"null","","","video-keyboard-response","155","759620","0.0-155.0","zynxvp2b","","","null","","Agent A","veridical","STIM_SET_1_REAL/1591961.bmp_pp67_L2_V1.0_veridical_freeview_isoFalse_fps144.mp4",""
"null","","","html-keyboard-response","156","761124","0.0-156.0","zynxvp2b","","<span style=""color:Black; font-size:50px;"">Agent B","null","","","","",""
"null","","","video-keyboard-response","157","764226","0.0-157.0","zynxvp2b","","","null","","Agent B","scrambled","STIM_SET_3/1592530.bmp_pp75_L1_V2_veridical_freeview_isoFalsemismatch_1591961.bmp_L2_fps90.mp4",""
"","","","call-function","158","764226","0.0-158.0","zynxvp2b","","","","","","","",""
"2402.179999999935","{""judgement"":0}","[0]","survey-likert","159","766629","0.0-159.0","zynxvp2b","","","","","","","","0"
"4728.95000000007","{""confidence"":3}","[0]","survey-likert","160","771359","0.0-160.0","zynxvp2b","","","","","","","",""
"","","","call-function","161","771360","0.0-161.0","zynxvp2b","","","","","","","",""
"null","","","html-keyboard-response","162","772862","0.0-162.0","zynxvp2b","","<span style=""color:Black; font-size:50px;"">Agent A","null","","","","",""
"null","","","video-keyboard-response","163","775953","0.0-163.0","zynxvp2b","","","null","","Agent A","scrambled","STIM_SET_3/1592044.bmp_pp94_L2_V2_veridical_freeview_isoFalsemismatch_1159446.bmp_L3_fps90.mp4",""
"null","","","html-keyboard-response","164","777457","0.0-164.0","zynxvp2b","","<span style=""color:Black; font-size:50px;"">Agent B","null","","","","",""
"null","","","video-keyboard-response","165","780519","0.0-165.0","zynxvp2b","","","null","","Agent B","veridical","STIM_SET_1_REAL/1159446.bmp_pp60_L3_V1.0_veridical_freeview_isoFalse_fps144.mp4",""
"","","","call-function","166","780519","0.0-166.0","zynxvp2b","","","","","","","",""
"34634.484999999986","{""judgement"":0}","[0]","survey-likert","167","815155","0.0-167.0","zynxvp2b","","","","","","","","1"
"2120.0299999999115","{""confidence"":0}","[0]","survey-likert","168","817276","0.0-168.0","zynxvp2b","","","","","","","",""
"9538.410000000033","","","instructions","169","826816","0.0-169.0","zynxvp2b","[{""page_index"":0,""viewing_time"":3683.9250000000466},{""page_index"":1,""viewing_time"":2466.069999999949},{""page_index"":2,""viewing_time"":3388.2600000000093}]","","","","","","",""
"4712.484999999986","","","instructions","170","831530","0.0-170.0","zynxvp2b","[{""page_index"":0,""viewing_time"":1485.2150000000838},{""page_index"":1,""viewing_time"":2349.6849999999395},{""page_index"":2,""viewing_time"":877.375}]","","","","","","",""
"","","","call-function","171","831531","0.0-171.0","zynxvp2b","","","","","","","",""
"null","","","html-keyboard-response","172","833035","0.0-172.0","zynxvp2b","","<span style=""color:Black; font-size:50px;"">Agent A","null","","","","",""
"null","","","video-keyboard-response","173","836108","0.0-173.0","zynxvp2b","","","null","","Agent A","scrambled","STIM_SET_3/150277.bmp_pp65_L3_V2_veridical_freeview_isoFalsemismatch_1592362.bmp_L2_fps90.mp4",""
"null","","","html-keyboard-response","174","837612","0.0-174.0","zynxvp2b","","<span style=""color:Black; font-size:50px;"">Agent B","null","","","","",""
"null","","","video-keyboard-response","175","840682","0.0-175.0","zynxvp2b","","","null","","Agent B","veridical","STIM_SET_1_REAL/1592362.bmp_pp95_L2_V1.0_veridical_freeview_isoFalse_fps144.mp4",""
"","","","call-function","176","840683","0.0-176.0","zynxvp2b","","","","","","","",""
"31899.26000000001","{""judgement"":1}","[0]","survey-likert","177","872583","0.0-177.0","zynxvp2b","","","","","","","","1"
"3140.805000000051","{""confidence"":1}","[0]","survey-likert","178","875725","0.0-178.0","zynxvp2b","","","","","","","",""
"","","","call-function","179","875726","0.0-179.0","zynxvp2b","","","","","","","",""
"null","","","html-keyboard-response","180","877229","0.0-180.0","zynxvp2b","","<span style=""color:Black; font-size:50px;"">Agent A","null","","","","",""
"null","","","video-keyboard-response","181","880293","0.0-181.0","zynxvp2b","","","null","","Agent A","veridical","STIM_SET_1_REAL/1159882.bmp_pp61_L2_V1.0_veridical_freeview_isoFalse_fps144.mp4",""
"null","","","html-keyboard-response","182","881794","0.0-182.0","zynxvp2b","","<span style=""color:Black; font-size:50px;"">Agent B","null","","","","",""
"null","","","video-keyboard-response","183","884861","0.0-183.0","zynxvp2b","","","null","","Agent B","scrambled","STIM_SET_3/285715.bmp_pp67_L2_V2_veridical_freeview_isoFalsemismatch_1159882.bmp_L2_fps90.mp4",""
"","","","call-function","184","884861","0.0-184.0","zynxvp2b","","","","","","","",""
"4222.599999999977","{""judgement"":0}","[0]","survey-likert","185","889085","0.0-185.0","zynxvp2b","","","","","","","","0"
"1486.0899999999674","{""confidence"":2}","[0]","survey-likert","186","890572","0.0-186.0","zynxvp2b","","","","","","","",""
"","","","call-function","187","890573","0.0-187.0","zynxvp2b","","","","","","","",""
"null","","","html-keyboard-response","188","892076","0.0-188.0","zynxvp2b","","<span style=""color:Black; font-size:50px;"">Agent A","null","","","","",""
"null","","","video-keyboard-response","189","895172","0.0-189.0","zynxvp2b","","","null","","Agent A","scrambled","STIM_SET_3/713920.bmp_pp76_L1_V2_veridical_freeview_isoFalsemismatch_713684.bmp_L3_fps90.mp4",""
"null","","","html-keyboard-response","190","896675","0.0-190.0","zynxvp2b","","<span style=""color:Black; font-size:50px;"">Agent B","null","","","","",""
"null","","","video-keyboard-response","191","899750","0.0-191.0","zynxvp2b","","","null","","Agent B","veridical","STIM_SET_1_REAL/713684.bmp_pp85_L3_V1.0_veridical_freeview_isoFalse_fps144.mp4",""
"","","","call-function","192","899751","0.0-192.0","zynxvp2b","","","","","","","",""
"4788.729999999981","{""judgement"":0}","[0]","survey-likert","193","904541","0.0-193.0","zynxvp2b","","","","","","","","1"
"3353.8649999999907","{""confidence"":2}","[0]","survey-likert","194","907896","0.0-194.0","zynxvp2b","","","","","","","",""
"","","","call-function","195","907896","0.0-195.0","zynxvp2b","","","","","","","",""
"null","","","html-keyboard-response","196","909398","0.0-196.0","zynxvp2b","","<span style=""color:Black; font-size:50px;"">Agent A","null","","","","",""
"null","","","video-keyboard-response","197","912484","0.0-197.0","zynxvp2b","","","null","","Agent A","scrambled","STIM_SET_3/1159874.bmp_pp96_L2_V2_veridical_freeview_isoFalsemismatch_1159515.bmp_L3_fps90.mp4",""
"null","","","html-keyboard-response","198","913987","0.0-198.0","zynxvp2b","","<span style=""color:Black; font-size:50px;"">Agent B","null","","","","",""
"null","","","video-keyboard-response","199","917085","0.0-199.0","zynxvp2b","","","null","","Agent B","veridical","STIM_SET_1_REAL/1159515.bmp_pp84_L3_V1.0_veridical_freeview_isoFalse_fps144.mp4",""
"","","","call-function","200","917086","0.0-200.0","zynxvp2b","","","","","","","",""
"2226.9749999999767","{""judgement"":1}","[0]","survey-likert","201","919314","0.0-201.0","zynxvp2b","","","","","","","","1"
"2781.689999999944","{""confidence"":2}","[0]","survey-likert","202","922097","0.0-202.0","zynxvp2b","","","","","","","",""
"","","","call-function","203","922097","0.0-203.0","zynxvp2b","","","","","","","",""
"null","","","html-keyboard-response","204","923603","0.0-204.0","zynxvp2b","","<span style=""color:Black; font-size:50px;"">Agent A","null","","","","",""
"null","","","video-keyboard-response","205","926704","0.0-205.0","zynxvp2b","","","null","","Agent A","scrambled","STIM_SET_3/1592038.bmp_pp79_L2_V2_veridical_freeview_isoFalsemismatch_1592727.bmp_L3_fps90.mp4",""
"null","","","html-keyboard-response","206","928205","0.0-206.0","zynxvp2b","","<span style=""color:Black; font-size:50px;"">Agent B","null","","","","",""
"null","","","video-keyboard-response","207","931298","0.0-207.0","zynxvp2b","","","null","","Agent B","veridical","STIM_SET_1_REAL/1592727.bmp_pp59_L3_V1.0_veridical_freeview_isoFalse_fps144.mp4",""
"","","","call-function","208","931298","0.0-208.0","zynxvp2b","","","","","","","",""
"3401.234999999986","{""judgement"":1}","[0]","survey-likert","209","934700","0.0-209.0","zynxvp2b","","","","","","","","1"
"4156.680000000051","{""confidence"":2}","[0]","survey-likert","210","938858","0.0-210.0","zynxvp2b","","","","","","","",""
"","","","call-function","211","938859","0.0-211.0","zynxvp2b","","","","","","","",""
"null","","","html-keyboard-response","212","940363","0.0-212.0","zynxvp2b","","<span style=""color:Black; font-size:50px;"">Agent A","null","","","","",""
"null","","","video-keyboard-response","213","943470","0.0-213.0","zynxvp2b","","","null","","Agent A","scrambled","STIM_SET_3/498261.bmp_pp84_L3_V2_veridical_freeview_isoFalsemismatch_1592657.bmp_L1_fps90.mp4",""
"null","","","html-keyboard-response","214","944974","0.0-214.0","zynxvp2b","","<span style=""color:Black; font-size:50px;"">Agent B","null","","","","",""
"null","","","video-keyboard-response","215","948049","0.0-215.0","zynxvp2b","","","null","","Agent B","veridical","STIM_SET_1_REAL/1592657.bmp_pp98_L1_V1.0_veridical_freeview_isoFalse_fps144.mp4",""
"","","","call-function","216","948049","0.0-216.0","zynxvp2b","","","","","","","",""
"5391.260000000009","{""judgement"":1}","[0]","survey-likert","217","953441","0.0-217.0","zynxvp2b","","","","","","","","1"
"2532.210000000079","{""confidence"":2}","[0]","survey-likert","218","955975","0.0-218.0","zynxvp2b","","","","","","","",""
"","","","call-function","219","955976","0.0-219.0","zynxvp2b","","","","","","","",""
"null","","","html-keyboard-response","220","957477","0.0-220.0","zynxvp2b","","<span style=""color:Black; font-size:50px;"">Agent A","null","","","","",""
"null","","","video-keyboard-response","221","960574","0.0-221.0","zynxvp2b","","","null","","Agent A","scrambled","STIM_SET_3/1592350.bmp_pp55_L3_V2_veridical_freeview_isoFalsemismatch_498111.bmp_L2_fps90.mp4",""
"null","","","html-keyboard-response","222","962079","0.0-222.0","zynxvp2b","","<span style=""color:Black; font-size:50px;"">Agent B","null","","","","",""
"null","","","video-keyboard-response","223","965171","0.0-223.0","zynxvp2b","","","null","","Agent B","veridical","STIM_SET_1_REAL/498111.bmp_pp88_L2_V1.0_veridical_freeview_isoFalse_fps144.mp4",""
"","","","call-function","224","965173","0.0-224.0","zynxvp2b","","","","","","","",""
"2761.0449999999255","{""judgement"":0}","[0]","survey-likert","225","967935","0.0-225.0","zynxvp2b","","","","","","","","1"
"1691.530000000028","{""confidence"":0}","[0]","survey-likert","226","969629","0.0-226.0","zynxvp2b","","","","","","","",""
"","","","call-function","227","969630","0.0-227.0","zynxvp2b","","","","","","","",""
"null","","","html-keyboard-response","228","971134","0.0-228.0","zynxvp2b","","<span style=""color:Black; font-size:50px;"">Agent A","null","","","","",""
"null","","","video-keyboard-response","229","974232","0.0-229.0","zynxvp2b","","","null","","Agent A","scrambled","STIM_SET_3/1160189.bmp_pp64_L1_V2_veridical_freeview_isoFalsemismatch_1592581.bmp_L3_fps90.mp4",""
"null","","","html-keyboard-response","230","975735","0.0-230.0","zynxvp2b","","<span style=""color:Black; font-size:50px;"">Agent B","null","","","","",""
"null","","","video-keyboard-response","231","978803","0.0-231.0","zynxvp2b","","","null","","Agent B","veridical","STIM_SET_1_REAL/1592581.bmp_pp100_L3_V1.0_veridical_freeview_isoFalse_fps144.mp4",""
"","","","call-function","232","978804","0.0-232.0","zynxvp2b","","","","","","","",""
"4360.570000000065","{""judgement"":1}","[0]","survey-likert","233","983165","0.0-233.0","zynxvp2b","","","","","","","","1"
"23731.31999999995","{""confidence"":2}","[0]","survey-likert","234","1006898","0.0-234.0","zynxvp2b","","","","","","","",""
"","","","call-function","235","1006899","0.0-235.0","zynxvp2b","","","","","","","",""
"null","","","html-keyboard-response","236","1008401","0.0-236.0","zynxvp2b","","<span style=""color:Black; font-size:50px;"">Agent A","null","","","","",""
"null","","","video-keyboard-response","237","1011467","0.0-237.0","zynxvp2b","","","null","","Agent A","scrambled","STIM_SET_3/1592017.bmp_pp154_L1_V2_veridical_freeview_isoFalsemismatch_1159777.bmp_L3_fps90.mp4",""
"null","","","html-keyboard-response","238","1012972","0.0-238.0","zynxvp2b","","<span style=""color:Black; font-size:50px;"">Agent B","null","","","","",""
"null","","","video-keyboard-response","239","1016049","0.0-239.0","zynxvp2b","","","null","","Agent B","veridical","STIM_SET_1_REAL/1159777.bmp_pp77_L3_V1.0_veridical_freeview_isoFalse_fps144.mp4",""
"","","","call-function","240","1016050","0.0-240.0","zynxvp2b","","","","","","","",""
"2787.32500000007","{""judgement"":1}","[0]","survey-likert","241","1018838","0.0-241.0","zynxvp2b","","","","","","","","1"
"23417.744999999995","{""confidence"":1}","[0]","survey-likert","242","1042257","0.0-242.0","zynxvp2b","","","","","","","",""
"","","","call-function","243","1042258","0.0-243.0","zynxvp2b","","","","","","","",""
"null","","","html-keyboard-response","244","1043761","0.0-244.0","zynxvp2b","","<span style=""color:Black; font-size:50px;"">Agent A","null","","","","",""
"null","","","video-keyboard-response","245","1046828","0.0-245.0","zynxvp2b","","","null","","Agent A","scrambled","STIM_SET_3/1592921.bmp_pp69_L3_V2_veridical_freeview_isoFalsemismatch_713211.bmp_L3_fps90.mp4",""
"null","","","html-keyboard-response","246","1048331","0.0-246.0","zynxvp2b","","<span style=""color:Black; font-size:50px;"">Agent B","null","","","","",""
"null","","","video-keyboard-response","247","1051409","0.0-247.0","zynxvp2b","","","null","","Agent B","veridical","STIM_SET_1_REAL/713211.bmp_pp100_L3_V1.0_veridical_freeview_isoFalse_fps144.mp4",""
"","","","call-function","248","1051410","0.0-248.0","zynxvp2b","","","","","","","",""
"3537.0550000001676","{""judgement"":1}","[0]","survey-likert","249","1054947","0.0-249.0","zynxvp2b","","","","","","","","1"
"2554.594999999972","{""confidence"":1}","[0]","survey-likert","250","1057503","0.0-250.0","zynxvp2b","","","","","","","",""
"3846.6999999999534","","","instructions","251","1061352","0.0-251.0","zynxvp2b","[{""page_index"":0,""viewing_time"":2274.5049999998882},{""page_index"":1,""viewing_time"":966.2350000001024},{""page_index"":2,""viewing_time"":605.7900000000373}]","","","","","","",""
"4382.260000000009","","","instructions","252","1065735","0.0-252.0","zynxvp2b","[{""page_index"":0,""viewing_time"":714.25},{""page_index"":1,""viewing_time"":2309.8000000000466},{""page_index"":2,""viewing_time"":1358.1000000000931}]","","","","","","",""
"","","","call-function","253","1065735","0.0-253.0","zynxvp2b","","","","","","","",""
"null","","","html-keyboard-response","254","1067238","0.0-254.0","zynxvp2b","","<span style=""color:Black; font-size:50px;"">Agent A","null","","","","",""
"null","","","video-keyboard-response","255","1070332","0.0-255.0","zynxvp2b","","","null","","Agent A","scrambled","STIM_SET_3/1591920.bmp_pp97_L3_V2_veridical_freeview_isoFalsemismatch_1592804.bmp_L3_fps90.mp4",""
"null","","","html-keyboard-response","256","1071838","0.0-256.0","zynxvp2b","","<span style=""color:Black; font-size:50px;"">Agent B","null","","","","",""
"null","","","video-keyboard-response","257","1074914","0.0-257.0","zynxvp2b","","","null","","Agent B","veridical","STIM_SET_1_REAL/1592804.bmp_pp91_L3_V1.0_veridical_freeview_isoFalse_fps144.mp4",""
"","","","call-function","258","1074914","0.0-258.0","zynxvp2b","","","","","","","",""
"3732.4250000000466","{""judgement"":1}","[0]","survey-likert","259","1078647","0.0-259.0","zynxvp2b","","","","","","","","1"
"9114.949999999953","{""confidence"":1}","[0]","survey-likert","260","1087764","0.0-260.0","zynxvp2b","","","","","","","",""
"","","","call-function","261","1087764","0.0-261.0","zynxvp2b","","","","","","","",""
"null","","","html-keyboard-response","262","1089267","0.0-262.0","zynxvp2b","","<span style=""color:Black; font-size:50px;"">Agent A","null","","","","",""
"null","","","video-keyboard-response","263","1092328","0.0-263.0","zynxvp2b","","","null","","Agent A","veridical","STIM_SET_1_REAL/713089.bmp_pp60_L3_V1.0_veridical_freeview_isoFalse_fps144.mp4",""
"null","","","html-keyboard-response","264","1093832","0.0-264.0","zynxvp2b","","<span style=""color:Black; font-size:50px;"">Agent B","null","","","","",""
"null","","","video-keyboard-response","265","1096929","0.0-265.0","zynxvp2b","","","null","","Agent B","scrambled","STIM_SET_3/1592201.bmp_pp97_L3_V2_veridical_freeview_isoFalsemismatch_713089.bmp_L3_fps90.mp4",""
"","","","call-function","266","1096931","0.0-266.0","zynxvp2b","","","","","","","",""
"2970.6949999998324","{""judgement"":0}","[0]","survey-likert","267","1099903","0.0-267.0","zynxvp2b","","","","","","","","0"
"2331.350000000093","{""confidence"":2}","[0]","survey-likert","268","1102236","0.0-268.0","zynxvp2b","","","","","","","",""
"","","","call-function","269","1102237","0.0-269.0","zynxvp2b","","","","","","","",""
"null","","","html-keyboard-response","270","1103738","0.0-270.0","zynxvp2b","","<span style=""color:Black; font-size:50px;"">Agent A","null","","","","",""
"null","","","video-keyboard-response","271","1106803","0.0-271.0","zynxvp2b","","","null","","Agent A","veridical","STIM_SET_1_REAL/1592890.bmp_pp82_L2_V1.0_veridical_freeview_isoFalse_fps144.mp4",""
"null","","","html-keyboard-response","272","1108307","0.0-272.0","zynxvp2b","","<span style=""color:Black; font-size:50px;"">Agent B","null","","","","",""
"null","","","video-keyboard-response","273","1111403","0.0-273.0","zynxvp2b","","","null","","Agent B","scrambled","STIM_SET_3/1592168.bmp_pp71_L1_V2_veridical_freeview_isoFalsemismatch_1592890.bmp_L2_fps90.mp4",""
"","","","call-function","274","1111404","0.0-274.0","zynxvp2b","","","","","","","",""
"10909.895000000019","{""judgement"":0}","[0]","survey-likert","275","1122315","0.0-275.0","zynxvp2b","","","","","","","","0"
"28639.430000000168","{""confidence"":1}","[0]","survey-likert","276","1150956","0.0-276.0","zynxvp2b","","","","","","","",""
"","","","call-function","277","1150957","0.0-277.0","zynxvp2b","","","","","","","",""
"null","","","html-keyboard-response","278","1152458","0.0-278.0","zynxvp2b","","<span style=""color:Black; font-size:50px;"">Agent A","null","","","","",""
"null","","","video-keyboard-response","279","1155536","0.0-279.0","zynxvp2b","","","null","","Agent A","veridical","STIM_SET_1_REAL/713620.bmp_pp65_L3_V1.0_veridical_freeview_isoFalse_fps144.mp4",""
"null","","","html-keyboard-response","280","1157043","0.0-280.0","zynxvp2b","","<span style=""color:Black; font-size:50px;"">Agent B","null","","","","",""
"null","","","video-keyboard-response","281","1160105","0.0-281.0","zynxvp2b","","","null","","Agent B","scrambled","STIM_SET_3/498398.bmp_pp81_L1_V2_veridical_freeview_isoFalsemismatch_713620.bmp_L3_fps90.mp4",""
"","","","call-function","282","1160107","0.0-282.0","zynxvp2b","","","","","","","",""
"1803.7050000000745","{""judgement"":0}","[0]","survey-likert","283","1161912","0.0-283.0","zynxvp2b","","","","","","","","0"
"1757.0649999999441","{""confidence"":2}","[0]","survey-likert","284","1163671","0.0-284.0","zynxvp2b","","","","","","","",""
"","","","call-function","285","1163672","0.0-285.0","zynxvp2b","","","","","","","",""
"null","","","html-keyboard-response","286","1165174","0.0-286.0","zynxvp2b","","<span style=""color:Black; font-size:50px;"">Agent A","null","","","","",""
"null","","","video-keyboard-response","287","1168251","0.0-287.0","zynxvp2b","","","null","","Agent A","scrambled","STIM_SET_3/1591781.bmp_pp63_L1_V2_veridical_freeview_isoFalsemismatch_1593041.bmp_L1_fps90.mp4",""
"null","","","html-keyboard-response","288","1169753","0.0-288.0","zynxvp2b","","<span style=""color:Black; font-size:50px;"">Agent B","null","","","","",""
"null","","","video-keyboard-response","289","1172840","0.0-289.0","zynxvp2b","","","null","","Agent B","veridical","STIM_SET_1_REAL/1593041.bmp_pp58_L1_V1.0_veridical_freeview_isoFalse_fps144.mp4",""
"","","","call-function","290","1172841","0.0-290.0","zynxvp2b","","","","","","","",""
"1932.1650000000373","{""judgement"":1}","[0]","survey-likert","291","1174774","0.0-291.0","zynxvp2b","","","","","","","","1"
"1952.3100000000559","{""confidence"":2}","[0]","survey-likert","292","1176728","0.0-292.0","zynxvp2b","","","","","","","",""
"","","","call-function","293","1176728","0.0-293.0","zynxvp2b","","","","","","","",""
"null","","","html-keyboard-response","294","1178230","0.0-294.0","zynxvp2b","","<span style=""color:Black; font-size:50px;"">Agent A","null","","","","",""
"null","","","video-keyboard-response","295","1181302","0.0-295.0","zynxvp2b","","","null","","Agent A","scrambled","STIM_SET_3/498258.bmp_pp51_L1_V2_veridical_freeview_isoFalsemismatch_498155.bmp_L2_fps90.mp4",""
"null","","","html-keyboard-response","296","1182807","0.0-296.0","zynxvp2b","","<span style=""color:Black; font-size:50px;"">Agent B","null","","","","",""
"null","","","video-keyboard-response","297","1185911","0.0-297.0","zynxvp2b","","","null","","Agent B","veridical","STIM_SET_1_REAL/498155.bmp_pp61_L2_V1.0_veridical_freeview_isoFalse_fps144.mp4",""
"","","","call-function","298","1185912","0.0-298.0","zynxvp2b","","","","","","","",""
"1585.8649999999907","{""judgement"":1}","[0]","survey-likert","299","1187499","0.0-299.0","zynxvp2b","","","","","","","","1"
"1260.9499999999534","{""confidence"":3}","[0]","survey-likert","300","1188761","0.0-300.0","zynxvp2b","","","","","","","",""
"","","","call-function","301","1188763","0.0-301.0","zynxvp2b","","","","","","","",""
"null","","","html-keyboard-response","302","1190265","0.0-302.0","zynxvp2b","","<span style=""color:Black; font-size:50px;"">Agent A","null","","","","",""
"null","","","video-keyboard-response","303","1193368","0.0-303.0","zynxvp2b","","","null","","Agent A","scrambled","STIM_SET_3/1160247.bmp_pp54_L2_V2_veridical_freeview_isoFalsemismatch_1592133.bmp_L1_fps90.mp4",""
"null","","","html-keyboard-response","304","1194870","0.0-304.0","zynxvp2b","","<span style=""color:Black; font-size:50px;"">Agent B","null","","","","",""
"null","","","video-keyboard-response","305","1197962","0.0-305.0","zynxvp2b","","","null","","Agent B","veridical","STIM_SET_1_REAL/1592133.bmp_pp75_L1_V1.0_veridical_freeview_isoFalse_fps144.mp4",""
"","","","call-function","306","1197963","0.0-306.0","zynxvp2b","","","","","","","",""
"2821.7100000001956","{""judgement"":1}","[0]","survey-likert","307","1200786","0.0-307.0","zynxvp2b","","","","","","","","1"
"1069.155000000028","{""confidence"":1}","[0]","survey-likert","308","1201856","0.0-308.0","zynxvp2b","","","","","","","",""
"","","","call-function","309","1201857","0.0-309.0","zynxvp2b","","","","","","","",""
"null","","","html-keyboard-response","310","1203359","0.0-310.0","zynxvp2b","","<span style=""color:Black; font-size:50px;"">Agent A","null","","","","",""
"null","","","video-keyboard-response","311","1206472","0.0-311.0","zynxvp2b","","","null","","Agent A","scrambled","STIM_SET_3/498025.bmp_pp81_L1_V2_veridical_freeview_isoFalsemismatch_713681.bmp_L2_fps90.mp4",""
"null","","","html-keyboard-response","312","1207973","0.0-312.0","zynxvp2b","","<span style=""color:Black; font-size:50px;"">Agent B","null","","","","",""
"null","","","video-keyboard-response","313","1211060","0.0-313.0","zynxvp2b","","","null","","Agent B","veridical","STIM_SET_1_REAL/713681.bmp_pp86_L2_V1.0_veridical_freeview_isoFalse_fps144.mp4",""
"","","","call-function","314","1211061","0.0-314.0","zynxvp2b","","","","","","","",""
"5166.030000000028","{""judgement"":0}","[0]","survey-likert","315","1216228","0.0-315.0","zynxvp2b","","","","","","","","1"
"2111.689999999944","{""confidence"":1}","[0]","survey-likert","316","1218341","0.0-316.0","zynxvp2b","","","","","","","",""
"","","","call-function","317","1218341","0.0-317.0","zynxvp2b","","","","","","","",""
"null","","","html-keyboard-response","318","1219844","0.0-318.0","zynxvp2b","","<span style=""color:Black; font-size:50px;"">Agent A","null","","","","",""
"null","","","video-keyboard-response","319","1222943","0.0-319.0","zynxvp2b","","","null","","Agent A","veridical","STIM_SET_1_REAL/1592934.bmp_pp63_L1_V1.0_veridical_freeview_isoFalse_fps144.mp4",""
"null","","","html-keyboard-response","320","1224446","0.0-320.0","zynxvp2b","","<span style=""color:Black; font-size:50px;"">Agent B","null","","","","",""
"null","","","video-keyboard-response","321","1227511","0.0-321.0","zynxvp2b","","","null","","Agent B","scrambled","STIM_SET_3/1159392.bmp_pp96_L2_V2_veridical_freeview_isoFalsemismatch_1592934.bmp_L1_fps90.mp4",""
"","","","call-function","322","1227512","0.0-322.0","zynxvp2b","","","","","","","",""
"6511.675000000047","{""judgement"":1}","[0]","survey-likert","323","1234024","0.0-323.0","zynxvp2b","","","","","","","","0"
"2172.809999999823","{""confidence"":2}","[0]","survey-likert","324","1236198","0.0-324.0","zynxvp2b","","","","","","","",""
"","","","call-function","325","1236199","0.0-325.0","zynxvp2b","","","","","","","",""
"null","","","html-keyboard-response","326","1237703","0.0-326.0","zynxvp2b","","<span style=""color:Black; font-size:50px;"">Agent A","null","","","","",""
"null","","","video-keyboard-response","327","1240770","0.0-327.0","zynxvp2b","","","null","","Agent A","scrambled","STIM_SET_3/1159956.bmp_pp59_L3_V2_veridical_freeview_isoFalsemismatch_1159829.bmp_L3_fps90.mp4",""
"null","","","html-keyboard-response","328","1242274","0.0-328.0","zynxvp2b","","<span style=""color:Black; font-size:50px;"">Agent B","null","","","","",""
"null","","","video-keyboard-response","329","1245348","0.0-329.0","zynxvp2b","","","null","","Agent B","veridical","STIM_SET_1_REAL/1159829.bmp_pp91_L3_V1.0_veridical_freeview_isoFalse_fps144.mp4",""
"","","","call-function","330","1245349","0.0-330.0","zynxvp2b","","","","","","","",""
"22313.934999999823","{""judgement"":0}","[0]","survey-likert","331","1267663","0.0-331.0","zynxvp2b","","","","","","","","1"
"4736.860000000102","{""confidence"":2}","[0]","survey-likert","332","1272402","0.0-332.0","zynxvp2b","","","","","","","",""
"448498.615","","","instructions","333","1720902","0.0-333.0","zynxvp2b","[{""page_index"":0,""viewing_time"":1944.7650000001304},{""page_index"":1,""viewing_time"":446248.08999999985},{""page_index"":2,""viewing_time"":305.6049999999814}]","","","","","","",""
"2880.725000000093","","","instructions","334","1723785","0.0-334.0","zynxvp2b","[{""page_index"":0,""viewing_time"":337.4350000000559},{""page_index"":1,""viewing_time"":1524.719999999972},{""page_index"":2,""viewing_time"":1018.464999999851}]","","","","","","",""
"","","","call-function","335","1723786","0.0-335.0","zynxvp2b","","","","","","","",""
"null","","","html-keyboard-response","336","1725290","0.0-336.0","zynxvp2b","","<span style=""color:Black; font-size:50px;"">Agent A","null","","","","",""
"null","","","video-keyboard-response","337","1728351","0.0-337.0","zynxvp2b","","","null","","Agent A","veridical","STIM_SET_1_REAL/1592817.bmp_pp55_L3_V1.0_veridical_freeview_isoFalse_fps144.mp4",""
"null","","","html-keyboard-response","338","1729854","0.0-338.0","zynxvp2b","","<span style=""color:Black; font-size:50px;"">Agent B","null","","","","",""
"null","","","video-keyboard-response","339","1732938","0.0-339.0","zynxvp2b","","","null","","Agent B","scrambled","STIM_SET_3/1159329.bmp_pp61_L2_V2_veridical_freeview_isoFalsemismatch_1592817.bmp_L3_fps90.mp4",""
"","","","call-function","340","1732939","0.0-340.0","zynxvp2b","","","","","","","",""
"1138.6649999998044","{""judgement"":0}","[0]","survey-likert","341","1734078","0.0-341.0","zynxvp2b","","","","","","","","0"
"933.1500000001397","{""confidence"":2}","[0]","survey-likert","342","1735013","0.0-342.0","zynxvp2b","","","","","","","",""
"","","","call-function","343","1735014","0.0-343.0","zynxvp2b","","","","","","","",""
"null","","","html-keyboard-response","344","1736517","0.0-344.0","zynxvp2b","","<span style=""color:Black; font-size:50px;"">Agent A","null","","","","",""
"null","","","video-keyboard-response","345","1739595","0.0-345.0","zynxvp2b","","","null","","Agent A","veridical","STIM_SET_1_REAL/1591954.bmp_pp62_L2_V1.0_veridical_freeview_isoFalse_fps144.mp4",""
"null","","","html-keyboard-response","346","1741100","0.0-346.0","zynxvp2b","","<span style=""color:Black; font-size:50px;"">Agent B","null","","","","",""
"null","","","video-keyboard-response","347","1744159","0.0-347.0","zynxvp2b","","","null","","Agent B","scrambled","STIM_SET_3/1160049.bmp_pp53_L2_V2_veridical_freeview_isoFalsemismatch_1591954.bmp_L2_fps90.mp4",""
"","","","call-function","348","1744160","0.0-348.0","zynxvp2b","","","","","","","",""
"2487.4849999998696","{""judgement"":1}","[0]","survey-likert","349","1746648","0.0-349.0","zynxvp2b","","","","","","","","0"
"1644.9000000001397","{""confidence"":2}","[0]","survey-likert","350","1748294","0.0-350.0","zynxvp2b","","","","","","","",""
"","","","call-function","351","1748295","0.0-351.0","zynxvp2b","","","","","","","",""
"null","","","html-keyboard-response","352","1749798","0.0-352.0","zynxvp2b","","<span style=""color:Black; font-size:50px;"">Agent A","null","","","","",""
"null","","","video-keyboard-response","353","1752909","0.0-353.0","zynxvp2b","","","null","","Agent A","veridical","STIM_SET_1_REAL/1591994.bmp_pp69_L3_V1.0_veridical_freeview_isoFalse_fps144.mp4",""
"null","","","html-keyboard-response","354","1754414","0.0-354.0","zynxvp2b","","<span style=""color:Black; font-size:50px;"">Agent B","null","","","","",""
"null","","","video-keyboard-response","355","1757509","0.0-355.0","zynxvp2b","","","null","","Agent B","scrambled","STIM_SET_3/713328.bmp_pp86_L2_V2_veridical_freeview_isoFalsemismatch_1591994.bmp_L3_fps90.mp4",""
"","","","call-function","356","1757509","0.0-356.0","zynxvp2b","","","","","","","",""
"2864.969999999972","{""judgement"":1}","[0]","survey-likert","357","1760375","0.0-357.0","zynxvp2b","","","","","","","","0"
"3009.530000000028","{""confidence"":2}","[0]","survey-likert","358","1763386","0.0-358.0","zynxvp2b","","","","","","","",""
"","","","call-function","359","1763386","0.0-359.0","zynxvp2b","","","","","","","",""
"null","","","html-keyboard-response","360","1764890","0.0-360.0","zynxvp2b","","<span style=""color:Black; font-size:50px;"">Agent A","null","","","","",""
"null","","","video-keyboard-response","361","1767991","0.0-361.0","zynxvp2b","","","null","","Agent A","scrambled","STIM_SET_3/1592298.bmp_pp56_L3_V2_veridical_freeview_isoFalsemismatch_1593146.bmp_L1_fps90.mp4",""
"null","","","html-keyboard-response","362","1769498","0.0-362.0","zynxvp2b","","<span style=""color:Black; font-size:50px;"">Agent B","null","","","","",""
"null","","","video-keyboard-response","363","1772602","0.0-363.0","zynxvp2b","","","null","","Agent B","veridical","STIM_SET_1_REAL/1593146.bmp_pp93_L1_V1.0_veridical_freeview_isoFalse_fps144.mp4",""
"","","","call-function","364","1772603","0.0-364.0","zynxvp2b","","","","","","","",""
"2603.6049999999814","{""judgement"":1}","[0]","survey-likert","365","1775207","0.0-365.0","zynxvp2b","","","","","","","","1"
"1915.1400000001304","{""confidence"":3}","[0]","survey-likert","366","1777123","0.0-366.0","zynxvp2b","","","","","","","",""
"","","","call-function","367","1777124","0.0-367.0","zynxvp2b","","","","","","","",""
"null","","","html-keyboard-response","368","1778626","0.0-368.0","zynxvp2b","","<span style=""color:Black; font-size:50px;"">Agent A","null","","","","",""
"null","","","video-keyboard-response","369","1781725","0.0-369.0","zynxvp2b","","","null","","Agent A","veridical","STIM_SET_1_REAL/1592499.bmp_pp96_L2_V1.0_veridical_freeview_isoFalse_fps144.mp4",""
"null","","","html-keyboard-response","370","1783227","0.0-370.0","zynxvp2b","","<span style=""color:Black; font-size:50px;"">Agent B","null","","","","",""
"null","","","video-keyboard-response","371","1786323","0.0-371.0","zynxvp2b","","","null","","Agent B","scrambled","STIM_SET_3/1159819.bmp_pp151_L1_V2_veridical_freeview_isoFalsemismatch_1592499.bmp_L2_fps90.mp4",""
"","","","call-function","372","1786324","0.0-372.0","zynxvp2b","","","","","","","",""
"2251","{""judgement"":0}","[0]","survey-likert","373","1788577","0.0-373.0","zynxvp2b","","","","","","","","0"
"1158.0250000001397","{""confidence"":2}","[0]","survey-likert","374","1789737","0.0-374.0","zynxvp2b","","","","","","","",""
"","","","call-function","375","1789737","0.0-375.0","zynxvp2b","","","","","","","",""
"null","","","html-keyboard-response","376","1791240","0.0-376.0","zynxvp2b","","<span style=""color:Black; font-size:50px;"">Agent A","null","","","","",""
"null","","","video-keyboard-response","377","1794303","0.0-377.0","zynxvp2b","","","null","","Agent A","scrambled","STIM_SET_3/285684.bmp_pp80_L3_V2_veridical_freeview_isoFalsemismatch_713760.bmp_L1_fps90.mp4",""
"null","","","html-keyboard-response","378","1795805","0.0-378.0","zynxvp2b","","<span style=""color:Black; font-size:50px;"">Agent B","null","","","","",""
"null","","","video-keyboard-response","379","1798885","0.0-379.0","zynxvp2b","","","null","","Agent B","veridical","STIM_SET_1_REAL/713760.bmp_pp81_L1_V1.0_veridical_freeview_isoFalse_fps144.mp4",""
"","","","call-function","380","1798886","0.0-380.0","zynxvp2b","","","","","","","",""
"3684.469999999972","{""judgement"":0}","[0]","survey-likert","381","1802571","0.0-381.0","zynxvp2b","","","","","","","","1"
"953.4799999999814","{""confidence"":1}","[0]","survey-likert","382","1803526","0.0-382.0","zynxvp2b","","","","","","","",""
"","","","call-function","383","1803527","0.0-383.0","zynxvp2b","","","","","","","",""
"null","","","html-keyboard-response","384","1805031","0.0-384.0","zynxvp2b","","<span style=""color:Black; font-size:50px;"">Agent A","null","","","","",""
"null","","","video-keyboard-response","385","1808096","0.0-385.0","zynxvp2b","","","null","","Agent A","scrambled","STIM_SET_3/285932.bmp_pp64_L1_V2_veridical_freeview_isoFalsemismatch_1159855.bmp_L2_fps90.mp4",""
"null","","","html-keyboard-response","386","1809600","0.0-386.0","zynxvp2b","","<span style=""color:Black; font-size:50px;"">Agent B","null","","","","",""
"null","","","video-keyboard-response","387","1812676","0.0-387.0","zynxvp2b","","","null","","Agent B","veridical","STIM_SET_1_REAL/1159855.bmp_pp99_L2_V1.0_veridical_freeview_isoFalse_fps144.mp4",""
"","","","call-function","388","1812677","0.0-388.0","zynxvp2b","","","","","","","",""
"2429.035000000149","{""judgement"":1}","[0]","survey-likert","389","1815107","0.0-389.0","zynxvp2b","","","","","","","","1"
"1480.2950000001583","{""confidence"":3}","[0]","survey-likert","390","1816589","0.0-390.0","zynxvp2b","","","","","","","",""
"","","","call-function","391","1816590","0.0-391.0","zynxvp2b","","","","","","","",""
"null","","","html-keyboard-response","392","1818091","0.0-392.0","zynxvp2b","","<span style=""color:Black; font-size:50px;"">Agent A","null","","","","",""
"null","","","video-keyboard-response","393","1821182","0.0-393.0","zynxvp2b","","","null","","Agent A","veridical","STIM_SET_1_REAL/1593035.bmp_pp94_L2_V1.0_veridical_freeview_isoFalse_fps144.mp4",""
"null","","","html-keyboard-response","394","1822685","0.0-394.0","zynxvp2b","","<span style=""color:Black; font-size:50px;"">Agent B","null","","","","",""
"null","","","video-keyboard-response","395","1825773","0.0-395.0","zynxvp2b","","","null","","Agent B","scrambled","STIM_SET_3/1159325.bmp_pp67_L2_V2_veridical_freeview_isoFalsemismatch_1593035.bmp_L2_fps90.mp4",""
"","","","call-function","396","1825774","0.0-396.0","zynxvp2b","","","","","","","",""
"2313.4500000001863","{""judgement"":0}","[0]","survey-likert","397","1828088","0.0-397.0","zynxvp2b","","","","","","","","0"
"1989.2349999998696","{""confidence"":2}","[0]","survey-likert","398","1830078","0.0-398.0","zynxvp2b","","","","","","","",""
"","","","call-function","399","1830079","0.0-399.0","zynxvp2b","","","","","","","",""
"null","","","html-keyboard-response","400","1831581","0.0-400.0","zynxvp2b","","<span style=""color:Black; font-size:50px;"">Agent A","null","","","","",""
"null","","","video-keyboard-response","401","1834667","0.0-401.0","zynxvp2b","","","null","","Agent A","veridical","STIM_SET_1_REAL/498149.bmp_pp99_L2_V1.0_veridical_freeview_isoFalse_fps144.mp4",""
"null","","","html-keyboard-response","402","1836169","0.0-402.0","zynxvp2b","","<span style=""color:Black; font-size:50px;"">Agent B","null","","","","",""
"null","","","video-keyboard-response","403","1839251","0.0-403.0","zynxvp2b","","","null","","Agent B","scrambled","STIM_SET_3/107955.bmp_pp90_L2_V2_veridical_freeview_isoFalsemismatch_498149.bmp_L2_fps90.mp4",""
"","","","call-function","404","1839252","0.0-404.0","zynxvp2b","","","","","","","",""
"2239.034999999916","{""judgement"":0}","[0]","survey-likert","405","1841492","0.0-405.0","zynxvp2b","","","","","","","","0"
"4434.475000000093","{""confidence"":3}","[0]","survey-likert","406","1845928","0.0-406.0","zynxvp2b","","","","","","","",""
"","","","call-function","407","1845929","0.0-407.0","zynxvp2b","","","","","","","",""
"null","","","html-keyboard-response","408","1847435","0.0-408.0","zynxvp2b","","<span style=""color:Black; font-size:50px;"">Agent A","null","","","","",""
"null","","","video-keyboard-response","409","1850535","0.0-409.0","zynxvp2b","","","null","","Agent A","veridical","STIM_SET_1_REAL/498175.bmp_pp154_L1_V1.0_veridical_freeview_isoFalse_fps144.mp4",""
"null","","","html-keyboard-response","410","1852042","0.0-410.0","zynxvp2b","","<span style=""color:Black; font-size:50px;"">Agent B","null","","","","",""
"null","","","video-keyboard-response","411","1855127","0.0-411.0","zynxvp2b","","","null","","Agent B","scrambled","STIM_SET_3/713689.bmp_pp153_L3_V2_veridical_freeview_isoFalsemismatch_498175.bmp_L1_fps90.mp4",""
"","","","call-function","412","1855127","0.0-412.0","zynxvp2b","","","","","","","",""
"1435.2949999999255","{""judgement"":0}","[0]","survey-likert","413","1856564","0.0-413.0","zynxvp2b","","","","","","","","0"
"1399.6299999998882","{""confidence"":1}","[0]","survey-likert","414","1857965","0.0-414.0","zynxvp2b","","","","","","","",""
"1876.8549999999814","","","instructions","415","1859842","0.0-415.0","zynxvp2b","[{""page_index"":0,""viewing_time"":1178.6899999999441},{""page_index"":1,""viewing_time"":322.1049999999814},{""page_index"":2,""viewing_time"":375.90500000002794}]","","","","","","",""
"1707.4199999999255","","","instructions","416","1861550","0.0-416.0","zynxvp2b","[{""page_index"":0,""viewing_time"":392.15500000002794},{""page_index"":1,""viewing_time"":647.214999999851},{""page_index"":2,""viewing_time"":667.8600000001024}]","","","","","","",""
"","","","call-function","417","1861551","0.0-417.0","zynxvp2b","","","","","","","",""
"null","","","html-keyboard-response","418","1863052","0.0-418.0","zynxvp2b","","<span style=""color:Black; font-size:50px;"">Agent A","null","","","","",""
"null","","","video-keyboard-response","419","1866125","0.0-419.0","zynxvp2b","","","null","","Agent A","scrambled","STIM_SET_3/498396.bmp_pp99_L2_V2_veridical_freeview_isoFalsemismatch_713371.bmp_L1_fps90.mp4",""
"null","","","html-keyboard-response","420","1867630","0.0-420.0","zynxvp2b","","<span style=""color:Black; font-size:50px;"">Agent B","null","","","","",""
"null","","","video-keyboard-response","421","1870710","0.0-421.0","zynxvp2b","","","null","","Agent B","veridical","STIM_SET_1_REAL/713371.bmp_pp68_L1_V1.0_veridical_freeview_isoFalse_fps144.mp4",""
"","","","call-function","422","1870711","0.0-422.0","zynxvp2b","","","","","","","",""
"1788.1449999997858","{""judgement"":1}","[0]","survey-likert","423","1872500","0.0-423.0","zynxvp2b","","","","","","","","1"
"1422.969999999972","{""confidence"":3}","[0]","survey-likert","424","1873924","0.0-424.0","zynxvp2b","","","","","","","",""
"","","","call-function","425","1873925","0.0-425.0","zynxvp2b","","","","","","","",""
"null","","","html-keyboard-response","426","1875426","0.0-426.0","zynxvp2b","","<span style=""color:Black; font-size:50px;"">Agent A","null","","","","",""
"null","","","video-keyboard-response","427","1878491","0.0-427.0","zynxvp2b","","","null","","Agent A","veridical","STIM_SET_1_REAL/713779.bmp_pp152_L2_V1.0_veridical_freeview_isoFalse_fps144.mp4",""
"null","","","html-keyboard-response","428","1879997","0.0-428.0","zynxvp2b","","<span style=""color:Black; font-size:50px;"">Agent B","null","","","","",""
"null","","","video-keyboard-response","429","1883069","0.0-429.0","zynxvp2b","","","null","","Agent B","scrambled","STIM_SET_3/1592305.bmp_pp65_L3_V2_veridical_freeview_isoFalsemismatch_713779.bmp_L2_fps90.mp4",""
"","","","call-function","430","1883069","0.0-430.0","zynxvp2b","","","","","","","",""
"2100.054999999935","{""judgement"":1}","[0]","survey-likert","431","1885170","0.0-431.0","zynxvp2b","","","","","","","","0"
"2303.9500000001863","{""confidence"":2}","[0]","survey-likert","432","1887475","0.0-432.0","zynxvp2b","","","","","","","",""
"","","","call-function","433","1887476","0.0-433.0","zynxvp2b","","","","","","","",""
"null","","","html-keyboard-response","434","1888978","0.0-434.0","zynxvp2b","","<span style=""color:Black; font-size:50px;"">Agent A","null","","","","",""
"null","","","video-keyboard-response","435","1892079","0.0-435.0","zynxvp2b","","","null","","Agent A","scrambled","STIM_SET_3/1592857.bmp_pp52_L1_V2_veridical_freeview_isoFalsemismatch_1160168.bmp_L2_fps90.mp4",""
"null","","","html-keyboard-response","436","1893581","0.0-436.0","zynxvp2b","","<span style=""color:Black; font-size:50px;"">Agent B","null","","","","",""
"null","","","video-keyboard-response","437","1896650","0.0-437.0","zynxvp2b","","","null","","Agent B","veridical","STIM_SET_1_REAL/1160168.bmp_pp53_L2_V1.0_veridical_freeview_isoFalse_fps144.mp4",""
"","","","call-function","438","1896651","0.0-438.0","zynxvp2b","","","","","","","",""
"1998.8400000000838","{""judgement"":1}","[0]","survey-likert","439","1898652","0.0-439.0","zynxvp2b","","","","","","","","1"
"818.3249999999534","{""confidence"":2}","[0]","survey-likert","440","1899472","0.0-440.0","zynxvp2b","","","","","","","",""
"","","","call-function","441","1899472","0.0-441.0","zynxvp2b","","","","","","","",""
"null","","","html-keyboard-response","442","1900974","0.0-442.0","zynxvp2b","","<span style=""color:Black; font-size:50px;"">Agent A","null","","","","",""
"null","","","video-keyboard-response","443","1904046","0.0-443.0","zynxvp2b","","","null","","Agent A","veridical","STIM_SET_1_REAL/713017.bmp_pp152_L2_V1.0_veridical_freeview_isoFalse_fps144.mp4",""
"null","","","html-keyboard-response","444","1905553","0.0-444.0","zynxvp2b","","<span style=""color:Black; font-size:50px;"">Agent B","null","","","","",""
"null","","","video-keyboard-response","445","1908619","0.0-445.0","zynxvp2b","","","null","","Agent B","scrambled","STIM_SET_3/1591975.bmp_pp88_L2_V2_veridical_freeview_isoFalsemismatch_713017.bmp_L2_fps90.mp4",""
"","","","call-function","446","1908620","0.0-446.0","zynxvp2b","","","","","","","",""
"2653.8549999999814","{""judgement"":0}","[0]","survey-likert","447","1911275","0.0-447.0","zynxvp2b","","","","","","","","0"
"919.4150000000373","{""confidence"":3}","[0]","survey-likert","448","1912196","0.0-448.0","zynxvp2b","","","","","","","",""
"","","","call-function","449","1912196","0.0-449.0","zynxvp2b","","","","","","","",""
"null","","","html-keyboard-response","450","1913697","0.0-450.0","zynxvp2b","","<span style=""color:Black; font-size:50px;"">Agent A","null","","","","",""
"null","","","video-keyboard-response","451","1916774","0.0-451.0","zynxvp2b","","","null","","Agent A","veridical","STIM_SET_1_REAL/713666.bmp_pp97_L3_V1.0_veridical_freeview_isoFalse_fps144.mp4",""
"null","","","html-keyboard-response","452","1918277","0.0-452.0","zynxvp2b","","<span style=""color:Black; font-size:50px;"">Agent B","null","","","","",""
"null","","","video-keyboard-response","453","1921379","0.0-453.0","zynxvp2b","","","null","","Agent B","scrambled","STIM_SET_3/1592289.bmp_pp92_L3_V2_veridical_freeview_isoFalsemismatch_713666.bmp_L3_fps90.mp4",""
"","","","call-function","454","1921380","0.0-454.0","zynxvp2b","","","","","","","",""
"2779.8299999998417","{""judgement"":0}","[0]","survey-likert","455","1924161","0.0-455.0","zynxvp2b","","","","","","","","0"
"3661.6750000000466","{""confidence"":2}","[0]","survey-likert","456","1927824","0.0-456.0","zynxvp2b","","","","","","","",""
"","","","call-function","457","1927824","0.0-457.0","zynxvp2b","","","","","","","",""
"null","","","html-keyboard-response","458","1929330","0.0-458.0","zynxvp2b","","<span style=""color:Black; font-size:50px;"">Agent A","null","","","","",""
"null","","","video-keyboard-response","459","1932441","0.0-459.0","zynxvp2b","","","null","","Agent A","veridical","STIM_SET_1_REAL/1592807.bmp_pp68_L1_V1.0_veridical_freeview_isoFalse_fps144.mp4",""
"null","","","html-keyboard-response","460","1933947","0.0-460.0","zynxvp2b","","<span style=""color:Black; font-size:50px;"">Agent B","null","","","","",""
"null","","","video-keyboard-response","461","1937043","0.0-461.0","zynxvp2b","","","null","","Agent B","scrambled","STIM_SET_3/713652.bmp_pp89_L1_V2_veridical_freeview_isoFalsemismatch_1592807.bmp_L1_fps90.mp4",""
"","","","call-function","462","1937044","0.0-462.0","zynxvp2b","","","","","","","",""
"4616.845000000205","{""judgement"":0}","[0]","survey-likert","463","1941661","0.0-463.0","zynxvp2b","","","","","","","","0"
"831.7150000000838","{""confidence"":1}","[0]","survey-likert","464","1942494","0.0-464.0","zynxvp2b","","","","","","","",""
"","","","call-function","465","1942495","0.0-465.0","zynxvp2b","","","","","","","",""
"null","","","html-keyboard-response","466","1943996","0.0-466.0","zynxvp2b","","<span style=""color:Black; font-size:50px;"">Agent A","null","","","","",""
"null","","","video-keyboard-response","467","1947103","0.0-467.0","zynxvp2b","","","null","","Agent A","scrambled","STIM_SET_3/713790.bmp_pp100_L3_V2_veridical_freeview_isoFalsemismatch_1592397.bmp_L3_fps90.mp4",""
"null","","","html-keyboard-response","468","1948607","0.0-468.0","zynxvp2b","","<span style=""color:Black; font-size:50px;"">Agent B","null","","","","",""
"null","","","video-keyboard-response","469","1951704","0.0-469.0","zynxvp2b","","","null","","Agent B","veridical","STIM_SET_1_REAL/1592397.bmp_pp85_L3_V1.0_veridical_freeview_isoFalse_fps144.mp4",""
"","","","call-function","470","1951704","0.0-470.0","zynxvp2b","","","","","","","",""
"2594.189999999944","{""judgement"":1}","[0]","survey-likert","471","1954299","0.0-471.0","zynxvp2b","","","","","","","","1"
"1258.7399999999907","{""confidence"":2}","[0]","survey-likert","472","1955559","0.0-472.0","zynxvp2b","","","","","","","",""
"","","","call-function","473","1955560","0.0-473.0","zynxvp2b","","","","","","","",""
"null","","","html-keyboard-response","474","1957065","0.0-474.0","zynxvp2b","","<span style=""color:Black; font-size:50px;"">Agent A","null","","","","",""
"null","","","video-keyboard-response","475","1960132","0.0-475.0","zynxvp2b","","","null","","Agent A","scrambled","STIM_SET_3/1592567.bmp_pp70_L2_V2_veridical_freeview_isoFalsemismatch_713135.bmp_L2_fps90.mp4",""
"null","","","html-keyboard-response","476","1961633","0.0-476.0","zynxvp2b","","<span style=""color:Black; font-size:50px;"">Agent B","null","","","","",""
"null","","","video-keyboard-response","477","1964744","0.0-477.0","zynxvp2b","","","null","","Agent B","veridical","STIM_SET_1_REAL/713135.bmp_pp54_L2_V1.0_veridical_freeview_isoFalse_fps144.mp4",""
"","","","call-function","478","1964745","0.0-478.0","zynxvp2b","","","","","","","",""
"4105.639999999898","{""judgement"":1}","[0]","survey-likert","479","1968851","0.0-479.0","zynxvp2b","","","","","","","","1"
"1920.8899999998976","{""confidence"":2}","[0]","survey-likert","480","1970774","0.0-480.0","zynxvp2b","","","","","","","",""
"","","","call-function","481","1970775","0.0-481.0","zynxvp2b","","","","","","","",""
"null","","","html-keyboard-response","482","1972279","0.0-482.0","zynxvp2b","","<span style=""color:Black; font-size:50px;"">Agent A","null","","","","",""
"null","","","video-keyboard-response","483","1975346","0.0-483.0","zynxvp2b","","","null","","Agent A","scrambled","STIM_SET_3/1592747.bmp_pp53_L2_V2_veridical_freeview_isoFalsemismatch_713593.bmp_L1_fps90.mp4",""
"null","","","html-keyboard-response","484","1976849","0.0-484.0","zynxvp2b","","<span style=""color:Black; font-size:50px;"">Agent B","null","","","","",""
"null","","","video-keyboard-response","485","1979928","0.0-485.0","zynxvp2b","","","null","","Agent B","veridical","STIM_SET_1_REAL/713593.bmp_pp64_L1_V1.0_veridical_freeview_isoFalse_fps144.mp4",""
"","","","call-function","486","1979930","0.0-486.0","zynxvp2b","","","","","","","",""
"3732.340000000084","{""judgement"":1}","[0]","survey-likert","487","1983664","0.0-487.0","zynxvp2b","","","","","","","","1"
"1975.280000000028","{""confidence"":2}","[0]","survey-likert","488","1985641","0.0-488.0","zynxvp2b","","","","","","","",""
"","","","call-function","489","1985643","0.0-489.0","zynxvp2b","","","","","","","",""
"null","","","html-keyboard-response","490","1987146","0.0-490.0","zynxvp2b","","<span style=""color:Black; font-size:50px;"">Agent A","null","","","","",""
"null","","","video-keyboard-response","491","1990213","0.0-491.0","zynxvp2b","","","null","","Agent A","scrambled","STIM_SET_3/150463.bmp_pp55_L3_V2_veridical_freeview_isoFalsemismatch_1592619.bmp_L3_fps90.mp4",""
"null","","","html-keyboard-response","492","1991716","0.0-492.0","zynxvp2b","","<span style=""color:Black; font-size:50px;"">Agent B","null","","","","",""
"null","","","video-keyboard-response","493","1994781","0.0-493.0","zynxvp2b","","","null","","Agent B","veridical","STIM_SET_1_REAL/1592619.bmp_pp56_L3_V1.0_veridical_freeview_isoFalse_fps144.mp4",""
"","","","call-function","494","1994782","0.0-494.0","zynxvp2b","","","","","","","",""
"2542.090000000084","{""judgement"":1}","[0]","survey-likert","495","1997325","0.0-495.0","zynxvp2b","","","","","","","","1"
"1068.0100000000093","{""confidence"":3}","[0]","survey-likert","496","1998395","0.0-496.0","zynxvp2b","","","","","","","",""
"2729.935000000056","","","instructions","497","2001126","0.0-497.0","zynxvp2b","[{""page_index"":0,""viewing_time"":1599.8049999999348},{""page_index"":1,""viewing_time"":612.0100000000093},{""page_index"":2,""viewing_time"":517.9650000000838}]","","","","","","",""
"2291.2700000000186","","","instructions","498","2003418","0.0-498.0","zynxvp2b","[{""page_index"":0,""viewing_time"":502.13999999989755},{""page_index"":1,""viewing_time"":995.0200000000186},{""page_index"":2,""viewing_time"":794.0050000001211}]","","","","","","",""
"","","","call-function","499","2003419","0.0-499.0","zynxvp2b","","","","","","","",""
"null","","","html-keyboard-response","500","2004921","0.0-500.0","zynxvp2b","","<span style=""color:Black; font-size:50px;"">Agent A","null","","","","",""
"null","","","video-keyboard-response","501","2007984","0.0-501.0","zynxvp2b","","","null","","Agent A","veridical","STIM_SET_1_REAL/285994.bmp_pp92_L3_V1.0_veridical_freeview_isoFalse_fps144.mp4",""
"null","","","html-keyboard-response","502","2009486","0.0-502.0","zynxvp2b","","<span style=""color:Black; font-size:50px;"">Agent B","null","","","","",""
"null","","","video-keyboard-response","503","2012561","0.0-503.0","zynxvp2b","","","null","","Agent B","scrambled","STIM_SET_3/1159592.bmp_pp91_L3_V2_veridical_freeview_isoFalsemismatch_285994.bmp_L3_fps90.mp4",""
"","","","call-function","504","2012562","0.0-504.0","zynxvp2b","","","","","","","",""
"5096.2400000002235","{""judgement"":0}","[0]","survey-likert","505","2017659","0.0-505.0","zynxvp2b","","","","","","","","0"
"2432.3249999999534","{""confidence"":2}","[0]","survey-likert","506","2020093","0.0-506.0","zynxvp2b","","","","","","","",""
"","","","call-function","507","2020093","0.0-507.0","zynxvp2b","","","","","","","",""
"null","","","html-keyboard-response","508","2021595","0.0-508.0","zynxvp2b","","<span style=""color:Black; font-size:50px;"">Agent A","null","","","","",""
"null","","","video-keyboard-response","509","2024697","0.0-509.0","zynxvp2b","","","null","","Agent A","scrambled","STIM_SET_3/713788.bmp_pp52_L1_V2_veridical_freeview_isoFalsemismatch_1159768.bmp_L1_fps90.mp4",""
"null","","","html-keyboard-response","510","2026200","0.0-510.0","zynxvp2b","","<span style=""color:Black; font-size:50px;"">Agent B","null","","","","",""
"null","","","video-keyboard-response","511","2029305","0.0-511.0","zynxvp2b","","","null","","Agent B","veridical","STIM_SET_1_REAL/1159768.bmp_pp89_L1_V1.0_veridical_freeview_isoFalse_fps144.mp4",""
"","","","call-function","512","2029305","0.0-512.0","zynxvp2b","","","","","","","",""
"6808.505000000121","{""judgement"":1}","[0]","survey-likert","513","2036115","0.0-513.0","zynxvp2b","","","","","","","","1"
"4062.524999999907","{""confidence"":3}","[0]","survey-likert","514","2040179","0.0-514.0","zynxvp2b","","","","","","","",""
"","","","call-function","515","2040179","0.0-515.0","zynxvp2b","","","","","","","",""
"null","","","html-keyboard-response","516","2041685","0.0-516.0","zynxvp2b","","<span style=""color:Black; font-size:50px;"">Agent A","null","","","","",""
"null","","","video-keyboard-response","517","2044782","0.0-517.0","zynxvp2b","","","null","","Agent A","scrambled","STIM_SET_3/61513.bmp_pp75_L1_V2_veridical_freeview_isoFalsemismatch_1159784.bmp_L3_fps90.mp4",""
"null","","","html-keyboard-response","518","2046286","0.0-518.0","zynxvp2b","","<span style=""color:Black; font-size:50px;"">Agent B","null","","","","",""
"null","","","video-keyboard-response","519","2049386","0.0-519.0","zynxvp2b","","","null","","Agent B","veridical","STIM_SET_1_REAL/1159784.bmp_pp73_L3_V1.0_veridical_freeview_isoFalse_fps144.mp4",""
"","","","call-function","520","2049387","0.0-520.0","zynxvp2b","","","","","","","",""
"1966.7000000001863","{""judgement"":1}","[0]","survey-likert","521","2051355","0.0-521.0","zynxvp2b","","","","","","","","1"
"1303.75","{""confidence"":2}","[0]","survey-likert","522","2052660","0.0-522.0","zynxvp2b","","","","","","","",""
"","","","call-function","523","2052660","0.0-523.0","zynxvp2b","","","","","","","",""
"null","","","html-keyboard-response","524","2054162","0.0-524.0","zynxvp2b","","<span style=""color:Black; font-size:50px;"">Agent A","null","","","","",""
"null","","","video-keyboard-response","525","2057240","0.0-525.0","zynxvp2b","","","null","","Agent A","scrambled","STIM_SET_3/1592568.bmp_pp71_L1_V2_veridical_freeview_isoFalsemismatch_285905.bmp_L1_fps90.mp4",""
"null","","","html-keyboard-response","526","2058744","0.0-526.0","zynxvp2b","","<span style=""color:Black; font-size:50px;"">Agent B","null","","","","",""
"null","","","video-keyboard-response","527","2061814","0.0-527.0","zynxvp2b","","","null","","Agent B","veridical","STIM_SET_1_REAL/285905.bmp_pp57_L1_V1.0_veridical_freeview_isoFalse_fps144.mp4",""
"","","","call-function","528","2061815","0.0-528.0","zynxvp2b","","","","","","","",""
"4337.635000000009","{""judgement"":1}","[0]","survey-likert","529","2066153","0.0-529.0","zynxvp2b","","","","","","","","1"
"25798.810000000056","{""confidence"":3}","[0]","survey-likert","530","2091954","0.0-530.0","zynxvp2b","","","","","","","",""
"","","","call-function","531","2091956","0.0-531.0","zynxvp2b","","","","","","","",""
"null","","","html-keyboard-response","532","2093459","0.0-532.0","zynxvp2b","","<span style=""color:Black; font-size:50px;"">Agent A","null","","","","",""
"null","","","video-keyboard-response","533","2096525","0.0-533.0","zynxvp2b","","","null","","Agent A","scrambled","STIM_SET_3/1159427.bmp_pp98_L1_V2_veridical_freeview_isoFalsemismatch_1591876.bmp_L1_fps90.mp4",""
"null","","","html-keyboard-response","534","2098030","0.0-534.0","zynxvp2b","","<span style=""color:Black; font-size:50px;"">Agent B","null","","","","",""
"null","","","video-keyboard-response","535","2101107","0.0-535.0","zynxvp2b","","","null","","Agent B","veridical","STIM_SET_1_REAL/1591876.bmp_pp63_L1_V1.0_veridical_freeview_isoFalse_fps144.mp4",""
"","","","call-function","536","2101108","0.0-536.0","zynxvp2b","","","","","","","",""
"5625.289999999572","{""judgement"":1}","[0]","survey-likert","537","2106734","0.0-537.0","zynxvp2b","","","","","","","","1"
"1444.804999999702","{""confidence"":2}","[0]","survey-likert","538","2108181","0.0-538.0","zynxvp2b","","","","","","","",""
"","","","call-function","539","2108182","0.0-539.0","zynxvp2b","","","","","","","",""
"null","","","html-keyboard-response","540","2109685","0.0-540.0","zynxvp2b","","<span style=""color:Black; font-size:50px;"">Agent A","null","","","","",""
"null","","","video-keyboard-response","541","2112748","0.0-541.0","zynxvp2b","","","null","","Agent A","scrambled","STIM_SET_3/1592150.bmp_pp77_L3_V2_veridical_freeview_isoFalsemismatch_1159447.bmp_L2_fps90.mp4",""
"null","","","html-keyboard-response","542","2114250","0.0-542.0","zynxvp2b","","<span style=""color:Black; font-size:50px;"">Agent B","null","","","","",""
"null","","","video-keyboard-response","543","2117311","0.0-543.0","zynxvp2b","","","null","","Agent B","veridical","STIM_SET_1_REAL/1159447.bmp_pp70_L2_V1.0_veridical_freeview_isoFalse_fps144.mp4",""
"","","","call-function","544","2117312","0.0-544.0","zynxvp2b","","","","","","","",""
"2800.225000000093","{""judgement"":1}","[0]","survey-likert","545","2120114","0.0-545.0","zynxvp2b","","","","","","","","1"
"5664.129999999888","{""confidence"":2}","[0]","survey-likert","546","2125780","0.0-546.0","zynxvp2b","","","","","","","",""
"","","","call-function","547","2125780","0.0-547.0","zynxvp2b","","","","","","","",""
"null","","","html-keyboard-response","548","2127282","0.0-548.0","zynxvp2b","","<span style=""color:Black; font-size:50px;"">Agent A","null","","","","",""
"null","","","video-keyboard-response","549","2130386","0.0-549.0","zynxvp2b","","","null","","Agent A","scrambled","STIM_SET_3/713829.bmp_pp60_L3_V2_veridical_freeview_isoFalsemismatch_1159440.bmp_L1_fps90.mp4",""
"null","","","html-keyboard-response","550","2131890","0.0-550.0","zynxvp2b","","<span style=""color:Black; font-size:50px;"">Agent B","null","","","","",""
"null","","","video-keyboard-response","551","2134993","0.0-551.0","zynxvp2b","","","null","","Agent B","veridical","STIM_SET_1_REAL/1159440.bmp_pp98_L1_V1.0_veridical_freeview_isoFalse_fps144.mp4",""
"","","","call-function","552","2134995","0.0-552.0","zynxvp2b","","","","","","","",""
"1938.4250000002794","{""judgement"":1}","[0]","survey-likert","553","2136935","0.0-553.0","zynxvp2b","","","","","","","","1"
"2608.5750000001863","{""confidence"":2}","[0]","survey-likert","554","2139545","0.0-554.0","zynxvp2b","","","","","","","",""
"","","","call-function","555","2139546","0.0-555.0","zynxvp2b","","","","","","","",""
"null","","","html-keyboard-response","556","2141049","0.0-556.0","zynxvp2b","","<span style=""color:Black; font-size:50px;"">Agent A","null","","","","",""
"null","","","video-keyboard-response","557","2144115","0.0-557.0","zynxvp2b","","","null","","Agent A","veridical","STIM_SET_1_REAL/713403.bmp_pp80_L3_V1.0_veridical_freeview_isoFalse_fps144.mp4",""
"null","","","html-keyboard-response","558","2145618","0.0-558.0","zynxvp2b","","<span style=""color:Black; font-size:50px;"">Agent B","null","","","","",""
"null","","","video-keyboard-response","559","2148680","0.0-559.0","zynxvp2b","","","null","","Agent B","scrambled","STIM_SET_3/286034.bmp_pp69_L3_V2_veridical_freeview_isoFalsemismatch_713403.bmp_L3_fps90.mp4",""
"","","","call-function","560","2148681","0.0-560.0","zynxvp2b","","","","","","","",""
"1416.3250000001863","{""judgement"":0}","[0]","survey-likert","561","2150098","0.0-561.0","zynxvp2b","","","","","","","","0"
"1112.7599999997765","{""confidence"":3}","[0]","survey-likert","562","2151212","0.0-562.0","zynxvp2b","","","","","","","",""
"","","","call-function","563","2151213","0.0-563.0","zynxvp2b","","","","","","","",""
"null","","","html-keyboard-response","564","2152715","0.0-564.0","zynxvp2b","","<span style=""color:Black; font-size:50px;"">Agent A","null","","","","",""
"null","","","video-keyboard-response","565","2155793","0.0-565.0","zynxvp2b","","","null","","Agent A","scrambled","STIM_SET_3/285959.bmp_pp93_L1_V2_veridical_freeview_isoFalsemismatch_498253.bmp_L2_fps90.mp4",""
"null","","","html-keyboard-response","566","2157298","0.0-566.0","zynxvp2b","","<span style=""color:Black; font-size:50px;"">Agent B","null","","","","",""
"null","","","video-keyboard-response","567","2160377","0.0-567.0","zynxvp2b","","","null","","Agent B","veridical","STIM_SET_1_REAL/498253.bmp_pp67_L2_V1.0_veridical_freeview_isoFalse_fps144.mp4",""
"","","","call-function","568","2160377","0.0-568.0","zynxvp2b","","","","","","","",""
"9023.25","{""judgement"":1}","[0]","survey-likert","569","2169402","0.0-569.0","zynxvp2b","","","","","","","","1"
"1440.1000000000931","{""confidence"":1}","[0]","survey-likert","570","2170843","0.0-570.0","zynxvp2b","","","","","","","",""
"","","","call-function","571","2170844","0.0-571.0","zynxvp2b","","","","","","","",""
"null","","","html-keyboard-response","572","2172350","0.0-572.0","zynxvp2b","","<span style=""color:Black; font-size:50px;"">Agent A","null","","","","",""
"null","","","video-keyboard-response","573","2175451","0.0-573.0","zynxvp2b","","","null","","Agent A","veridical","STIM_SET_1_REAL/1592372.bmp_pp76_L1_V1.0_veridical_freeview_isoFalse_fps144.mp4",""
"null","","","html-keyboard-response","574","2176955","0.0-574.0","zynxvp2b","","<span style=""color:Black; font-size:50px;"">Agent B","null","","","","",""
"null","","","video-keyboard-response","575","2180060","0.0-575.0","zynxvp2b","","","null","","Agent B","scrambled","STIM_SET_3/107909.bmp_pp95_L2_V2_veridical_freeview_isoFalsemismatch_1592372.bmp_L1_fps90.mp4",""
"","","","call-function","576","2180060","0.0-576.0","zynxvp2b","","","","","","","",""
"1755.4300000001676","{""judgement"":1}","[0]","survey-likert","577","2181817","0.0-577.0","zynxvp2b","","","","","","","","0"
"1047.7299999999814","{""confidence"":1}","[0]","survey-likert","578","2182866","0.0-578.0","zynxvp2b","","","","","","","",""
"3632.529999999795","","","instructions","579","2186499","0.0-579.0","zynxvp2b","[{""page_index"":0,""viewing_time"":3632.3900000001304}]","","","","","","",""
"2994.0750000001863","","","instructions","580","2189494","0.0-580.0","zynxvp2b","[{""page_index"":0,""viewing_time"":2993.964999999851}]","","","","","","",""
"18197.25499999989","{""post-1"":2}","[0]","survey-likert","581","2207693","0.0-581.0","zynxvp2b","","","","","","","",""
"14608.600000000093","{""post-1"":1}","[0]","survey-likert","582","2222303","0.0-582.0","zynxvp2b","","","","","","","",""
"11966.680000000168","{""post-2"":2}","[0]","survey-likert","583","2234271","0.0-583.0","zynxvp2b","","","","","","","",""
"15060.804999999702","{""post-2"":0}","[0]","survey-likert","584","2249333","0.0-584.0","zynxvp2b","","","","","","","",""
"5322.225000000093","{""post-3"":3}","[0]","survey-likert","585","2254657","0.0-585.0","zynxvp2b","","","","","","","",""
"6992.819999999832","{""post-3"":1}","[0]","survey-likert","586","2261651","0.0-586.0","zynxvp2b","","","","","","","",""
"20767.10999999987","{""post-4"":2}","[0]","survey-likert","587","2282421","0.0-587.0","zynxvp2b","","","","","","","",""
"3204.714999999851","{""post-4"":0}","[0]","survey-likert","588","2285627","0.0-588.0","zynxvp2b","","","","","","","",""
"11459.410000000149","{""post-5"":1}","[0]","survey-likert","589","2297088","0.0-589.0","zynxvp2b","","","","","","","",""
"1497.714999999851","{""post-5"":3}","[0]","survey-likert","590","2298588","0.0-590.0","zynxvp2b","","","","","","","",""
"238449.35499999998","{""Q0"":""I believe that this experiment proved to be a great experience. It was straightforward and did not require any complex cognitive thought. However, the previous questionnaire could cause a few demand characteristics to occur. For example, when people view the question \""The video that I judged as more fake seemed to be more robotic in nature\"", I believe that is is natural human tendency to believe that the correct answer for the researcher would be option 4 or \""Almost always\"". Other than that, the experience was good!""}","","survey-text","591","2537044","0.0-591.0","zynxvp2b","","","","","","","",""
"208291.68999999994","{""Q0"":""For me, I used predominantly 2-3 strategies. For one, I would see if the video aligned with how I would view the actual photo. Secondly, I would see if there were things in the video that were more obscure (that a robot would not catch) in order to determine which perspective was more \""human\"". Also, there are just some things such as prolonged time on facial recognition that I believe humans are more apt and prone to do.""}","","survey-text","592","2745340","0.0-592.0","zynxvp2b","","","","","","","",""
"90618.1499999999","{""Q0"":""In some cases, both videos would be similar in the way the hot spots moved around the image. Those were the most difficult to determine which was more human. I either had to use deductive reasoning or guess based on how I would view the picture myself.""}","","survey-text","593","2835963","0.0-593.0","zynxvp2b","","","","","","","",""
"4134.204999999609","","","instructions","594","2840099","0.0-594.0","zynxvp2b","[{""page_index"":0,""viewing_time"":4134.05999999959}]","","","","","","",""
"201600.75999999978","{""Experimenter_end"":[""Printed ID# zynxvp2b on consent form"",""Given subject SONA credit or payment"",""Given the subject debrief form""]}","[0]","survey-multi-select","595","3041702","0.0-595.0","zynxvp2b","","","","","","","",""
