"rt","responses","question_order","trial_type","trial_index","time_elapsed","internal_node_id","ID","view_history","stimulus","key_press","value","agent","condition","image","correct"
"117793.96","{""Experimenter"":[""Confirmed subject's identity (ID card)"",""Confirmed normal or corrected-to-normal vision"",""Obtained consent (signature and date)"",""Checked the test room lighting"",""Checked computer screen lighting"",""Checked distance from screen to chin rest (50cm)"",""Cleaned and adjusted chin rest"",""Counterbalanced the order of the tasks"",""Opened the experiment in Firefox"",""Made the experiment full screen"",""Encouraged subject to silence phone, put away distractors, etc.""]}","[0]","survey-multi-select","0","117802","0.0-0.0","4ucl52rb","","","","","","","",""
"69237.615","","","instructions","1","187041","0.0-1.0","4ucl52rb","[{""page_index"":0,""viewing_time"":69237.46500000001}]","","","","","","",""
"8304.015000000014","{""Age"":13,""Sex"":0,""Gender"":0}","[0,1,2]","survey-likert","2","195347","0.0-2.0","4ucl52rb","","","","","","","",""
"3578.5449999999837","","","instructions","3","198926","0.0-3.0","4ucl52rb","[{""page_index"":0,""viewing_time"":3578.4400000000023}]","","","","","","",""
"16741.824999999983","","","instructions","4","215668","0.0-4.0","4ucl52rb","[{""page_index"":0,""viewing_time"":1968.8549999999814},{""page_index"":1,""viewing_time"":6704.029999999999},{""page_index"":2,""viewing_time"":8068.805000000022}]","","","","","","",""
"3433.375","","","instructions","5","219102","0.0-5.0","4ucl52rb","[{""page_index"":0,""viewing_time"":3432.6749999999884}]","","","","","","",""
"null","","","video-keyboard-response","6","222182","0.0-6.0","4ucl52rb","","","null","","","","",""
"39690.725000000006","","","instructions","7","261874","0.0-7.0","4ucl52rb","[{""page_index"":0,""viewing_time"":3510.679999999993},{""page_index"":1,""viewing_time"":4240.950000000012},{""page_index"":2,""viewing_time"":1120.5650000000023},{""page_index"":3,""viewing_time"":4920.329999999987},{""page_index"":4,""viewing_time"":3587.0650000000023},{""page_index"":5,""viewing_time"":10358.945000000007},{""page_index"":6,""viewing_time"":8181.619999999995},{""page_index"":7,""viewing_time"":3770.390000000014}]","","","","","","",""
"5853.1750000000175","","","instructions","8","267728","0.0-8.0","4ucl52rb","[{""page_index"":0,""viewing_time"":5853.040000000008}]","","","","","","",""
"2085.670000000042","","","instructions","9","269814","0.0-9.0","4ucl52rb","[{""page_index"":0,""viewing_time"":2085.570000000007}]","","","","","","",""
"","","","call-function","10","269815","0.0-10.0","4ucl52rb","","","","","","","",""
"null","","","html-keyboard-response","11","271318","0.0-11.0","4ucl52rb","","<span style=""color:Black; font-size:50px;"">Video 1</span>","null","","","","",""
"null","","","video-keyboard-response","12","274380","0.0-12.0","4ucl52rb","","","null","","<span style=""color:Black; font-size:50px;"">Casey","Casey","LEARNING_STIM_10/1592367.bmp_pp62_L2_V1_veridical_freeview_isoFalse_fps144.mp4",""
"null","","","html-keyboard-response","13","275884","0.0-13.0","4ucl52rb","","<span style=""color:Black; font-size:50px;"">Video 2</span>","null","","","","",""
"null","","","video-keyboard-response","14","278954","0.0-14.0","4ucl52rb","","","null","","<span style=""color:Black; font-size:50px;"">Sandy","Sandy","LEARNING_STIM_10/1592367.bmp_pp88_L2_V1_veridical_freeview_isoFalse_fps144.mp4",""
"","","","call-function","15","278954","0.0-15.0","4ucl52rb","","","","","","","",""
"4183.969999999972","","","categorize-html","16","285141","0.0-16.0","4ucl52rb","","Which video showed <span style=""font-size:30px"">Sandy's</span> attention?","49","","","","","false"
"null","","","html-keyboard-response","17","285648","0.0-17.0","4ucl52rb",""," ","null","","","","",""
"","","","call-function","18","285649","0.0-18.0","4ucl52rb","","","","","","","",""
"null","","","html-keyboard-response","19","287151","0.0-19.0","4ucl52rb","","<span style=""color:Black; font-size:50px;"">Video 1</span>","null","","","","",""
"null","","","video-keyboard-response","20","290226","0.0-20.0","4ucl52rb","","","null","","<span style=""color:Black; font-size:50px;"">Casey","Casey","LEARNING_STIM_10/1592038.bmp_pp62_L2_V1_veridical_freeview_isoFalse_fps144.mp4",""
"null","","","html-keyboard-response","21","291729","0.0-21.0","4ucl52rb","","<span style=""color:Black; font-size:50px;"">Video 2</span>","null","","","","",""
"null","","","video-keyboard-response","22","294823","0.0-22.0","4ucl52rb","","","null","","<span style=""color:Black; font-size:50px;"">Sandy","Sandy","LEARNING_STIM_10/1592038.bmp_pp88_L2_V1_veridical_freeview_isoFalse_fps144.mp4",""
"","","","call-function","23","294823","0.0-23.0","4ucl52rb","","","","","","","",""
"3250.015000000014","","","categorize-html","24","300076","0.0-24.0","4ucl52rb","","Which video showed <span style=""font-size:30px"">Sandy's</span> attention?","49","","","","","false"
"null","","","html-keyboard-response","25","300578","0.0-25.0","4ucl52rb",""," ","null","","","","",""
"","","","call-function","26","300578","0.0-26.0","4ucl52rb","","","","","","","",""
"null","","","html-keyboard-response","27","302082","0.0-27.0","4ucl52rb","","<span style=""color:Black; font-size:50px;"">Video 1</span>","null","","","","",""
"null","","","video-keyboard-response","28","305208","0.0-28.0","4ucl52rb","","","null","","<span style=""color:Black; font-size:50px;"">Sandy","Sandy","LEARNING_STIM_10/498286.bmp_pp88_L2_V1_veridical_freeview_isoFalse_fps144.mp4",""
"null","","","html-keyboard-response","29","306712","0.0-29.0","4ucl52rb","","<span style=""color:Black; font-size:50px;"">Video 2</span>","null","","","","",""
"null","","","video-keyboard-response","30","309827","0.0-30.0","4ucl52rb","","","null","","<span style=""color:Black; font-size:50px;"">Casey","Casey","LEARNING_STIM_10/498286.bmp_pp62_L2_V1_veridical_freeview_isoFalse_fps144.mp4",""
"","","","call-function","31","309827","0.0-31.0","4ucl52rb","","","","","","","",""
"974.2799999999697","","","categorize-html","32","312807","0.0-32.0","4ucl52rb","","Which video showed <span style=""font-size:30px"">Sandy's</span> attention?","50","","","","","false"
"null","","","html-keyboard-response","33","313309","0.0-33.0","4ucl52rb",""," ","null","","","","",""
"","","","call-function","34","313309","0.0-34.0","4ucl52rb","","","","","","","",""
"null","","","html-keyboard-response","35","314813","0.0-35.0","4ucl52rb","","<span style=""color:Black; font-size:50px;"">Video 1</span>","null","","","","",""
"null","","","video-keyboard-response","36","317925","0.0-36.0","4ucl52rb","","","null","","<span style=""color:Black; font-size:50px;"">Casey","Casey","LEARNING_STIM_10/1160168.bmp_pp62_L2_V1_veridical_freeview_isoFalse_fps144.mp4",""
"null","","","html-keyboard-response","37","319430","0.0-37.0","4ucl52rb","","<span style=""color:Black; font-size:50px;"">Video 2</span>","null","","","","",""
"null","","","video-keyboard-response","38","322551","0.0-38.0","4ucl52rb","","","null","","<span style=""color:Black; font-size:50px;"">Sandy","Sandy","LEARNING_STIM_10/1160168.bmp_pp88_L2_V1_veridical_freeview_isoFalse_fps144.mp4",""
"","","","call-function","39","322551","0.0-39.0","4ucl52rb","","","","","","","",""
"601.9099999999744","","","categorize-html","40","325156","0.0-40.0","4ucl52rb","","Which video showed <span style=""font-size:30px"">Sandy's</span> attention?","49","","","","","false"
"null","","","html-keyboard-response","41","325659","0.0-41.0","4ucl52rb",""," ","null","","","","",""
"","","","call-function","42","325659","0.0-42.0","4ucl52rb","","","","","","","",""
"null","","","html-keyboard-response","43","327163","0.0-43.0","4ucl52rb","","<span style=""color:Black; font-size:50px;"">Video 1</span>","null","","","","",""
"null","","","video-keyboard-response","44","330264","0.0-44.0","4ucl52rb","","","null","","<span style=""color:Black; font-size:50px;"">Casey","Casey","LEARNING_STIM_10/1591805.bmp_pp62_L2_V1_veridical_freeview_isoFalse_fps144.mp4",""
"null","","","html-keyboard-response","45","331767","0.0-45.0","4ucl52rb","","<span style=""color:Black; font-size:50px;"">Video 2</span>","null","","","","",""
"null","","","video-keyboard-response","46","334875","0.0-46.0","4ucl52rb","","","null","","<span style=""color:Black; font-size:50px;"">Sandy","Sandy","LEARNING_STIM_10/1591805.bmp_pp88_L2_V1_veridical_freeview_isoFalse_fps144.mp4",""
"","","","call-function","47","334875","0.0-47.0","4ucl52rb","","","","","","","",""
"1909.4749999999767","","","categorize-html","48","338788","0.0-48.0","4ucl52rb","","Which video showed <span style=""font-size:30px"">Sandy's</span> attention?","50","","","","","true"
"null","","","html-keyboard-response","49","339289","0.0-49.0","4ucl52rb",""," ","null","","","","",""
"","","","call-function","50","339289","0.0-50.0","4ucl52rb","","","","","","","",""
"null","","","html-keyboard-response","51","340791","0.0-51.0","4ucl52rb","","<span style=""color:Black; font-size:50px;"">Video 1</span>","null","","","","",""
"null","","","video-keyboard-response","52","343858","0.0-52.0","4ucl52rb","","","null","","<span style=""color:Black; font-size:50px;"">Sandy","Sandy","LEARNING_STIM_10/1160093.bmp_pp88_L2_V1_veridical_freeview_isoFalse_fps144.mp4",""
"null","","","html-keyboard-response","53","345363","0.0-53.0","4ucl52rb","","<span style=""color:Black; font-size:50px;"">Video 2</span>","null","","","","",""
"null","","","video-keyboard-response","54","348431","0.0-54.0","4ucl52rb","","","null","","<span style=""color:Black; font-size:50px;"">Casey","Casey","LEARNING_STIM_10/1160093.bmp_pp62_L2_V1_veridical_freeview_isoFalse_fps144.mp4",""
"","","","call-function","55","348431","0.0-55.0","4ucl52rb","","","","","","","",""
"2058.0599999999977","","","categorize-html","56","352494","0.0-56.0","4ucl52rb","","Which video showed <span style=""font-size:30px"">Sandy's</span> attention?","49","","","","","true"
"null","","","html-keyboard-response","57","353000","0.0-57.0","4ucl52rb",""," ","null","","","","",""
"","","","call-function","58","353000","0.0-58.0","4ucl52rb","","","","","","","",""
"null","","","html-keyboard-response","59","354501","0.0-59.0","4ucl52rb","","<span style=""color:Black; font-size:50px;"">Video 1</span>","null","","","","",""
"null","","","video-keyboard-response","60","357577","0.0-60.0","4ucl52rb","","","null","","<span style=""color:Black; font-size:50px;"">Sandy","Sandy","LEARNING_STIM_10/1159904.bmp_pp88_L2_V1_veridical_freeview_isoFalse_fps144.mp4",""
"null","","","html-keyboard-response","61","359079","0.0-61.0","4ucl52rb","","<span style=""color:Black; font-size:50px;"">Video 2</span>","null","","","","",""
"null","","","video-keyboard-response","62","362160","0.0-62.0","4ucl52rb","","","null","","<span style=""color:Black; font-size:50px;"">Casey","Casey","LEARNING_STIM_10/1159904.bmp_pp62_L2_V1_veridical_freeview_isoFalse_fps144.mp4",""
"","","","call-function","63","362160","0.0-63.0","4ucl52rb","","","","","","","",""
"3072.820000000007","","","categorize-html","64","367237","0.0-64.0","4ucl52rb","","Which video showed <span style=""font-size:30px"">Sandy's</span> attention?","49","","","","","true"
"null","","","html-keyboard-response","65","367739","0.0-65.0","4ucl52rb",""," ","null","","","","",""
"","","","call-function","66","367739","0.0-66.0","4ucl52rb","","","","","","","",""
"null","","","html-keyboard-response","67","369241","0.0-67.0","4ucl52rb","","<span style=""color:Black; font-size:50px;"">Video 1</span>","null","","","","",""
"null","","","video-keyboard-response","68","372347","0.0-68.0","4ucl52rb","","","null","","<span style=""color:Black; font-size:50px;"">Sandy","Sandy","LEARNING_STIM_10/498153.bmp_pp88_L2_V1_veridical_freeview_isoFalse_fps144.mp4",""
"null","","","html-keyboard-response","69","373849","0.0-69.0","4ucl52rb","","<span style=""color:Black; font-size:50px;"">Video 2</span>","null","","","","",""
"null","","","video-keyboard-response","70","376965","0.0-70.0","4ucl52rb","","","null","","<span style=""color:Black; font-size:50px;"">Casey","Casey","LEARNING_STIM_10/498153.bmp_pp62_L2_V1_veridical_freeview_isoFalse_fps144.mp4",""
"","","","call-function","71","376965","0.0-71.0","4ucl52rb","","","","","","","",""
"2059.9550000000163","","","categorize-html","72","381032","0.0-72.0","4ucl52rb","","Which video showed <span style=""font-size:30px"">Sandy's</span> attention?","50","","","","","false"
"null","","","html-keyboard-response","73","381534","0.0-73.0","4ucl52rb",""," ","null","","","","",""
"","","","call-function","74","381535","0.0-74.0","4ucl52rb","","","","","","","",""
"null","","","html-keyboard-response","75","383037","0.0-75.0","4ucl52rb","","<span style=""color:Black; font-size:50px;"">Video 1</span>","null","","","","",""
"null","","","video-keyboard-response","76","386141","0.0-76.0","4ucl52rb","","","null","","<span style=""color:Black; font-size:50px;"">Casey","Casey","LEARNING_STIM_10/1593035.bmp_pp62_L2_V1_veridical_freeview_isoFalse_fps144.mp4",""
"null","","","html-keyboard-response","77","387644","0.0-77.0","4ucl52rb","","<span style=""color:Black; font-size:50px;"">Video 2</span>","null","","","","",""
"null","","","video-keyboard-response","78","390728","0.0-78.0","4ucl52rb","","","null","","<span style=""color:Black; font-size:50px;"">Sandy","Sandy","LEARNING_STIM_10/1593035.bmp_pp88_L2_V1_veridical_freeview_isoFalse_fps144.mp4",""
"","","","call-function","79","390729","0.0-79.0","4ucl52rb","","","","","","","",""
"1168.7550000000047","","","categorize-html","80","393902","0.0-80.0","4ucl52rb","","Which video showed <span style=""font-size:30px"">Sandy's</span> attention?","49","","","","","false"
"null","","","html-keyboard-response","81","394405","0.0-81.0","4ucl52rb",""," ","null","","","","",""
"","","","call-function","82","394406","0.0-82.0","4ucl52rb","","","","","","","",""
"null","","","html-keyboard-response","83","395907","0.0-83.0","4ucl52rb","","<span style=""color:Black; font-size:50px;"">Video 1</span>","null","","","","",""
"null","","","video-keyboard-response","84","399017","0.0-84.0","4ucl52rb","","","null","","<span style=""color:Black; font-size:50px;"">Casey","Casey","LEARNING_STIM_10/1592083.bmp_pp62_L2_V1_veridical_freeview_isoFalse_fps144.mp4",""
"null","","","html-keyboard-response","85","400520","0.0-85.0","4ucl52rb","","<span style=""color:Black; font-size:50px;"">Video 2</span>","null","","","","",""
"null","","","video-keyboard-response","86","403632","0.0-86.0","4ucl52rb","","","null","","<span style=""color:Black; font-size:50px;"">Sandy","Sandy","LEARNING_STIM_10/1592083.bmp_pp88_L2_V1_veridical_freeview_isoFalse_fps144.mp4",""
"","","","call-function","87","403632","0.0-87.0","4ucl52rb","","","","","","","",""
"2441.539999999979","","","categorize-html","88","408076","0.0-88.0","4ucl52rb","","Which video showed <span style=""font-size:30px"">Sandy's</span> attention?","50","","","","","true"
"null","","","html-keyboard-response","89","408582","0.0-89.0","4ucl52rb",""," ","null","","","","",""
"5046.65499999997","","","instructions","90","413629","0.0-90.0","4ucl52rb","[{""page_index"":0,""viewing_time"":2048.7849999999744},{""page_index"":1,""viewing_time"":1782.9349999999977},{""page_index"":2,""viewing_time"":1214.8250000000116}]","","","","","","",""
"5459.849999999977","","","instructions","91","419089","0.0-91.0","4ucl52rb","[{""page_index"":0,""viewing_time"":1615.0599999999977},{""page_index"":1,""viewing_time"":3015.069999999949},{""page_index"":2,""viewing_time"":829.6100000000442}]","","","","","","",""
"","","","call-function","92","419090","0.0-92.0","4ucl52rb","","","","","","","",""
"null","","","html-keyboard-response","93","420593","0.0-93.0","4ucl52rb","","<span style=""color:Black; font-size:50px;"">Video 1</span>","null","","","","",""
"null","","","video-keyboard-response","94","423652","0.0-94.0","4ucl52rb","","","null","","<span style=""color:Black; font-size:50px;"">Sandy","Sandy","LEARNING_STIM_10/1159882.bmp_pp88_L2_V1_veridical_freeview_isoFalse_fps144.mp4",""
"null","","","html-keyboard-response","95","425158","0.0-95.0","4ucl52rb","","<span style=""color:Black; font-size:50px;"">Video 2</span>","null","","","","",""
"null","","","video-keyboard-response","96","428221","0.0-96.0","4ucl52rb","","","null","","<span style=""color:Black; font-size:50px;"">Casey","Casey","LEARNING_STIM_10/1159882.bmp_pp62_L2_V1_veridical_freeview_isoFalse_fps144.mp4",""
"","","","call-function","97","428221","0.0-97.0","4ucl52rb","","","","","","","",""
"1508.109999999986","","","categorize-html","98","431737","0.0-98.0","4ucl52rb","","Which video showed <span style=""font-size:30px"">Sandy's</span> attention?","49","","","","","true"
"null","","","html-keyboard-response","99","432241","0.0-99.0","4ucl52rb",""," ","null","","","","",""
"","","","call-function","100","432241","0.0-100.0","4ucl52rb","","","","","","","",""
"null","","","html-keyboard-response","101","433746","0.0-101.0","4ucl52rb","","<span style=""color:Black; font-size:50px;"">Video 1</span>","null","","","","",""
"null","","","video-keyboard-response","102","436820","0.0-102.0","4ucl52rb","","","null","","<span style=""color:Black; font-size:50px;"">Sandy","Sandy","LEARNING_STIM_10/285715.bmp_pp88_L2_V1_veridical_freeview_isoFalse_fps144.mp4",""
"1","","","html-keyboard-response","103","436822","0.0-103.0","4ucl52rb","","<span style=""color:Black; font-size:50px;"">Video 2</span>","13","","","","",""
"null","","","video-keyboard-response","104","439884","0.0-104.0","4ucl52rb","","","null","","<span style=""color:Black; font-size:50px;"">Casey","Casey","LEARNING_STIM_10/285715.bmp_pp62_L2_V1_veridical_freeview_isoFalse_fps144.mp4",""
"","","","call-function","105","439884","0.0-105.0","4ucl52rb","","","","","","","",""
"1796.8550000000396","","","categorize-html","106","443688","0.0-106.0","4ucl52rb","","Which video showed <span style=""font-size:30px"">Sandy's</span> attention?","49","","","","","true"
"null","","","html-keyboard-response","107","444193","0.0-107.0","4ucl52rb",""," ","null","","","","",""
"","","","call-function","108","444193","0.0-108.0","4ucl52rb","","","","","","","",""
"null","","","html-keyboard-response","109","445696","0.0-109.0","4ucl52rb","","<span style=""color:Black; font-size:50px;"">Video 1</span>","null","","","","",""
"null","","","video-keyboard-response","110","448817","0.0-110.0","4ucl52rb","","","null","","<span style=""color:Black; font-size:50px;"">Sandy","Sandy","LEARNING_STIM_10/107909.bmp_pp88_L2_V1_veridical_freeview_isoFalse_fps144.mp4",""
"null","","","html-keyboard-response","111","450319","0.0-111.0","4ucl52rb","","<span style=""color:Black; font-size:50px;"">Video 2</span>","null","","","","",""
"null","","","video-keyboard-response","112","453426","0.0-112.0","4ucl52rb","","","null","","<span style=""color:Black; font-size:50px;"">Casey","Casey","LEARNING_STIM_10/107909.bmp_pp62_L2_V1_veridical_freeview_isoFalse_fps144.mp4",""
"","","","call-function","113","453427","0.0-113.0","4ucl52rb","","","","","","","",""
"406.5999999999767","","","categorize-html","114","455836","0.0-114.0","4ucl52rb","","Which video showed <span style=""font-size:30px"">Sandy's</span> attention?","50","","","","","false"
"null","","","html-keyboard-response","115","456342","0.0-115.0","4ucl52rb",""," ","null","","","","",""
"","","","call-function","116","456343","0.0-116.0","4ucl52rb","","","","","","","",""
"null","","","html-keyboard-response","117","457846","0.0-117.0","4ucl52rb","","<span style=""color:Black; font-size:50px;"">Video 1</span>","null","","","","",""
"null","","","video-keyboard-response","118","460946","0.0-118.0","4ucl52rb","","","null","","<span style=""color:Black; font-size:50px;"">Casey","Casey","LEARNING_STIM_10/713381.bmp_pp62_L2_V1_veridical_freeview_isoFalse_fps144.mp4",""
"null","","","html-keyboard-response","119","462453","0.0-119.0","4ucl52rb","","<span style=""color:Black; font-size:50px;"">Video 2</span>","null","","","","",""
"null","","","video-keyboard-response","120","465548","0.0-120.0","4ucl52rb","","","null","","<span style=""color:Black; font-size:50px;"">Sandy","Sandy","LEARNING_STIM_10/713381.bmp_pp88_L2_V1_veridical_freeview_isoFalse_fps144.mp4",""
"","","","call-function","121","465549","0.0-121.0","4ucl52rb","","","","","","","",""
"540.6549999999697","","","categorize-html","122","468093","0.0-122.0","4ucl52rb","","Which video showed <span style=""font-size:30px"">Sandy's</span> attention?","49","","","","","false"
"null","","","html-keyboard-response","123","468598","0.0-123.0","4ucl52rb",""," ","null","","","","",""
"","","","call-function","124","468598","0.0-124.0","4ucl52rb","","","","","","","",""
"null","","","html-keyboard-response","125","470100","0.0-125.0","4ucl52rb","","<span style=""color:Black; font-size:50px;"">Video 1</span>","null","","","","",""
"null","","","video-keyboard-response","126","473208","0.0-126.0","4ucl52rb","","","null","","<span style=""color:Black; font-size:50px;"">Sandy","Sandy","LEARNING_STIM_10/285946.bmp_pp88_L2_V1_veridical_freeview_isoFalse_fps144.mp4",""
"null","","","html-keyboard-response","127","474713","0.0-127.0","4ucl52rb","","<span style=""color:Black; font-size:50px;"">Video 2</span>","null","","","","",""
"null","","","video-keyboard-response","128","477849","0.0-128.0","4ucl52rb","","","null","","<span style=""color:Black; font-size:50px;"">Casey","Casey","LEARNING_STIM_10/285946.bmp_pp62_L2_V1_veridical_freeview_isoFalse_fps144.mp4",""
"","","","call-function","129","477849","0.0-129.0","4ucl52rb","","","","","","","",""
"672.359999999986","","","categorize-html","130","480529","0.0-130.0","4ucl52rb","","Which video showed <span style=""font-size:30px"">Sandy's</span> attention?","50","","","","","false"
"null","","","html-keyboard-response","131","481033","0.0-131.0","4ucl52rb",""," ","null","","","","",""
"","","","call-function","132","481034","0.0-132.0","4ucl52rb","","","","","","","",""
"null","","","html-keyboard-response","133","482536","0.0-133.0","4ucl52rb","","<span style=""color:Black; font-size:50px;"">Video 1</span>","null","","","","",""
"null","","","video-keyboard-response","134","485672","0.0-134.0","4ucl52rb","","","null","","<span style=""color:Black; font-size:50px;"">Casey","Casey","LEARNING_STIM_10/713028.bmp_pp62_L2_V1_veridical_freeview_isoFalse_fps144.mp4",""
"null","","","html-keyboard-response","135","487175","0.0-135.0","4ucl52rb","","<span style=""color:Black; font-size:50px;"">Video 2</span>","null","","","","",""
"null","","","video-keyboard-response","136","490244","0.0-136.0","4ucl52rb","","","null","","<span style=""color:Black; font-size:50px;"">Sandy","Sandy","LEARNING_STIM_10/713028.bmp_pp88_L2_V1_veridical_freeview_isoFalse_fps144.mp4",""
"","","","call-function","137","490244","0.0-137.0","4ucl52rb","","","","","","","",""
"1621.4899999999907","","","categorize-html","138","493869","0.0-138.0","4ucl52rb","","Which video showed <span style=""font-size:30px"">Sandy's</span> attention?","49","","","","","false"
"null","","","html-keyboard-response","139","494375","0.0-139.0","4ucl52rb",""," ","null","","","","",""
"","","","call-function","140","494376","0.0-140.0","4ucl52rb","","","","","","","",""
"null","","","html-keyboard-response","141","495879","0.0-141.0","4ucl52rb","","<span style=""color:Black; font-size:50px;"">Video 1</span>","null","","","","",""
"null","","","video-keyboard-response","142","498938","0.0-142.0","4ucl52rb","","","null","","<span style=""color:Black; font-size:50px;"">Casey","Casey","LEARNING_STIM_10/1159874.bmp_pp62_L2_V1_veridical_freeview_isoFalse_fps144.mp4",""
"null","","","html-keyboard-response","143","500444","0.0-143.0","4ucl52rb","","<span style=""color:Black; font-size:50px;"">Video 2</span>","null","","","","",""
"null","","","video-keyboard-response","144","503516","0.0-144.0","4ucl52rb","","","null","","<span style=""color:Black; font-size:50px;"">Sandy","Sandy","LEARNING_STIM_10/1159874.bmp_pp88_L2_V1_veridical_freeview_isoFalse_fps144.mp4",""
"","","","call-function","145","503516","0.0-145.0","4ucl52rb","","","","","","","",""
"1917.3250000000116","","","categorize-html","146","507438","0.0-146.0","4ucl52rb","","Which video showed <span style=""font-size:30px"">Sandy's</span> attention?","49","","","","","false"
"null","","","html-keyboard-response","147","507945","0.0-147.0","4ucl52rb",""," ","null","","","","",""
"","","","call-function","148","507945","0.0-148.0","4ucl52rb","","","","","","","",""
"null","","","html-keyboard-response","149","509449","0.0-149.0","4ucl52rb","","<span style=""color:Black; font-size:50px;"">Video 1</span>","null","","","","",""
"null","","","video-keyboard-response","150","512510","0.0-150.0","4ucl52rb","","","null","","<span style=""color:Black; font-size:50px;"">Sandy","Sandy","LEARNING_STIM_10/498253.bmp_pp88_L2_V1_veridical_freeview_isoFalse_fps144.mp4",""
"null","","","html-keyboard-response","151","514014","0.0-151.0","4ucl52rb","","<span style=""color:Black; font-size:50px;"">Video 2</span>","null","","","","",""
"null","","","video-keyboard-response","152","517118","0.0-152.0","4ucl52rb","","","null","","<span style=""color:Black; font-size:50px;"">Casey","Casey","LEARNING_STIM_10/498253.bmp_pp62_L2_V1_veridical_freeview_isoFalse_fps144.mp4",""
"","","","call-function","153","517118","0.0-153.0","4ucl52rb","","","","","","","",""
"475.0250000000233","","","categorize-html","154","519600","0.0-154.0","4ucl52rb","","Which video showed <span style=""font-size:30px"">Sandy's</span> attention?","50","","","","","false"
"null","","","html-keyboard-response","155","520101","0.0-155.0","4ucl52rb",""," ","null","","","","",""
"","","","call-function","156","520102","0.0-156.0","4ucl52rb","","","","","","","",""
"null","","","html-keyboard-response","157","521606","0.0-157.0","4ucl52rb","","<span style=""color:Black; font-size:50px;"">Video 1</span>","null","","","","",""
"null","","","video-keyboard-response","158","524721","0.0-158.0","4ucl52rb","","","null","","<span style=""color:Black; font-size:50px;"">Casey","Casey","LEARNING_STIM_10/1159325.bmp_pp62_L2_V1_veridical_freeview_isoFalse_fps144.mp4",""
"null","","","html-keyboard-response","159","526225","0.0-159.0","4ucl52rb","","<span style=""color:Black; font-size:50px;"">Video 2</span>","null","","","","",""
"null","","","video-keyboard-response","160","529329","0.0-160.0","4ucl52rb","","","null","","<span style=""color:Black; font-size:50px;"">Sandy","Sandy","LEARNING_STIM_10/1159325.bmp_pp88_L2_V1_veridical_freeview_isoFalse_fps144.mp4",""
"","","","call-function","161","529329","0.0-161.0","4ucl52rb","","","","","","","",""
"920.4449999999488","","","categorize-html","162","532254","0.0-162.0","4ucl52rb","","Which video showed <span style=""font-size:30px"">Sandy's</span> attention?","50","","","","","true"
"null","","","html-keyboard-response","163","532756","0.0-163.0","4ucl52rb",""," ","null","","","","",""
"","","","call-function","164","532756","0.0-164.0","4ucl52rb","","","","","","","",""
"null","","","html-keyboard-response","165","534260","0.0-165.0","4ucl52rb","","<span style=""color:Black; font-size:50px;"">Video 1</span>","null","","","","",""
"null","","","video-keyboard-response","166","537366","0.0-166.0","4ucl52rb","","","null","","<span style=""color:Black; font-size:50px;"">Sandy","Sandy","LEARNING_STIM_10/1160127.bmp_pp88_L2_V1_veridical_freeview_isoFalse_fps144.mp4",""
"null","","","html-keyboard-response","167","538871","0.0-167.0","4ucl52rb","","<span style=""color:Black; font-size:50px;"">Video 2</span>","null","","","","",""
"null","","","video-keyboard-response","168","541970","0.0-168.0","4ucl52rb","","","null","","<span style=""color:Black; font-size:50px;"">Casey","Casey","LEARNING_STIM_10/1160127.bmp_pp62_L2_V1_veridical_freeview_isoFalse_fps144.mp4",""
"","","","call-function","169","541971","0.0-169.0","4ucl52rb","","","","","","","",""
"718.4699999999721","","","categorize-html","170","544693","0.0-170.0","4ucl52rb","","Which video showed <span style=""font-size:30px"">Sandy's</span> attention?","50","","","","","false"
"null","","","html-keyboard-response","171","545197","0.0-171.0","4ucl52rb",""," ","null","","","","",""
"11366.224999999977","","","instructions","172","556563","0.0-172.0","4ucl52rb","[{""page_index"":0,""viewing_time"":2173.1350000000093},{""page_index"":1,""viewing_time"":6921.244999999995},{""page_index"":2,""viewing_time"":2271.734999999986}]","","","","","","",""
"4630.849999999977","","","instructions","173","561195","0.0-173.0","4ucl52rb","[{""page_index"":0,""viewing_time"":939.4250000000466},{""page_index"":1,""viewing_time"":2700.890000000014},{""page_index"":2,""viewing_time"":990.4249999999302}]","","","","","","",""
"","","","call-function","174","561195","0.0-174.0","4ucl52rb","","","","","","","",""
"null","","","html-keyboard-response","175","562696","0.0-175.0","4ucl52rb","","<span style=""color:Black; font-size:50px;"">Video 1</span>","null","","","","",""
"null","","","video-keyboard-response","176","565756","0.0-176.0","4ucl52rb","","","null","","<span style=""color:Black; font-size:50px;"">Sandy","Sandy","LEARNING_STIM_10/1591975.bmp_pp88_L2_V1_veridical_freeview_isoFalse_fps144.mp4",""
"null","","","html-keyboard-response","177","567261","0.0-177.0","4ucl52rb","","<span style=""color:Black; font-size:50px;"">Video 2</span>","null","","","","",""
"null","","","video-keyboard-response","178","570328","0.0-178.0","4ucl52rb","","","null","","<span style=""color:Black; font-size:50px;"">Casey","Casey","LEARNING_STIM_10/1591975.bmp_pp62_L2_V1_veridical_freeview_isoFalse_fps144.mp4",""
"","","","call-function","179","570328","0.0-179.0","4ucl52rb","","","","","","","",""
"1360.920000000042","","","categorize-html","180","573691","0.0-180.0","4ucl52rb","","Which video showed <span style=""font-size:30px"">Sandy's</span> attention?","49","","","","","true"
"null","","","html-keyboard-response","181","574196","0.0-181.0","4ucl52rb",""," ","null","","","","",""
"","","","call-function","182","574196","0.0-182.0","4ucl52rb","","","","","","","",""
"null","","","html-keyboard-response","183","575702","0.0-183.0","4ucl52rb","","<span style=""color:Black; font-size:50px;"">Video 1</span>","null","","","","",""
"null","","","video-keyboard-response","184","578765","0.0-184.0","4ucl52rb","","","null","","<span style=""color:Black; font-size:50px;"">Casey","Casey","LEARNING_STIM_10/713003.bmp_pp62_L2_V1_veridical_freeview_isoFalse_fps144.mp4",""
"null","","","html-keyboard-response","185","580267","0.0-185.0","4ucl52rb","","<span style=""color:Black; font-size:50px;"">Video 2</span>","null","","","","",""
"null","","","video-keyboard-response","186","583342","0.0-186.0","4ucl52rb","","","null","","<span style=""color:Black; font-size:50px;"">Sandy","Sandy","LEARNING_STIM_10/713003.bmp_pp88_L2_V1_veridical_freeview_isoFalse_fps144.mp4",""
"","","","call-function","187","583342","0.0-187.0","4ucl52rb","","","","","","","",""
"1387.890000000014","","","categorize-html","188","586734","0.0-188.0","4ucl52rb","","Which video showed <span style=""font-size:30px"">Sandy's</span> attention?","49","","","","","false"
"null","","","html-keyboard-response","189","587236","0.0-189.0","4ucl52rb",""," ","null","","","","",""
"","","","call-function","190","587237","0.0-190.0","4ucl52rb","","","","","","","",""
"null","","","html-keyboard-response","191","588738","0.0-191.0","4ucl52rb","","<span style=""color:Black; font-size:50px;"">Video 1</span>","null","","","","",""
"null","","","video-keyboard-response","192","591878","0.0-192.0","4ucl52rb","","","null","","<span style=""color:Black; font-size:50px;"">Sandy","Sandy","LEARNING_STIM_10/107964.bmp_pp88_L2_V1_veridical_freeview_isoFalse_fps144.mp4",""
"null","","","html-keyboard-response","193","593384","0.0-193.0","4ucl52rb","","<span style=""color:Black; font-size:50px;"">Video 2</span>","null","","","","",""
"null","","","video-keyboard-response","194","596486","0.0-194.0","4ucl52rb","","","null","","<span style=""color:Black; font-size:50px;"">Casey","Casey","LEARNING_STIM_10/107964.bmp_pp62_L2_V1_veridical_freeview_isoFalse_fps144.mp4",""
"","","","call-function","195","596487","0.0-195.0","4ucl52rb","","","","","","","",""
"2010.9150000000373","","","categorize-html","196","600503","0.0-196.0","4ucl52rb","","Which video showed <span style=""font-size:30px"">Sandy's</span> attention?","50","","","","","false"
"null","","","html-keyboard-response","197","601004","0.0-197.0","4ucl52rb",""," ","null","","","","",""
"","","","call-function","198","601005","0.0-198.0","4ucl52rb","","","","","","","",""
"null","","","html-keyboard-response","199","602509","0.0-199.0","4ucl52rb","","<span style=""color:Black; font-size:50px;"">Video 1</span>","null","","","","",""
"null","","","video-keyboard-response","200","605621","0.0-200.0","4ucl52rb","","","null","","<span style=""color:Black; font-size:50px;"">Casey","Casey","LEARNING_STIM_10/61574.bmp_pp62_L2_V1_veridical_freeview_isoFalse_fps144.mp4",""
"null","","","html-keyboard-response","201","607123","0.0-201.0","4ucl52rb","","<span style=""color:Black; font-size:50px;"">Video 2</span>","null","","","","",""
"null","","","video-keyboard-response","202","610222","0.0-202.0","4ucl52rb","","","null","","<span style=""color:Black; font-size:50px;"">Sandy","Sandy","LEARNING_STIM_10/61574.bmp_pp88_L2_V1_veridical_freeview_isoFalse_fps144.mp4",""
"","","","call-function","203","610222","0.0-203.0","4ucl52rb","","","","","","","",""
"1083.6800000000512","","","categorize-html","204","613313","0.0-204.0","4ucl52rb","","Which video showed <span style=""font-size:30px"">Sandy's</span> attention?","50","","","","","true"
"null","","","html-keyboard-response","205","613815","0.0-205.0","4ucl52rb",""," ","null","","","","",""
"","","","call-function","206","613815","0.0-206.0","4ucl52rb","","","","","","","",""
"null","","","html-keyboard-response","207","615320","0.0-207.0","4ucl52rb","","<span style=""color:Black; font-size:50px;"">Video 1</span>","null","","","","",""
"null","","","video-keyboard-response","208","618417","0.0-208.0","4ucl52rb","","","null","","<span style=""color:Black; font-size:50px;"">Sandy","Sandy","LEARNING_STIM_10/1592251.bmp_pp88_L2_V1_veridical_freeview_isoFalse_fps144.mp4",""
"null","","","html-keyboard-response","209","619918","0.0-209.0","4ucl52rb","","<span style=""color:Black; font-size:50px;"">Video 2</span>","null","","","","",""
"null","","","video-keyboard-response","210","623010","0.0-210.0","4ucl52rb","","","null","","<span style=""color:Black; font-size:50px;"">Casey","Casey","LEARNING_STIM_10/1592251.bmp_pp62_L2_V1_veridical_freeview_isoFalse_fps144.mp4",""
"","","","call-function","211","623010","0.0-211.0","4ucl52rb","","","","","","","",""
"839.9800000000978","","","categorize-html","212","625852","0.0-212.0","4ucl52rb","","Which video showed <span style=""font-size:30px"">Sandy's</span> attention?","50","","","","","false"
"null","","","html-keyboard-response","213","626356","0.0-213.0","4ucl52rb",""," ","null","","","","",""
"","","","call-function","214","626356","0.0-214.0","4ucl52rb","","","","","","","",""
"null","","","html-keyboard-response","215","627861","0.0-215.0","4ucl52rb","","<span style=""color:Black; font-size:50px;"">Video 1</span>","null","","","","",""
"null","","","video-keyboard-response","216","630938","0.0-216.0","4ucl52rb","","","null","","<span style=""color:Black; font-size:50px;"">Casey","Casey","LEARNING_STIM_10/498388.bmp_pp62_L2_V1_veridical_freeview_isoFalse_fps144.mp4",""
"null","","","html-keyboard-response","217","632445","0.0-217.0","4ucl52rb","","<span style=""color:Black; font-size:50px;"">Video 2</span>","null","","","","",""
"null","","","video-keyboard-response","218","635505","0.0-218.0","4ucl52rb","","","null","","<span style=""color:Black; font-size:50px;"">Sandy","Sandy","LEARNING_STIM_10/498388.bmp_pp88_L2_V1_veridical_freeview_isoFalse_fps144.mp4",""
"","","","call-function","219","635505","0.0-219.0","4ucl52rb","","","","","","","",""
"592.6050000000978","","","categorize-html","220","638102","0.0-220.0","4ucl52rb","","Which video showed <span style=""font-size:30px"">Sandy's</span> attention?","50","","","","","true"
"null","","","html-keyboard-response","221","638605","0.0-221.0","4ucl52rb",""," ","null","","","","",""
"","","","call-function","222","638605","0.0-222.0","4ucl52rb","","","","","","","",""
"null","","","html-keyboard-response","223","640111","0.0-223.0","4ucl52rb","","<span style=""color:Black; font-size:50px;"">Video 1</span>","null","","","","",""
"null","","","video-keyboard-response","224","643175","0.0-224.0","4ucl52rb","","","null","","<span style=""color:Black; font-size:50px;"">Casey","Casey","LEARNING_STIM_10/1160167.bmp_pp62_L2_V1_veridical_freeview_isoFalse_fps144.mp4",""
"null","","","html-keyboard-response","225","644681","0.0-225.0","4ucl52rb","","<span style=""color:Black; font-size:50px;"">Video 2</span>","null","","","","",""
"null","","","video-keyboard-response","226","647743","0.0-226.0","4ucl52rb","","","null","","<span style=""color:Black; font-size:50px;"">Sandy","Sandy","LEARNING_STIM_10/1160167.bmp_pp88_L2_V1_veridical_freeview_isoFalse_fps144.mp4",""
"","","","call-function","227","647743","0.0-227.0","4ucl52rb","","","","","","","",""
"2154.5050000000047","","","categorize-html","228","651900","0.0-228.0","4ucl52rb","","Which video showed <span style=""font-size:30px"">Sandy's</span> attention?","50","","","","","true"
"null","","","html-keyboard-response","229","652403","0.0-229.0","4ucl52rb",""," ","null","","","","",""
"","","","call-function","230","652403","0.0-230.0","4ucl52rb","","","","","","","",""
"null","","","html-keyboard-response","231","653907","0.0-231.0","4ucl52rb","","<span style=""color:Black; font-size:50px;"">Video 1</span>","null","","","","",""
"null","","","video-keyboard-response","232","657010","0.0-232.0","4ucl52rb","","","null","","<span style=""color:Black; font-size:50px;"">Casey","Casey","LEARNING_STIM_10/1159775.bmp_pp62_L2_V1_veridical_freeview_isoFalse_fps144.mp4",""
"null","","","html-keyboard-response","233","658514","0.0-233.0","4ucl52rb","","<span style=""color:Black; font-size:50px;"">Video 2</span>","null","","","","",""
"null","","","video-keyboard-response","234","661603","0.0-234.0","4ucl52rb","","","null","","<span style=""color:Black; font-size:50px;"">Sandy","Sandy","LEARNING_STIM_10/1159775.bmp_pp88_L2_V1_veridical_freeview_isoFalse_fps144.mp4",""
"","","","call-function","235","661604","0.0-235.0","4ucl52rb","","","","","","","",""
"1341.6899999999441","","","categorize-html","236","664951","0.0-236.0","4ucl52rb","","Which video showed <span style=""font-size:30px"">Sandy's</span> attention?","49","","","","","false"
"null","","","html-keyboard-response","237","665454","0.0-237.0","4ucl52rb",""," ","null","","","","",""
"","","","call-function","238","665454","0.0-238.0","4ucl52rb","","","","","","","",""
"null","","","html-keyboard-response","239","666956","0.0-239.0","4ucl52rb","","<span style=""color:Black; font-size:50px;"">Video 1</span>","null","","","","",""
"null","","","video-keyboard-response","240","670049","0.0-240.0","4ucl52rb","","","null","","<span style=""color:Black; font-size:50px;"">Casey","Casey","LEARNING_STIM_10/1160247.bmp_pp62_L2_V1_veridical_freeview_isoFalse_fps144.mp4",""
"null","","","html-keyboard-response","241","671551","0.0-241.0","4ucl52rb","","<span style=""color:Black; font-size:50px;"">Video 2</span>","null","","","","",""
"null","","","video-keyboard-response","242","674647","0.0-242.0","4ucl52rb","","","null","","<span style=""color:Black; font-size:50px;"">Sandy","Sandy","LEARNING_STIM_10/1160247.bmp_pp88_L2_V1_veridical_freeview_isoFalse_fps144.mp4",""
"","","","call-function","243","674648","0.0-243.0","4ucl52rb","","","","","","","",""
"2585.9599999999627","","","categorize-html","244","679236","0.0-244.0","4ucl52rb","","Which video showed <span style=""font-size:30px"">Sandy's</span> attention?","50","","","","","true"
"null","","","html-keyboard-response","245","679740","0.0-245.0","4ucl52rb",""," ","null","","","","",""
"","","","call-function","246","679741","0.0-246.0","4ucl52rb","","","","","","","",""
"null","","","html-keyboard-response","247","681247","0.0-247.0","4ucl52rb","","<span style=""color:Black; font-size:50px;"">Video 1</span>","null","","","","",""
"null","","","video-keyboard-response","248","684351","0.0-248.0","4ucl52rb","","","null","","<span style=""color:Black; font-size:50px;"">Casey","Casey","LEARNING_STIM_10/498396.bmp_pp62_L2_V1_veridical_freeview_isoFalse_fps144.mp4",""
"null","","","html-keyboard-response","249","685858","0.0-249.0","4ucl52rb","","<span style=""color:Black; font-size:50px;"">Video 2</span>","null","","","","",""
"null","","","video-keyboard-response","250","688951","0.0-250.0","4ucl52rb","","","null","","<span style=""color:Black; font-size:50px;"">Sandy","Sandy","LEARNING_STIM_10/498396.bmp_pp88_L2_V1_veridical_freeview_isoFalse_fps144.mp4",""
"","","","call-function","251","688951","0.0-251.0","4ucl52rb","","","","","","","",""
"618.5549999999348","","","categorize-html","252","691573","0.0-252.0","4ucl52rb","","Which video showed <span style=""font-size:30px"">Sandy's</span> attention?","50","","","","","true"
"null","","","html-keyboard-response","253","692077","0.0-253.0","4ucl52rb",""," ","null","","","","",""
"3872.564999999944","","","instructions","254","695950","0.0-254.0","4ucl52rb","[{""page_index"":0,""viewing_time"":2033.204999999958},{""page_index"":1,""viewing_time"":985.5250000000233},{""page_index"":2,""viewing_time"":853.7199999999721}]","","","","","","",""
"4460.340000000084","","","instructions","255","700410","0.0-255.0","4ucl52rb","[{""page_index"":0,""viewing_time"":496.5550000000512},{""page_index"":1,""viewing_time"":3072.79999999993},{""page_index"":2,""viewing_time"":890.8700000001118}]","","","","","","",""
"","","","call-function","256","700411","0.0-256.0","4ucl52rb","","","","","","","",""
"null","","","html-keyboard-response","257","701917","0.0-257.0","4ucl52rb","","<span style=""color:Black; font-size:50px;"">Video 1</span>","null","","","","",""
"null","","","video-keyboard-response","258","704990","0.0-258.0","4ucl52rb","","","null","","<span style=""color:Black; font-size:50px;"">Sandy","Sandy","LEARNING_STIM_10/1159724.bmp_pp88_L2_V1_veridical_freeview_isoFalse_fps144.mp4",""
"null","","","html-keyboard-response","259","706496","0.0-259.0","4ucl52rb","","<span style=""color:Black; font-size:50px;"">Video 2</span>","null","","","","",""
"null","","","video-keyboard-response","260","709558","0.0-260.0","4ucl52rb","","","null","","<span style=""color:Black; font-size:50px;"">Casey","Casey","LEARNING_STIM_10/1159724.bmp_pp62_L2_V1_veridical_freeview_isoFalse_fps144.mp4",""
"","","","call-function","261","709559","0.0-261.0","4ucl52rb","","","","","","","",""
"1819.0599999999395","","","categorize-html","262","713382","0.0-262.0","4ucl52rb","","Which video showed <span style=""font-size:30px"">Sandy's</span> attention?","49","","","","","true"
"null","","","html-keyboard-response","263","713886","0.0-263.0","4ucl52rb",""," ","null","","","","",""
"","","","call-function","264","713887","0.0-264.0","4ucl52rb","","","","","","","",""
"null","","","html-keyboard-response","265","715392","0.0-265.0","4ucl52rb","","<span style=""color:Black; font-size:50px;"">Video 1</span>","null","","","","",""
"null","","","video-keyboard-response","266","718455","0.0-266.0","4ucl52rb","","","null","","<span style=""color:Black; font-size:50px;"">Casey","Casey","LEARNING_STIM_10/1591961.bmp_pp62_L2_V1_veridical_freeview_isoFalse_fps144.mp4",""
"null","","","html-keyboard-response","267","719961","0.0-267.0","4ucl52rb","","<span style=""color:Black; font-size:50px;"">Video 2</span>","null","","","","",""
"null","","","video-keyboard-response","268","723038","0.0-268.0","4ucl52rb","","","null","","<span style=""color:Black; font-size:50px;"">Sandy","Sandy","LEARNING_STIM_10/1591961.bmp_pp88_L2_V1_veridical_freeview_isoFalse_fps144.mp4",""
"","","","call-function","269","723038","0.0-269.0","4ucl52rb","","","","","","","",""
"1227.734999999986","","","categorize-html","270","726268","0.0-270.0","4ucl52rb","","Which video showed <span style=""font-size:30px"">Sandy's</span> attention?","49","","","","","false"
"null","","","html-keyboard-response","271","726774","0.0-271.0","4ucl52rb",""," ","null","","","","",""
"","","","call-function","272","726775","0.0-272.0","4ucl52rb","","","","","","","",""
"null","","","html-keyboard-response","273","728280","0.0-273.0","4ucl52rb","","<span style=""color:Black; font-size:50px;"">Video 1</span>","null","","","","",""
"null","","","video-keyboard-response","274","731339","0.0-274.0","4ucl52rb","","","null","","<span style=""color:Black; font-size:50px;"">Casey","Casey","LEARNING_STIM_10/713681.bmp_pp62_L2_V1_veridical_freeview_isoFalse_fps144.mp4",""
"null","","","html-keyboard-response","275","732843","0.0-275.0","4ucl52rb","","<span style=""color:Black; font-size:50px;"">Video 2</span>","null","","","","",""
"null","","","video-keyboard-response","276","735905","0.0-276.0","4ucl52rb","","","null","","<span style=""color:Black; font-size:50px;"">Sandy","Sandy","LEARNING_STIM_10/713681.bmp_pp88_L2_V1_veridical_freeview_isoFalse_fps144.mp4",""
"","","","call-function","277","735905","0.0-277.0","4ucl52rb","","","","","","","",""
"1008.4250000000466","","","categorize-html","278","738919","0.0-278.0","4ucl52rb","","Which video showed <span style=""font-size:30px"">Sandy's</span> attention?","49","","","","","false"
"null","","","html-keyboard-response","279","739425","0.0-279.0","4ucl52rb",""," ","null","","","","",""
"","","","call-function","280","739425","0.0-280.0","4ucl52rb","","","","","","","",""
"null","","","html-keyboard-response","281","740930","0.0-281.0","4ucl52rb","","<span style=""color:Black; font-size:50px;"">Video 1</span>","null","","","","",""
"null","","","video-keyboard-response","282","744033","0.0-282.0","4ucl52rb","","","null","","<span style=""color:Black; font-size:50px;"">Sandy","Sandy","LEARNING_STIM_10/713112.bmp_pp88_L2_V1_veridical_freeview_isoFalse_fps144.mp4",""
"null","","","html-keyboard-response","283","745535","0.0-283.0","4ucl52rb","","<span style=""color:Black; font-size:50px;"">Video 2</span>","null","","","","",""
"null","","","video-keyboard-response","284","748622","0.0-284.0","4ucl52rb","","","null","","<span style=""color:Black; font-size:50px;"">Casey","Casey","LEARNING_STIM_10/713112.bmp_pp62_L2_V1_veridical_freeview_isoFalse_fps144.mp4",""
"","","","call-function","285","748623","0.0-285.0","4ucl52rb","","","","","","","",""
"1938.704999999958","","","categorize-html","286","752569","0.0-286.0","4ucl52rb","","Which video showed <span style=""font-size:30px"">Sandy's</span> attention?","49","","","","","true"
"null","","","html-keyboard-response","287","753073","0.0-287.0","4ucl52rb",""," ","null","","","","",""
"","","","call-function","288","753073","0.0-288.0","4ucl52rb","","","","","","","",""
"null","","","html-keyboard-response","289","754577","0.0-289.0","4ucl52rb","","<span style=""color:Black; font-size:50px;"">Video 1</span>","null","","","","",""
"null","","","video-keyboard-response","290","757663","0.0-290.0","4ucl52rb","","","null","","<span style=""color:Black; font-size:50px;"">Casey","Casey","LEARNING_STIM_10/285949.bmp_pp62_L2_V1_veridical_freeview_isoFalse_fps144.mp4",""
"null","","","html-keyboard-response","291","759167","0.0-291.0","4ucl52rb","","<span style=""color:Black; font-size:50px;"">Video 2</span>","null","","","","",""
"null","","","video-keyboard-response","292","762254","0.0-292.0","4ucl52rb","","","null","","<span style=""color:Black; font-size:50px;"">Sandy","Sandy","LEARNING_STIM_10/285949.bmp_pp88_L2_V1_veridical_freeview_isoFalse_fps144.mp4",""
"","","","call-function","293","762255","0.0-293.0","4ucl52rb","","","","","","","",""
"1371.045000000042","","","categorize-html","294","765628","0.0-294.0","4ucl52rb","","Which video showed <span style=""font-size:30px"">Sandy's</span> attention?","50","","","","","true"
"null","","","html-keyboard-response","295","766128","0.0-295.0","4ucl52rb",""," ","null","","","","",""
"","","","call-function","296","766129","0.0-296.0","4ucl52rb","","","","","","","",""
"null","","","html-keyboard-response","297","767632","0.0-297.0","4ucl52rb","","<span style=""color:Black; font-size:50px;"">Video 1</span>","null","","","","",""
"null","","","video-keyboard-response","298","770734","0.0-298.0","4ucl52rb","","","null","","<span style=""color:Black; font-size:50px;"">Sandy","Sandy","LEARNING_STIM_10/1160155.bmp_pp88_L2_V1_veridical_freeview_isoFalse_fps144.mp4",""
"null","","","html-keyboard-response","299","772237","0.0-299.0","4ucl52rb","","<span style=""color:Black; font-size:50px;"">Video 2</span>","null","","","","",""
"null","","","video-keyboard-response","300","775329","0.0-300.0","4ucl52rb","","","null","","<span style=""color:Black; font-size:50px;"">Casey","Casey","LEARNING_STIM_10/1160155.bmp_pp62_L2_V1_veridical_freeview_isoFalse_fps144.mp4",""
"","","","call-function","301","775329","0.0-301.0","4ucl52rb","","","","","","","",""
"2224.7249999999767","","","categorize-html","302","779558","0.0-302.0","4ucl52rb","","Which video showed <span style=""font-size:30px"">Sandy's</span> attention?","50","","","","","false"
"null","","","html-keyboard-response","303","780060","0.0-303.0","4ucl52rb",""," ","null","","","","",""
"","","","call-function","304","780060","0.0-304.0","4ucl52rb","","","","","","","",""
"null","","","html-keyboard-response","305","781565","0.0-305.0","4ucl52rb","","<span style=""color:Black; font-size:50px;"">Video 1</span>","null","","","","",""
"null","","","video-keyboard-response","306","784633","0.0-306.0","4ucl52rb","","","null","","<span style=""color:Black; font-size:50px;"">Sandy","Sandy","LEARNING_STIM_10/1592352.bmp_pp88_L2_V1_veridical_freeview_isoFalse_fps144.mp4",""
"null","","","html-keyboard-response","307","786136","0.0-307.0","4ucl52rb","","<span style=""color:Black; font-size:50px;"">Video 2</span>","null","","","","",""
"null","","","video-keyboard-response","308","789196","0.0-308.0","4ucl52rb","","","null","","<span style=""color:Black; font-size:50px;"">Casey","Casey","LEARNING_STIM_10/1592352.bmp_pp62_L2_V1_veridical_freeview_isoFalse_fps144.mp4",""
"","","","call-function","309","789197","0.0-309.0","4ucl52rb","","","","","","","",""
"644.890000000014","","","categorize-html","310","791847","0.0-310.0","4ucl52rb","","Which video showed <span style=""font-size:30px"">Sandy's</span> attention?","50","","","","","false"
"null","","","html-keyboard-response","311","792352","0.0-311.0","4ucl52rb",""," ","null","","","","",""
"","","","call-function","312","792352","0.0-312.0","4ucl52rb","","","","","","","",""
"null","","","html-keyboard-response","313","793854","0.0-313.0","4ucl52rb","","<span style=""color:Black; font-size:50px;"">Video 1</span>","null","","","","",""
"null","","","video-keyboard-response","314","796930","0.0-314.0","4ucl52rb","","","null","","<span style=""color:Black; font-size:50px;"">Sandy","Sandy","LEARNING_STIM_10/1160204.bmp_pp88_L2_V1_veridical_freeview_isoFalse_fps144.mp4",""
"null","","","html-keyboard-response","315","798431","0.0-315.0","4ucl52rb","","<span style=""color:Black; font-size:50px;"">Video 2</span>","null","","","","",""
"null","","","video-keyboard-response","316","801495","0.0-316.0","4ucl52rb","","","null","","<span style=""color:Black; font-size:50px;"">Casey","Casey","LEARNING_STIM_10/1160204.bmp_pp62_L2_V1_veridical_freeview_isoFalse_fps144.mp4",""
"","","","call-function","317","801496","0.0-317.0","4ucl52rb","","","","","","","",""
"401.83500000007916","","","categorize-html","318","803902","0.0-318.0","4ucl52rb","","Which video showed <span style=""font-size:30px"">Sandy's</span> attention?","50","","","","","false"
"null","","","html-keyboard-response","319","804403","0.0-319.0","4ucl52rb",""," ","null","","","","",""
"","","","call-function","320","804404","0.0-320.0","4ucl52rb","","","","","","","",""
"null","","","html-keyboard-response","321","805909","0.0-321.0","4ucl52rb","","<span style=""color:Black; font-size:50px;"">Video 1</span>","null","","","","",""
"null","","","video-keyboard-response","322","808999","0.0-322.0","4ucl52rb","","","null","","<span style=""color:Black; font-size:50px;"">Casey","Casey","LEARNING_STIM_10/1592362.bmp_pp62_L2_V1_veridical_freeview_isoFalse_fps144.mp4",""
"null","","","html-keyboard-response","323","810506","0.0-323.0","4ucl52rb","","<span style=""color:Black; font-size:50px;"">Video 2</span>","null","","","","",""
"null","","","video-keyboard-response","324","813593","0.0-324.0","4ucl52rb","","","null","","<span style=""color:Black; font-size:50px;"">Sandy","Sandy","LEARNING_STIM_10/1592362.bmp_pp88_L2_V1_veridical_freeview_isoFalse_fps144.mp4",""
"","","","call-function","325","813593","0.0-325.0","4ucl52rb","","","","","","","",""
"680.5999999999767","","","categorize-html","326","816278","0.0-326.0","4ucl52rb","","Which video showed <span style=""font-size:30px"">Sandy's</span> attention?","49","","","","","false"
"null","","","html-keyboard-response","327","816782","0.0-327.0","4ucl52rb",""," ","null","","","","",""
"","","","call-function","328","816783","0.0-328.0","4ucl52rb","","","","","","","",""
"null","","","html-keyboard-response","329","818284","0.0-329.0","4ucl52rb","","<span style=""color:Black; font-size:50px;"">Video 1</span>","null","","","","",""
"null","","","video-keyboard-response","330","821386","0.0-330.0","4ucl52rb","","","null","","<span style=""color:Black; font-size:50px;"">Casey","Casey","LEARNING_STIM_10/1160180.bmp_pp62_L2_V1_veridical_freeview_isoFalse_fps144.mp4",""
"null","","","html-keyboard-response","331","822891","0.0-331.0","4ucl52rb","","<span style=""color:Black; font-size:50px;"">Video 2</span>","null","","","","",""
"null","","","video-keyboard-response","332","825997","0.0-332.0","4ucl52rb","","","null","","<span style=""color:Black; font-size:50px;"">Sandy","Sandy","LEARNING_STIM_10/1160180.bmp_pp88_L2_V1_veridical_freeview_isoFalse_fps144.mp4",""
"","","","call-function","333","825997","0.0-333.0","4ucl52rb","","","","","","","",""
"532.25","","","categorize-html","334","828536","0.0-334.0","4ucl52rb","","Which video showed <span style=""font-size:30px"">Sandy's</span> attention?","50","","","","","true"
"null","","","html-keyboard-response","335","829039","0.0-335.0","4ucl52rb",""," ","null","","","","",""
"1959.405000000028","","","instructions","336","830999","0.0-336.0","4ucl52rb","[{""page_index"":0,""viewing_time"":1057.625},{""page_index"":1,""viewing_time"":127.95499999995809},{""page_index"":2,""viewing_time"":773.625}]","","","","","","",""
"2808.9499999999534","","","instructions","337","833808","0.0-337.0","4ucl52rb","[{""page_index"":0,""viewing_time"":670.7299999999814},{""page_index"":1,""viewing_time"":1651.859999999986},{""page_index"":2,""viewing_time"":486.25500000000466}]","","","","","","",""
"","","","call-function","338","833808","0.0-338.0","4ucl52rb","","","","","","","",""
"null","","","html-keyboard-response","339","835310","0.0-339.0","4ucl52rb","","<span style=""color:Black; font-size:50px;"">Video 1</span>","null","","","","",""
"null","","","video-keyboard-response","340","838423","0.0-340.0","4ucl52rb","","","null","","<span style=""color:Black; font-size:50px;"">Casey","Casey","LEARNING_STIM_10/713017.bmp_pp62_L2_V1_veridical_freeview_isoFalse_fps144.mp4",""
"null","","","html-keyboard-response","341","839927","0.0-341.0","4ucl52rb","","<span style=""color:Black; font-size:50px;"">Video 2</span>","null","","","","",""
"null","","","video-keyboard-response","342","843030","0.0-342.0","4ucl52rb","","","null","","<span style=""color:Black; font-size:50px;"">Sandy","Sandy","LEARNING_STIM_10/713017.bmp_pp88_L2_V1_veridical_freeview_isoFalse_fps144.mp4",""
"","","","call-function","343","843030","0.0-343.0","4ucl52rb","","","","","","","",""
"1251.375","","","categorize-html","344","846288","0.0-344.0","4ucl52rb","","Which video showed <span style=""font-size:30px"">Sandy's</span> attention?","50","","","","","true"
"null","","","html-keyboard-response","345","846790","0.0-345.0","4ucl52rb",""," ","null","","","","",""
"","","","call-function","346","846791","0.0-346.0","4ucl52rb","","","","","","","",""
"null","","","html-keyboard-response","347","848292","0.0-347.0","4ucl52rb","","<span style=""color:Black; font-size:50px;"">Video 1</span>","null","","","","",""
"null","","","video-keyboard-response","348","851368","0.0-348.0","4ucl52rb","","","null","","<span style=""color:Black; font-size:50px;"">Sandy","Sandy","LEARNING_STIM_10/1159329.bmp_pp88_L2_V1_veridical_freeview_isoFalse_fps144.mp4",""
"null","","","html-keyboard-response","349","852872","0.0-349.0","4ucl52rb","","<span style=""color:Black; font-size:50px;"">Video 2</span>","null","","","","",""
"null","","","video-keyboard-response","350","855944","0.0-350.0","4ucl52rb","","","null","","<span style=""color:Black; font-size:50px;"">Casey","Casey","LEARNING_STIM_10/1159329.bmp_pp62_L2_V1_veridical_freeview_isoFalse_fps144.mp4",""
"","","","call-function","351","855944","0.0-351.0","4ucl52rb","","","","","","","",""
"609.2750000000233","","","categorize-html","352","858558","0.0-352.0","4ucl52rb","","Which video showed <span style=""font-size:30px"">Sandy's</span> attention?","50","","","","","false"
"null","","","html-keyboard-response","353","859061","0.0-353.0","4ucl52rb",""," ","null","","","","",""
"","","","call-function","354","859061","0.0-354.0","4ucl52rb","","","","","","","",""
"null","","","html-keyboard-response","355","860566","0.0-355.0","4ucl52rb","","<span style=""color:Black; font-size:50px;"">Video 1</span>","null","","","","",""
"null","","","video-keyboard-response","356","863634","0.0-356.0","4ucl52rb","","","null","","<span style=""color:Black; font-size:50px;"">Sandy","Sandy","LEARNING_STIM_10/1159813.bmp_pp88_L2_V1_veridical_freeview_isoFalse_fps144.mp4",""
"null","","","html-keyboard-response","357","865140","0.0-357.0","4ucl52rb","","<span style=""color:Black; font-size:50px;"">Video 2</span>","null","","","","",""
"null","","","video-keyboard-response","358","868203","0.0-358.0","4ucl52rb","","","null","","<span style=""color:Black; font-size:50px;"">Casey","Casey","LEARNING_STIM_10/1159813.bmp_pp62_L2_V1_veridical_freeview_isoFalse_fps144.mp4",""
"","","","call-function","359","868203","0.0-359.0","4ucl52rb","","","","","","","",""
"5126.79999999993","","","categorize-html","360","875334","0.0-360.0","4ucl52rb","","Which video showed <span style=""font-size:30px"">Sandy's</span> attention?","49","","","","","true"
"null","","","html-keyboard-response","361","875836","0.0-361.0","4ucl52rb",""," ","null","","","","",""
"","","","call-function","362","875836","0.0-362.0","4ucl52rb","","","","","","","",""
"null","","","html-keyboard-response","363","877339","0.0-363.0","4ucl52rb","","<span style=""color:Black; font-size:50px;"">Video 1</span>","null","","","","",""
"null","","","video-keyboard-response","364","880434","0.0-364.0","4ucl52rb","","","null","","<span style=""color:Black; font-size:50px;"">Casey","Casey","LEARNING_STIM_10/713513.bmp_pp62_L2_V1_veridical_freeview_isoFalse_fps144.mp4",""
"null","","","html-keyboard-response","365","881939","0.0-365.0","4ucl52rb","","<span style=""color:Black; font-size:50px;"">Video 2</span>","null","","","","",""
"null","","","video-keyboard-response","366","885037","0.0-366.0","4ucl52rb","","","null","","<span style=""color:Black; font-size:50px;"">Sandy","Sandy","LEARNING_STIM_10/713513.bmp_pp88_L2_V1_veridical_freeview_isoFalse_fps144.mp4",""
"","","","call-function","367","885038","0.0-367.0","4ucl52rb","","","","","","","",""
"476.0700000000652","","","categorize-html","368","887519","0.0-368.0","4ucl52rb","","Which video showed <span style=""font-size:30px"">Sandy's</span> attention?","49","","","","","false"
"null","","","html-keyboard-response","369","888022","0.0-369.0","4ucl52rb",""," ","null","","","","",""
"","","","call-function","370","888022","0.0-370.0","4ucl52rb","","","","","","","",""
"null","","","html-keyboard-response","371","889524","0.0-371.0","4ucl52rb","","<span style=""color:Black; font-size:50px;"">Video 1</span>","null","","","","",""
"null","","","video-keyboard-response","372","892612","0.0-372.0","4ucl52rb","","","null","","<span style=""color:Black; font-size:50px;"">Casey","Casey","LEARNING_STIM_10/713328.bmp_pp62_L2_V1_veridical_freeview_isoFalse_fps144.mp4",""
"null","","","html-keyboard-response","373","894119","0.0-373.0","4ucl52rb","","<span style=""color:Black; font-size:50px;"">Video 2</span>","null","","","","",""
"null","","","video-keyboard-response","374","897206","0.0-374.0","4ucl52rb","","","null","","<span style=""color:Black; font-size:50px;"">Sandy","Sandy","LEARNING_STIM_10/713328.bmp_pp88_L2_V1_veridical_freeview_isoFalse_fps144.mp4",""
"","","","call-function","375","897206","0.0-375.0","4ucl52rb","","","","","","","",""
"1563.579999999958","","","categorize-html","376","900773","0.0-376.0","4ucl52rb","","Which video showed <span style=""font-size:30px"">Sandy's</span> attention?","50","","","","","true"
"null","","","html-keyboard-response","377","901277","0.0-377.0","4ucl52rb",""," ","null","","","","",""
"","","","call-function","378","901277","0.0-378.0","4ucl52rb","","","","","","","",""
"null","","","html-keyboard-response","379","902783","0.0-379.0","4ucl52rb","","<span style=""color:Black; font-size:50px;"">Video 1</span>","null","","","","",""
"null","","","video-keyboard-response","380","905883","0.0-380.0","4ucl52rb","","","null","","<span style=""color:Black; font-size:50px;"">Sandy","Sandy","LEARNING_STIM_10/713512.bmp_pp88_L2_V1_veridical_freeview_isoFalse_fps144.mp4",""
"null","","","html-keyboard-response","381","907389","0.0-381.0","4ucl52rb","","<span style=""color:Black; font-size:50px;"">Video 2</span>","null","","","","",""
"null","","","video-keyboard-response","382","910488","0.0-382.0","4ucl52rb","","","null","","<span style=""color:Black; font-size:50px;"">Casey","Casey","LEARNING_STIM_10/713512.bmp_pp62_L2_V1_veridical_freeview_isoFalse_fps144.mp4",""
"","","","call-function","383","910489","0.0-383.0","4ucl52rb","","","","","","","",""
"441.3200000000652","","","categorize-html","384","912936","0.0-384.0","4ucl52rb","","Which video showed <span style=""font-size:30px"">Sandy's</span> attention?","50","","","","","false"
"null","","","html-keyboard-response","385","913438","0.0-385.0","4ucl52rb",""," ","null","","","","",""
"","","","call-function","386","913439","0.0-386.0","4ucl52rb","","","","","","","",""
"null","","","html-keyboard-response","387","914945","0.0-387.0","4ucl52rb","","<span style=""color:Black; font-size:50px;"">Video 1</span>","null","","","","",""
"null","","","video-keyboard-response","388","918012","0.0-388.0","4ucl52rb","","","null","","<span style=""color:Black; font-size:50px;"">Casey","Casey","LEARNING_STIM_10/150374.bmp_pp62_L2_V1_veridical_freeview_isoFalse_fps144.mp4",""
"null","","","html-keyboard-response","389","919514","0.0-389.0","4ucl52rb","","<span style=""color:Black; font-size:50px;"">Video 2</span>","null","","","","",""
"null","","","video-keyboard-response","390","922582","0.0-390.0","4ucl52rb","","","null","","<span style=""color:Black; font-size:50px;"">Sandy","Sandy","LEARNING_STIM_10/150374.bmp_pp88_L2_V1_veridical_freeview_isoFalse_fps144.mp4",""
"","","","call-function","391","922583","0.0-391.0","4ucl52rb","","","","","","","",""
"1531.3300000000745","","","categorize-html","392","926117","0.0-392.0","4ucl52rb","","Which video showed <span style=""font-size:30px"">Sandy's</span> attention?","49","","","","","false"
"null","","","html-keyboard-response","393","926623","0.0-393.0","4ucl52rb",""," ","null","","","","",""
"","","","call-function","394","926624","0.0-394.0","4ucl52rb","","","","","","","",""
"null","","","html-keyboard-response","395","928127","0.0-395.0","4ucl52rb","","<span style=""color:Black; font-size:50px;"">Video 1</span>","null","","","","",""
"null","","","video-keyboard-response","396","931187","0.0-396.0","4ucl52rb","","","null","","<span style=""color:Black; font-size:50px;"">Sandy","Sandy","LEARNING_STIM_10/498272.bmp_pp88_L2_V1_veridical_freeview_isoFalse_fps144.mp4",""
"null","","","html-keyboard-response","397","932691","0.0-397.0","4ucl52rb","","<span style=""color:Black; font-size:50px;"">Video 2</span>","null","","","","",""
"null","","","video-keyboard-response","398","935769","0.0-398.0","4ucl52rb","","","null","","<span style=""color:Black; font-size:50px;"">Casey","Casey","LEARNING_STIM_10/498272.bmp_pp62_L2_V1_veridical_freeview_isoFalse_fps144.mp4",""
"","","","call-function","399","935769","0.0-399.0","4ucl52rb","","","","","","","",""
"1128.6350000000093","","","categorize-html","400","938905","0.0-400.0","4ucl52rb","","Which video showed <span style=""font-size:30px"">Sandy's</span> attention?","50","","","","","false"
"null","","","html-keyboard-response","401","939409","0.0-401.0","4ucl52rb",""," ","null","","","","",""
"","","","call-function","402","939409","0.0-402.0","4ucl52rb","","","","","","","",""
"null","","","html-keyboard-response","403","940915","0.0-403.0","4ucl52rb","","<span style=""color:Black; font-size:50px;"">Video 1</span>","null","","","","",""
"null","","","video-keyboard-response","404","943998","0.0-404.0","4ucl52rb","","","null","","<span style=""color:Black; font-size:50px;"">Casey","Casey","LEARNING_STIM_10/713749.bmp_pp62_L2_V1_veridical_freeview_isoFalse_fps144.mp4",""
"null","","","html-keyboard-response","405","945501","0.0-405.0","4ucl52rb","","<span style=""color:Black; font-size:50px;"">Video 2</span>","null","","","","",""
"null","","","video-keyboard-response","406","948602","0.0-406.0","4ucl52rb","","","null","","<span style=""color:Black; font-size:50px;"">Sandy","Sandy","LEARNING_STIM_10/713749.bmp_pp88_L2_V1_veridical_freeview_isoFalse_fps144.mp4",""
"","","","call-function","407","948603","0.0-407.0","4ucl52rb","","","","","","","",""
"902.9699999999721","","","categorize-html","408","951512","0.0-408.0","4ucl52rb","","Which video showed <span style=""font-size:30px"">Sandy's</span> attention?","49","","","","","false"
"null","","","html-keyboard-response","409","952019","0.0-409.0","4ucl52rb",""," ","null","","","","",""
"","","","call-function","410","952020","0.0-410.0","4ucl52rb","","","","","","","",""
"null","","","html-keyboard-response","411","953524","0.0-411.0","4ucl52rb","","<span style=""color:Black; font-size:50px;"">Video 1</span>","null","","","","",""
"null","","","video-keyboard-response","412","956613","0.0-412.0","4ucl52rb","","","null","","<span style=""color:Black; font-size:50px;"">Casey","Casey","LEARNING_STIM_10/713807.bmp_pp62_L2_V1_veridical_freeview_isoFalse_fps144.mp4",""
"null","","","html-keyboard-response","413","958116","0.0-413.0","4ucl52rb","","<span style=""color:Black; font-size:50px;"">Video 2</span>","null","","","","",""
"null","","","video-keyboard-response","414","961209","0.0-414.0","4ucl52rb","","","null","","<span style=""color:Black; font-size:50px;"">Sandy","Sandy","LEARNING_STIM_10/713807.bmp_pp88_L2_V1_veridical_freeview_isoFalse_fps144.mp4",""
"","","","call-function","415","961209","0.0-415.0","4ucl52rb","","","","","","","",""
"632.5100000000093","","","categorize-html","416","963847","0.0-416.0","4ucl52rb","","Which video showed <span style=""font-size:30px"">Sandy's</span> attention?","50","","","","","true"
"null","","","html-keyboard-response","417","964350","0.0-417.0","4ucl52rb",""," ","null","","","","",""
"17447.509999999893","","","instructions","418","981798","0.0-418.0","4ucl52rb","[{""page_index"":0,""viewing_time"":15935.41499999992},{""page_index"":1,""viewing_time"":1002.3250000000698},{""page_index"":2,""viewing_time"":509.66499999992084}]","","","","","","",""
"2039.1300000000047","","","instructions","419","983837","0.0-419.0","4ucl52rb","[{""page_index"":0,""viewing_time"":598.0199999999022},{""page_index"":1,""viewing_time"":739.8050000000512},{""page_index"":2,""viewing_time"":701.1199999999953}]","","","","","","",""
"","","","call-function","420","983838","0.0-420.0","4ucl52rb","","","","","","","",""
"null","","","html-keyboard-response","421","985344","0.0-421.0","4ucl52rb","","<span style=""color:Black; font-size:50px;"">Video 1</span>","null","","","","",""
"null","","","video-keyboard-response","422","988408","0.0-422.0","4ucl52rb","","","null","","<span style=""color:Black; font-size:50px;"">Sandy","Sandy","LEARNING_STIM_10/713730.bmp_pp88_L2_V1_veridical_freeview_isoFalse_fps144.mp4",""
"null","","","html-keyboard-response","423","989913","0.0-423.0","4ucl52rb","","<span style=""color:Black; font-size:50px;"">Video 2</span>","null","","","","",""
"null","","","video-keyboard-response","424","992988","0.0-424.0","4ucl52rb","","","null","","<span style=""color:Black; font-size:50px;"">Casey","Casey","LEARNING_STIM_10/713730.bmp_pp62_L2_V1_veridical_freeview_isoFalse_fps144.mp4",""
"","","","call-function","425","992989","0.0-425.0","4ucl52rb","","","","","","","",""
"709.4449999999488","","","categorize-html","426","995703","0.0-426.0","4ucl52rb","","Which video showed <span style=""font-size:30px"">Sandy's</span> attention?","50","","","","","false"
"null","","","html-keyboard-response","427","996204","0.0-427.0","4ucl52rb",""," ","null","","","","",""
"","","","call-function","428","996205","0.0-428.0","4ucl52rb","","","","","","","",""
"null","","","html-keyboard-response","429","997712","0.0-429.0","4ucl52rb","","<span style=""color:Black; font-size:50px;"">Video 1</span>","null","","","","",""
"null","","","video-keyboard-response","430","1000770","0.0-430.0","4ucl52rb","","","null","","<span style=""color:Black; font-size:50px;"">Casey","Casey","LEARNING_STIM_10/1159889.bmp_pp62_L2_V1_veridical_freeview_isoFalse_fps144.mp4",""
"null","","","html-keyboard-response","431","1002274","0.0-431.0","4ucl52rb","","<span style=""color:Black; font-size:50px;"">Video 2</span>","null","","","","",""
"null","","","video-keyboard-response","432","1005343","0.0-432.0","4ucl52rb","","","null","","<span style=""color:Black; font-size:50px;"">Sandy","Sandy","LEARNING_STIM_10/1159889.bmp_pp88_L2_V1_veridical_freeview_isoFalse_fps144.mp4",""
"","","","call-function","433","1005343","0.0-433.0","4ucl52rb","","","","","","","",""
"1570.2350000001024","","","categorize-html","434","1008919","0.0-434.0","4ucl52rb","","Which video showed <span style=""font-size:30px"">Sandy's</span> attention?","49","","","","","false"
"null","","","html-keyboard-response","435","1009421","0.0-435.0","4ucl52rb",""," ","null","","","","",""
"","","","call-function","436","1009421","0.0-436.0","4ucl52rb","","","","","","","",""
"null","","","html-keyboard-response","437","1010922","0.0-437.0","4ucl52rb","","<span style=""color:Black; font-size:50px;"">Video 1</span>","null","","","","",""
"null","","","video-keyboard-response","438","1014004","0.0-438.0","4ucl52rb","","","null","","<span style=""color:Black; font-size:50px;"">Sandy","Sandy","LEARNING_STIM_10/1591859.bmp_pp88_L2_V1_veridical_freeview_isoFalse_fps144.mp4",""
"null","","","html-keyboard-response","439","1015506","0.0-439.0","4ucl52rb","","<span style=""color:Black; font-size:50px;"">Video 2</span>","null","","","","",""
"null","","","video-keyboard-response","440","1018597","0.0-440.0","4ucl52rb","","","null","","<span style=""color:Black; font-size:50px;"">Casey","Casey","LEARNING_STIM_10/1591859.bmp_pp62_L2_V1_veridical_freeview_isoFalse_fps144.mp4",""
"","","","call-function","441","1018598","0.0-441.0","4ucl52rb","","","","","","","",""
"1428.2399999999907","","","categorize-html","442","1022030","0.0-442.0","4ucl52rb","","Which video showed <span style=""font-size:30px"">Sandy's</span> attention?","50","","","","","false"
"null","","","html-keyboard-response","443","1022535","0.0-443.0","4ucl52rb",""," ","null","","","","",""
"","","","call-function","444","1022536","0.0-444.0","4ucl52rb","","","","","","","",""
"null","","","html-keyboard-response","445","1024041","0.0-445.0","4ucl52rb","","<span style=""color:Black; font-size:50px;"">Video 1</span>","null","","","","",""
"null","","","video-keyboard-response","446","1027141","0.0-446.0","4ucl52rb","","","null","","<span style=""color:Black; font-size:50px;"">Sandy","Sandy","LEARNING_STIM_10/1159434.bmp_pp88_L2_V1_veridical_freeview_isoFalse_fps144.mp4",""
"null","","","html-keyboard-response","447","1028644","0.0-447.0","4ucl52rb","","<span style=""color:Black; font-size:50px;"">Video 2</span>","null","","","","",""
"null","","","video-keyboard-response","448","1031731","0.0-448.0","4ucl52rb","","","null","","<span style=""color:Black; font-size:50px;"">Casey","Casey","LEARNING_STIM_10/1159434.bmp_pp62_L2_V1_veridical_freeview_isoFalse_fps144.mp4",""
"","","","call-function","449","1031731","0.0-449.0","4ucl52rb","","","","","","","",""
"670.9400000000605","","","categorize-html","450","1034404","0.0-450.0","4ucl52rb","","Which video showed <span style=""font-size:30px"">Sandy's</span> attention?","50","","","","","false"
"null","","","html-keyboard-response","451","1034910","0.0-451.0","4ucl52rb",""," ","null","","","","",""
"","","","call-function","452","1034911","0.0-452.0","4ucl52rb","","","","","","","",""
"null","","","html-keyboard-response","453","1036415","0.0-453.0","4ucl52rb","","<span style=""color:Black; font-size:50px;"">Video 1</span>","null","","","","",""
"null","","","video-keyboard-response","454","1039503","0.0-454.0","4ucl52rb","","","null","","<span style=""color:Black; font-size:50px;"">Casey","Casey","LEARNING_STIM_10/1159609.bmp_pp62_L2_V1_veridical_freeview_isoFalse_fps144.mp4",""
"null","","","html-keyboard-response","455","1041007","0.0-455.0","4ucl52rb","","<span style=""color:Black; font-size:50px;"">Video 2</span>","null","","","","",""
"null","","","video-keyboard-response","456","1044109","0.0-456.0","4ucl52rb","","","null","","<span style=""color:Black; font-size:50px;"">Sandy","Sandy","LEARNING_STIM_10/1159609.bmp_pp88_L2_V1_veridical_freeview_isoFalse_fps144.mp4",""
"","","","call-function","457","1044109","0.0-457.0","4ucl52rb","","","","","","","",""
"1948.7550000000047","","","categorize-html","458","1048063","0.0-458.0","4ucl52rb","","Which video showed <span style=""font-size:30px"">Sandy's</span> attention?","49","","","","","false"
"null","","","html-keyboard-response","459","1048568","0.0-459.0","4ucl52rb",""," ","null","","","","",""
"","","","call-function","460","1048568","0.0-460.0","4ucl52rb","","","","","","","",""
"null","","","html-keyboard-response","461","1050072","0.0-461.0","4ucl52rb","","<span style=""color:Black; font-size:50px;"">Video 1</span>","null","","","","",""
"null","","","video-keyboard-response","462","1053140","0.0-462.0","4ucl52rb","","","null","","<span style=""color:Black; font-size:50px;"">Casey","Casey","LEARNING_STIM_10/1159860.bmp_pp62_L2_V1_veridical_freeview_isoFalse_fps144.mp4",""
"null","","","html-keyboard-response","463","1054646","0.0-463.0","4ucl52rb","","<span style=""color:Black; font-size:50px;"">Video 2</span>","null","","","","",""
"null","","","video-keyboard-response","464","1057715","0.0-464.0","4ucl52rb","","","null","","<span style=""color:Black; font-size:50px;"">Sandy","Sandy","LEARNING_STIM_10/1159860.bmp_pp88_L2_V1_veridical_freeview_isoFalse_fps144.mp4",""
"","","","call-function","465","1057715","0.0-465.0","4ucl52rb","","","","","","","",""
"1742.6299999998882","","","categorize-html","466","1061461","0.0-466.0","4ucl52rb","","Which video showed <span style=""font-size:30px"">Sandy's</span> attention?","50","","","","","true"
"null","","","html-keyboard-response","467","1061965","0.0-467.0","4ucl52rb",""," ","null","","","","",""
"","","","call-function","468","1061965","0.0-468.0","4ucl52rb","","","","","","","",""
"null","","","html-keyboard-response","469","1063469","0.0-469.0","4ucl52rb","","<span style=""color:Black; font-size:50px;"">Video 1</span>","null","","","","",""
"null","","","video-keyboard-response","470","1066530","0.0-470.0","4ucl52rb","","","null","","<span style=""color:Black; font-size:50px;"">Casey","Casey","LEARNING_STIM_10/1593006.bmp_pp62_L2_V1_veridical_freeview_isoFalse_fps144.mp4",""
"null","","","html-keyboard-response","471","1068034","0.0-471.0","4ucl52rb","","<span style=""color:Black; font-size:50px;"">Video 2</span>","null","","","","",""
"null","","","video-keyboard-response","472","1071112","0.0-472.0","4ucl52rb","","","null","","<span style=""color:Black; font-size:50px;"">Sandy","Sandy","LEARNING_STIM_10/1593006.bmp_pp88_L2_V1_veridical_freeview_isoFalse_fps144.mp4",""
"","","","call-function","473","1071113","0.0-473.0","4ucl52rb","","","","","","","",""
"1361.1100000001024","","","categorize-html","474","1074478","0.0-474.0","4ucl52rb","","Which video showed <span style=""font-size:30px"">Sandy's</span> attention?","50","","","","","true"
"null","","","html-keyboard-response","475","1074985","0.0-475.0","4ucl52rb",""," ","null","","","","",""
"","","","call-function","476","1074985","0.0-476.0","4ucl52rb","","","","","","","",""
"null","","","html-keyboard-response","477","1076491","0.0-477.0","4ucl52rb","","<span style=""color:Black; font-size:50px;"">Video 1</span>","null","","","","",""
"null","","","video-keyboard-response","478","1079587","0.0-478.0","4ucl52rb","","","null","","<span style=""color:Black; font-size:50px;"">Sandy","Sandy","LEARNING_STIM_10/713135.bmp_pp88_L2_V1_veridical_freeview_isoFalse_fps144.mp4",""
"null","","","html-keyboard-response","479","1081093","0.0-479.0","4ucl52rb","","<span style=""color:Black; font-size:50px;"">Video 2</span>","null","","","","",""
"null","","","video-keyboard-response","480","1084236","0.0-480.0","4ucl52rb","","","null","","<span style=""color:Black; font-size:50px;"">Casey","Casey","LEARNING_STIM_10/713135.bmp_pp62_L2_V1_veridical_freeview_isoFalse_fps144.mp4",""
"","","","call-function","481","1084236","0.0-481.0","4ucl52rb","","","","","","","",""
"1941.5600000000559","","","categorize-html","482","1088185","0.0-482.0","4ucl52rb","","Which video showed <span style=""font-size:30px"">Sandy's</span> attention?","49","","","","","true"
"null","","","html-keyboard-response","483","1088687","0.0-483.0","4ucl52rb",""," ","null","","","","",""
"","","","call-function","484","1088688","0.0-484.0","4ucl52rb","","","","","","","",""
"null","","","html-keyboard-response","485","1090190","0.0-485.0","4ucl52rb","","<span style=""color:Black; font-size:50px;"">Video 1</span>","null","","","","",""
"null","","","video-keyboard-response","486","1093289","0.0-486.0","4ucl52rb","","","null","","<span style=""color:Black; font-size:50px;"">Casey","Casey","LEARNING_STIM_10/1592193.bmp_pp62_L2_V1_veridical_freeview_isoFalse_fps144.mp4",""
"null","","","html-keyboard-response","487","1094795","0.0-487.0","4ucl52rb","","<span style=""color:Black; font-size:50px;"">Video 2</span>","null","","","","",""
"null","","","video-keyboard-response","488","1097884","0.0-488.0","4ucl52rb","","","null","","<span style=""color:Black; font-size:50px;"">Sandy","Sandy","LEARNING_STIM_10/1592193.bmp_pp88_L2_V1_veridical_freeview_isoFalse_fps144.mp4",""
"","","","call-function","489","1097885","0.0-489.0","4ucl52rb","","","","","","","",""
"709.1200000001118","","","categorize-html","490","1100597","0.0-490.0","4ucl52rb","","Which video showed <span style=""font-size:30px"">Sandy's</span> attention?","50","","","","","true"
"null","","","html-keyboard-response","491","1101103","0.0-491.0","4ucl52rb",""," ","null","","","","",""
"","","","call-function","492","1101104","0.0-492.0","4ucl52rb","","","","","","","",""
"null","","","html-keyboard-response","493","1102607","0.0-493.0","4ucl52rb","","<span style=""color:Black; font-size:50px;"">Video 1</span>","null","","","","",""
"null","","","video-keyboard-response","494","1105703","0.0-494.0","4ucl52rb","","","null","","<span style=""color:Black; font-size:50px;"">Sandy","Sandy","LEARNING_STIM_10/1159335.bmp_pp88_L2_V1_veridical_freeview_isoFalse_fps144.mp4",""
"null","","","html-keyboard-response","495","1107204","0.0-495.0","4ucl52rb","","<span style=""color:Black; font-size:50px;"">Video 2</span>","null","","","","",""
"null","","","video-keyboard-response","496","1110306","0.0-496.0","4ucl52rb","","","null","","<span style=""color:Black; font-size:50px;"">Casey","Casey","LEARNING_STIM_10/1159335.bmp_pp62_L2_V1_veridical_freeview_isoFalse_fps144.mp4",""
"","","","call-function","497","1110306","0.0-497.0","4ucl52rb","","","","","","","",""
"1479.905000000028","","","categorize-html","498","1113789","0.0-498.0","4ucl52rb","","Which video showed <span style=""font-size:30px"">Sandy's</span> attention?","49","","","","","true"
"null","","","html-keyboard-response","499","1114295","0.0-499.0","4ucl52rb",""," ","null","","","","",""
"3801.2600000000093","","","instructions","500","1118096","0.0-500.0","4ucl52rb","[{""page_index"":0,""viewing_time"":2236.310000000056},{""page_index"":1,""viewing_time"":69.13999999989755},{""page_index"":2,""viewing_time"":1495.6950000000652}]","","","","","","",""
"1471.7000000001863","","","instructions","501","1119568","0.0-501.0","4ucl52rb","[{""page_index"":0,""viewing_time"":612.5050000001211},{""page_index"":1,""viewing_time"":82.15500000002794},{""page_index"":2,""viewing_time"":776.9199999999255}]","","","","","","",""
"","","","call-function","502","1119569","0.0-502.0","4ucl52rb","","","","","","","",""
"null","","","html-keyboard-response","503","1121073","0.0-503.0","4ucl52rb","","<span style=""color:Black; font-size:50px;"">Video 1</span>","null","","","","",""
"null","","","video-keyboard-response","504","1124152","0.0-504.0","4ucl52rb","","","null","","<span style=""color:Black; font-size:50px;"">Sandy","Sandy","LEARNING_STIM_10/498111.bmp_pp88_L2_V1_veridical_freeview_isoFalse_fps144.mp4",""
"null","","","html-keyboard-response","505","1125656","0.0-505.0","4ucl52rb","","<span style=""color:Black; font-size:50px;"">Video 2</span>","null","","","","",""
"null","","","video-keyboard-response","506","1128725","0.0-506.0","4ucl52rb","","","null","","<span style=""color:Black; font-size:50px;"">Casey","Casey","LEARNING_STIM_10/498111.bmp_pp62_L2_V1_veridical_freeview_isoFalse_fps144.mp4",""
"","","","call-function","507","1128726","0.0-507.0","4ucl52rb","","","","","","","",""
"1068.404999999795","","","categorize-html","508","1131801","0.0-508.0","4ucl52rb","","Which video showed <span style=""font-size:30px"">Sandy's</span> attention?","49","","","","","true"
"null","","","html-keyboard-response","509","1132303","0.0-509.0","4ucl52rb",""," ","null","","","","",""
"","","","call-function","510","1132303","0.0-510.0","4ucl52rb","","","","","","","",""
"null","","","html-keyboard-response","511","1133806","0.0-511.0","4ucl52rb","","<span style=""color:Black; font-size:50px;"">Video 1</span>","null","","","","",""
"null","","","video-keyboard-response","512","1136881","0.0-512.0","4ucl52rb","","","null","","<span style=""color:Black; font-size:50px;"">Sandy","Sandy","LEARNING_STIM_10/1159397.bmp_pp88_L2_V1_veridical_freeview_isoFalse_fps144.mp4",""
"null","","","html-keyboard-response","513","1138385","0.0-513.0","4ucl52rb","","<span style=""color:Black; font-size:50px;"">Video 2</span>","null","","","","",""
"null","","","video-keyboard-response","514","1141458","0.0-514.0","4ucl52rb","","","null","","<span style=""color:Black; font-size:50px;"">Casey","Casey","LEARNING_STIM_10/1159397.bmp_pp62_L2_V1_veridical_freeview_isoFalse_fps144.mp4",""
"","","","call-function","515","1141459","0.0-515.0","4ucl52rb","","","","","","","",""
"903.5300000000279","","","categorize-html","516","1144367","0.0-516.0","4ucl52rb","","Which video showed <span style=""font-size:30px"">Sandy's</span> attention?","50","","","","","false"
"null","","","html-keyboard-response","517","1144873","0.0-517.0","4ucl52rb",""," ","null","","","","",""
"","","","call-function","518","1144874","0.0-518.0","4ucl52rb","","","","","","","",""
"null","","","html-keyboard-response","519","1146377","0.0-519.0","4ucl52rb","","<span style=""color:Black; font-size:50px;"">Video 1</span>","null","","","","",""
"null","","","video-keyboard-response","520","1149467","0.0-520.0","4ucl52rb","","","null","","<span style=""color:Black; font-size:50px;"">Casey","Casey","LEARNING_STIM_10/1592620.bmp_pp62_L2_V1_veridical_freeview_isoFalse_fps144.mp4",""
"null","","","html-keyboard-response","521","1150972","0.0-521.0","4ucl52rb","","<span style=""color:Black; font-size:50px;"">Video 2</span>","null","","","","",""
"null","","","video-keyboard-response","522","1154072","0.0-522.0","4ucl52rb","","","null","","<span style=""color:Black; font-size:50px;"">Sandy","Sandy","LEARNING_STIM_10/1592620.bmp_pp88_L2_V1_veridical_freeview_isoFalse_fps144.mp4",""
"","","","call-function","523","1154073","0.0-523.0","4ucl52rb","","","","","","","",""
"384.9849999998696","","","categorize-html","524","1156464","0.0-524.0","4ucl52rb","","Which video showed <span style=""font-size:30px"">Sandy's</span> attention?","49","","","","","false"
"null","","","html-keyboard-response","525","1156970","0.0-525.0","4ucl52rb",""," ","null","","","","",""
"","","","call-function","526","1156970","0.0-526.0","4ucl52rb","","","","","","","",""
"null","","","html-keyboard-response","527","1158474","0.0-527.0","4ucl52rb","","<span style=""color:Black; font-size:50px;"">Video 1</span>","null","","","","",""
"null","","","video-keyboard-response","528","1161563","0.0-528.0","4ucl52rb","","","null","","<span style=""color:Black; font-size:50px;"">Casey","Casey","LEARNING_STIM_10/150458.bmp_pp62_L2_V1_veridical_freeview_isoFalse_fps144.mp4",""
"null","","","html-keyboard-response","529","1163067","0.0-529.0","4ucl52rb","","<span style=""color:Black; font-size:50px;"">Video 2</span>","null","","","","",""
"null","","","video-keyboard-response","530","1166160","0.0-530.0","4ucl52rb","","","null","","<span style=""color:Black; font-size:50px;"">Sandy","Sandy","LEARNING_STIM_10/150458.bmp_pp88_L2_V1_veridical_freeview_isoFalse_fps144.mp4",""
"","","","call-function","531","1166161","0.0-531.0","4ucl52rb","","","","","","","",""
"2761.560000000056","","","categorize-html","532","1170927","0.0-532.0","4ucl52rb","","Which video showed <span style=""font-size:30px"">Sandy's</span> attention?","50","","","","","true"
"null","","","html-keyboard-response","533","1171431","0.0-533.0","4ucl52rb",""," ","null","","","","",""
"","","","call-function","534","1171432","0.0-534.0","4ucl52rb","","","","","","","",""
"null","","","html-keyboard-response","535","1172938","0.0-535.0","4ucl52rb","","<span style=""color:Black; font-size:50px;"">Video 1</span>","null","","","","",""
"null","","","video-keyboard-response","536","1176046","0.0-536.0","4ucl52rb","","","null","","<span style=""color:Black; font-size:50px;"">Sandy","Sandy","LEARNING_STIM_10/1592890.bmp_pp88_L2_V1_veridical_freeview_isoFalse_fps144.mp4",""
"null","","","html-keyboard-response","537","1177551","0.0-537.0","4ucl52rb","","<span style=""color:Black; font-size:50px;"">Video 2</span>","null","","","","",""
"null","","","video-keyboard-response","538","1180655","0.0-538.0","4ucl52rb","","","null","","<span style=""color:Black; font-size:50px;"">Casey","Casey","LEARNING_STIM_10/1592890.bmp_pp62_L2_V1_veridical_freeview_isoFalse_fps144.mp4",""
"","","","call-function","539","1180655","0.0-539.0","4ucl52rb","","","","","","","",""
"1610.9299999999348","","","categorize-html","540","1184271","0.0-540.0","4ucl52rb","","Which video showed <span style=""font-size:30px"">Sandy's</span> attention?","49","","","","","true"
"null","","","html-keyboard-response","541","1184774","0.0-541.0","4ucl52rb",""," ","null","","","","",""
"","","","call-function","542","1184774","0.0-542.0","4ucl52rb","","","","","","","",""
"null","","","html-keyboard-response","543","1186277","0.0-543.0","4ucl52rb","","<span style=""color:Black; font-size:50px;"">Video 1</span>","null","","","","",""
"null","","","video-keyboard-response","544","1189352","0.0-544.0","4ucl52rb","","","null","","<span style=""color:Black; font-size:50px;"">Casey","Casey","LEARNING_STIM_10/498149.bmp_pp62_L2_V1_veridical_freeview_isoFalse_fps144.mp4",""
"null","","","html-keyboard-response","545","1190857","0.0-545.0","4ucl52rb","","<span style=""color:Black; font-size:50px;"">Video 2</span>","null","","","","",""
"null","","","video-keyboard-response","546","1193930","0.0-546.0","4ucl52rb","","","null","","<span style=""color:Black; font-size:50px;"">Sandy","Sandy","LEARNING_STIM_10/498149.bmp_pp88_L2_V1_veridical_freeview_isoFalse_fps144.mp4",""
"","","","call-function","547","1193931","0.0-547.0","4ucl52rb","","","","","","","",""
"423.3850000000093","","","categorize-html","548","1196359","0.0-548.0","4ucl52rb","","Which video showed <span style=""font-size:30px"">Sandy's</span> attention?","49","","","","","false"
"null","","","html-keyboard-response","549","1196861","0.0-549.0","4ucl52rb",""," ","null","","","","",""
"","","","call-function","550","1196861","0.0-550.0","4ucl52rb","","","","","","","",""
"null","","","html-keyboard-response","551","1198364","0.0-551.0","4ucl52rb","","<span style=""color:Black; font-size:50px;"">Video 1</span>","null","","","","",""
"null","","","video-keyboard-response","552","1201426","0.0-552.0","4ucl52rb","","","null","","<span style=""color:Black; font-size:50px;"">Sandy","Sandy","LEARNING_STIM_10/1159447.bmp_pp88_L2_V1_veridical_freeview_isoFalse_fps144.mp4",""
"null","","","html-keyboard-response","553","1202930","0.0-553.0","4ucl52rb","","<span style=""color:Black; font-size:50px;"">Video 2</span>","null","","","","",""
"null","","","video-keyboard-response","554","1205992","0.0-554.0","4ucl52rb","","","null","","<span style=""color:Black; font-size:50px;"">Casey","Casey","LEARNING_STIM_10/1159447.bmp_pp62_L2_V1_veridical_freeview_isoFalse_fps144.mp4",""
"","","","call-function","555","1205993","0.0-555.0","4ucl52rb","","","","","","","",""
"1673.6500000001397","","","categorize-html","556","1209673","0.0-556.0","4ucl52rb","","Which video showed <span style=""font-size:30px"">Sandy's</span> attention?","49","","","","","true"
"null","","","html-keyboard-response","557","1210177","0.0-557.0","4ucl52rb",""," ","null","","","","",""
"","","","call-function","558","1210177","0.0-558.0","4ucl52rb","","","","","","","",""
"null","","","html-keyboard-response","559","1211680","0.0-559.0","4ucl52rb","","<span style=""color:Black; font-size:50px;"">Video 1</span>","null","","","","",""
"null","","","video-keyboard-response","560","1214780","0.0-560.0","4ucl52rb","","","null","","<span style=""color:Black; font-size:50px;"">Casey","Casey","LEARNING_STIM_10/1592656.bmp_pp62_L2_V1_veridical_freeview_isoFalse_fps144.mp4",""
"null","","","html-keyboard-response","561","1216284","0.0-561.0","4ucl52rb","","<span style=""color:Black; font-size:50px;"">Video 2</span>","null","","","","",""
"null","","","video-keyboard-response","562","1219393","0.0-562.0","4ucl52rb","","","null","","<span style=""color:Black; font-size:50px;"">Sandy","Sandy","LEARNING_STIM_10/1592656.bmp_pp88_L2_V1_veridical_freeview_isoFalse_fps144.mp4",""
"","","","call-function","563","1219394","0.0-563.0","4ucl52rb","","","","","","","",""
"800.5200000000186","","","categorize-html","564","1222197","0.0-564.0","4ucl52rb","","Which video showed <span style=""font-size:30px"">Sandy's</span> attention?","49","","","","","false"
"null","","","html-keyboard-response","565","1222699","0.0-565.0","4ucl52rb",""," ","null","","","","",""
"","","","call-function","566","1222700","0.0-566.0","4ucl52rb","","","","","","","",""
"null","","","html-keyboard-response","567","1224201","0.0-567.0","4ucl52rb","","<span style=""color:Black; font-size:50px;"">Video 1</span>","null","","","","",""
"null","","","video-keyboard-response","568","1227299","0.0-568.0","4ucl52rb","","","null","","<span style=""color:Black; font-size:50px;"">Sandy","Sandy","LEARNING_STIM_10/498155.bmp_pp88_L2_V1_veridical_freeview_isoFalse_fps144.mp4",""
"null","","","html-keyboard-response","569","1228804","0.0-569.0","4ucl52rb","","<span style=""color:Black; font-size:50px;"">Video 2</span>","null","","","","",""
"null","","","video-keyboard-response","570","1231928","0.0-570.0","4ucl52rb","","","null","","<span style=""color:Black; font-size:50px;"">Casey","Casey","LEARNING_STIM_10/498155.bmp_pp62_L2_V1_veridical_freeview_isoFalse_fps144.mp4",""
"","","","call-function","571","1231929","0.0-571.0","4ucl52rb","","","","","","","",""
"393.6599999999162","","","categorize-html","572","1234329","0.0-572.0","4ucl52rb","","Which video showed <span style=""font-size:30px"">Sandy's</span> attention?","49","","","","","true"
"null","","","html-keyboard-response","573","1234835","0.0-573.0","4ucl52rb",""," ","null","","","","",""
"","","","call-function","574","1234836","0.0-574.0","4ucl52rb","","","","","","","",""
"null","","","html-keyboard-response","575","1236337","0.0-575.0","4ucl52rb","","<span style=""color:Black; font-size:50px;"">Video 1</span>","null","","","","",""
"null","","","video-keyboard-response","576","1239443","0.0-576.0","4ucl52rb","","","null","","<span style=""color:Black; font-size:50px;"">Sandy","Sandy","LEARNING_STIM_10/1592044.bmp_pp88_L2_V1_veridical_freeview_isoFalse_fps144.mp4",""
"null","","","html-keyboard-response","577","1240949","0.0-577.0","4ucl52rb","","<span style=""color:Black; font-size:50px;"">Video 2</span>","null","","","","",""
"null","","","video-keyboard-response","578","1244057","0.0-578.0","4ucl52rb","","","null","","<span style=""color:Black; font-size:50px;"">Casey","Casey","LEARNING_STIM_10/1592044.bmp_pp62_L2_V1_veridical_freeview_isoFalse_fps144.mp4",""
"","","","call-function","579","1244057","0.0-579.0","4ucl52rb","","","","","","","",""
"785.0649999999441","","","categorize-html","580","1246845","0.0-580.0","4ucl52rb","","Which video showed <span style=""font-size:30px"">Sandy's</span> attention?","49","","","","","true"
"null","","","html-keyboard-response","581","1247348","0.0-581.0","4ucl52rb",""," ","null","","","","",""
"2395.7949999999255","","","instructions","582","1249745","0.0-582.0","4ucl52rb","[{""page_index"":0,""viewing_time"":2395.6650000000373}]","","","","","","",""
"2876.2450000001118","","","instructions","583","1252621","0.0-583.0","4ucl52rb","[{""page_index"":0,""viewing_time"":2876.1350000000093}]","","","","","","",""
"185521.80000000005","{""Q0"":""It was difficult for me to discriminate. I tried coming up with a \""model\"" but I felt it didn't work and my guesses were wrong more often than not. When I just guessed \""intuitively\"" my accuracy seems to improve. ""}","","survey-text","584","1438149","0.0-584.0","4ucl52rb","","","","","","","",""
"58659.799999999814","{""Q0"":""I tried going by how erratic the dot motion was or by whether it tended to split but these strategies mostly did not work. ""}","","survey-text","585","1496813","0.0-585.0","4ucl52rb","","","","","","","",""
"89824.11499999999","{""Q0"":""I was frustrated with not being able to come up with a good model and getting many trials wrong. I wondered whether the identity changes between block so that there is no consistent regularity to go by. ""}","","survey-text","586","1586642","0.0-586.0","4ucl52rb","","","","","","","",""
"1204.3199999998324","","","instructions","587","1587848","0.0-587.0","4ucl52rb","[{""page_index"":0,""viewing_time"":1204.094999999972}]","","","","","","",""
"485771.70499999984","{""Experimenter_end"":[""Printed ID# 4ucl52rb on consent form"",""Given subject SONA credit or payment"",""Given the subject debrief form""]}","[0]","survey-multi-select","588","2073623","0.0-588.0","4ucl52rb","","","","","","","",""
