"rt","responses","question_order","trial_type","trial_index","time_elapsed","internal_node_id","ID","view_history","stimulus","key_press","value","agent","condition","image","correct"
"28435.745000000003","{""Experimenter"":[""Confirmed subject's identity (ID card)"",""Confirmed normal or corrected-to-normal vision"",""Obtained consent (signature and date)"",""Checked the test room lighting"",""Checked computer screen lighting"",""Checked distance from screen to chin rest (50cm)"",""Cleaned and adjusted chin rest"",""Counterbalanced the order of the tasks"",""Opened the experiment in Firefox"",""Made the experiment full screen"",""Encouraged subject to silence phone, put away distractors, etc.""]}","[0]","survey-multi-select","0","28443","0.0-0.0","wt61tbc5","","","","","","","",""
"108265.215","","","instructions","1","136710","0.0-1.0","wt61tbc5","[{""page_index"":0,""viewing_time"":108265.065}]","","","","","","",""
"6919.3399999999965","{""Age"":2,""Sex"":1,""Gender"":1}","[0,1,2]","survey-likert","2","143632","0.0-2.0","wt61tbc5","","","","","","","",""
"2039.4150000000081","","","instructions","3","145672","0.0-3.0","wt61tbc5","[{""page_index"":0,""viewing_time"":2039.3099999999977}]","","","","","","",""
"23087.845","","","instructions","4","168760","0.0-4.0","wt61tbc5","[{""page_index"":0,""viewing_time"":8375.559999999998},{""page_index"":1,""viewing_time"":7700.415000000008},{""page_index"":2,""viewing_time"":7011.744999999995}]","","","","","","",""
"3806.845000000001","","","instructions","5","172567","0.0-5.0","wt61tbc5","[{""page_index"":0,""viewing_time"":3806.7399999999907}]","","","","","","",""
"null","","","video-keyboard-response","6","175641","0.0-6.0","wt61tbc5","","","null","","","","",""
"33931.07500000001","","","instructions","7","209573","0.0-7.0","wt61tbc5","[{""page_index"":0,""viewing_time"":4496.210000000021},{""page_index"":1,""viewing_time"":4574.864999999991},{""page_index"":2,""viewing_time"":1975.9750000000058},{""page_index"":3,""viewing_time"":4897.049999999988},{""page_index"":4,""viewing_time"":5043.059999999998},{""page_index"":5,""viewing_time"":4616.875},{""page_index"":6,""viewing_time"":5196.760000000009},{""page_index"":7,""viewing_time"":3130.154999999999}]","","","","","","",""
"14478.99000000002","","","instructions","8","224052","0.0-8.0","wt61tbc5","[{""page_index"":0,""viewing_time"":14478.74000000002}]","","","","","","",""
"2856.4500000000116","","","instructions","9","226909","0.0-9.0","wt61tbc5","[{""page_index"":0,""viewing_time"":2856.3399999999965}]","","","","","","",""
"","","","call-function","10","226910","0.0-10.0","wt61tbc5","","","","","","","",""
"null","","","html-keyboard-response","11","228413","0.0-11.0","wt61tbc5","","<span style=""color:Black; font-size:50px;"">Video 1</span>","null","","","","",""
"null","","","video-keyboard-response","12","231482","0.0-12.0","wt61tbc5","","","null","","<span style=""color:Black; font-size:50px;"">Casey","Casey","LEARNING_STIM_11/1159609.bmp_pp67_L2_V1_veridical_freeview_isoFalse_fps144.mp4",""
"null","","","html-keyboard-response","13","232988","0.0-13.0","wt61tbc5","","<span style=""color:Black; font-size:50px;"">Video 2</span>","null","","","","",""
"null","","","video-keyboard-response","14","236051","0.0-14.0","wt61tbc5","","","null","","<span style=""color:Black; font-size:50px;"">Sandy","Sandy","LEARNING_STIM_11/1159609.bmp_pp70_L2_V1_veridical_freeview_isoFalse_fps144.mp4",""
"","","","call-function","15","236051","0.0-15.0","wt61tbc5","","","","","","","",""
"1400.5599999999977","","","categorize-html","16","239455","0.0-16.0","wt61tbc5","","Which video showed <span style=""font-size:30px"">Sandy's</span> attention?","49","","","","","false"
"null","","","html-keyboard-response","17","239957","0.0-17.0","wt61tbc5",""," ","null","","","","",""
"","","","call-function","18","239958","0.0-18.0","wt61tbc5","","","","","","","",""
"null","","","html-keyboard-response","19","241461","0.0-19.0","wt61tbc5","","<span style=""color:Black; font-size:50px;"">Video 1</span>","null","","","","",""
"null","","","video-keyboard-response","20","244536","0.0-20.0","wt61tbc5","","","null","","<span style=""color:Black; font-size:50px;"">Sandy","Sandy","LEARNING_STIM_11/1159325.bmp_pp70_L2_V1_veridical_freeview_isoFalse_fps144.mp4",""
"null","","","html-keyboard-response","21","246043","0.0-21.0","wt61tbc5","","<span style=""color:Black; font-size:50px;"">Video 2</span>","null","","","","",""
"null","","","video-keyboard-response","22","249107","0.0-22.0","wt61tbc5","","","null","","<span style=""color:Black; font-size:50px;"">Casey","Casey","LEARNING_STIM_11/1159325.bmp_pp67_L2_V1_veridical_freeview_isoFalse_fps144.mp4",""
"","","","call-function","23","249108","0.0-23.0","wt61tbc5","","","","","","","",""
"3182.985000000015","","","categorize-html","24","254299","0.0-24.0","wt61tbc5","","Which video showed <span style=""font-size:30px"">Sandy's</span> attention?","50","","","","","false"
"null","","","html-keyboard-response","25","254800","0.0-25.0","wt61tbc5",""," ","null","","","","",""
"","","","call-function","26","254801","0.0-26.0","wt61tbc5","","","","","","","",""
"null","","","html-keyboard-response","27","256304","0.0-27.0","wt61tbc5","","<span style=""color:Black; font-size:50px;"">Video 1</span>","null","","","","",""
"null","","","video-keyboard-response","28","259397","0.0-28.0","wt61tbc5","","","null","","<span style=""color:Black; font-size:50px;"">Casey","Casey","LEARNING_STIM_11/1592254.bmp_pp67_L2_V1_veridical_freeview_isoFalse_fps144.mp4",""
"null","","","html-keyboard-response","29","260900","0.0-29.0","wt61tbc5","","<span style=""color:Black; font-size:50px;"">Video 2</span>","null","","","","",""
"null","","","video-keyboard-response","30","263984","0.0-30.0","wt61tbc5","","","null","","<span style=""color:Black; font-size:50px;"">Sandy","Sandy","LEARNING_STIM_11/1592254.bmp_pp70_L2_V1_veridical_freeview_isoFalse_fps144.mp4",""
"","","","call-function","31","263984","0.0-31.0","wt61tbc5","","","","","","","",""
"2979.984999999986","","","categorize-html","32","268971","0.0-32.0","wt61tbc5","","Which video showed <span style=""font-size:30px"">Sandy's</span> attention?","50","","","","","true"
"null","","","html-keyboard-response","33","269473","0.0-33.0","wt61tbc5",""," ","null","","","","",""
"","","","call-function","34","269473","0.0-34.0","wt61tbc5","","","","","","","",""
"null","","","html-keyboard-response","35","270980","0.0-35.0","wt61tbc5","","<span style=""color:Black; font-size:50px;"">Video 1</span>","null","","","","",""
"null","","","video-keyboard-response","36","274066","0.0-36.0","wt61tbc5","","","null","","<span style=""color:Black; font-size:50px;"">Casey","Casey","LEARNING_STIM_11/1592083.bmp_pp67_L2_V1_veridical_freeview_isoFalse_fps144.mp4",""
"null","","","html-keyboard-response","37","275570","0.0-37.0","wt61tbc5","","<span style=""color:Black; font-size:50px;"">Video 2</span>","null","","","","",""
"null","","","video-keyboard-response","38","278664","0.0-38.0","wt61tbc5","","","null","","<span style=""color:Black; font-size:50px;"">Sandy","Sandy","LEARNING_STIM_11/1592083.bmp_pp70_L2_V1_veridical_freeview_isoFalse_fps144.mp4",""
"","","","call-function","39","278664","0.0-39.0","wt61tbc5","","","","","","","",""
"1228.3349999999627","","","categorize-html","40","281895","0.0-40.0","wt61tbc5","","Which video showed <span style=""font-size:30px"">Sandy's</span> attention?","50","","","","","true"
"null","","","html-keyboard-response","41","282400","0.0-41.0","wt61tbc5",""," ","null","","","","",""
"","","","call-function","42","282400","0.0-42.0","wt61tbc5","","","","","","","",""
"null","","","html-keyboard-response","43","283903","0.0-43.0","wt61tbc5","","<span style=""color:Black; font-size:50px;"">Video 1</span>","null","","","","",""
"null","","","video-keyboard-response","44","286986","0.0-44.0","wt61tbc5","","","null","","<span style=""color:Black; font-size:50px;"">Casey","Casey","LEARNING_STIM_11/1159889.bmp_pp67_L2_V1_veridical_freeview_isoFalse_fps144.mp4",""
"null","","","html-keyboard-response","45","288492","0.0-45.0","wt61tbc5","","<span style=""color:Black; font-size:50px;"">Video 2</span>","null","","","","",""
"null","","","video-keyboard-response","46","291591","0.0-46.0","wt61tbc5","","","null","","<span style=""color:Black; font-size:50px;"">Sandy","Sandy","LEARNING_STIM_11/1159889.bmp_pp70_L2_V1_veridical_freeview_isoFalse_fps144.mp4",""
"","","","call-function","47","291592","0.0-47.0","wt61tbc5","","","","","","","",""
"1148.484999999986","","","categorize-html","48","294746","0.0-48.0","wt61tbc5","","Which video showed <span style=""font-size:30px"">Sandy's</span> attention?","50","","","","","true"
"null","","","html-keyboard-response","49","295252","0.0-49.0","wt61tbc5",""," ","null","","","","",""
"","","","call-function","50","295252","0.0-50.0","wt61tbc5","","","","","","","",""
"null","","","html-keyboard-response","51","296756","0.0-51.0","wt61tbc5","","<span style=""color:Black; font-size:50px;"">Video 1</span>","null","","","","",""
"null","","","video-keyboard-response","52","299823","0.0-52.0","wt61tbc5","","","null","","<span style=""color:Black; font-size:50px;"">Casey","Casey","LEARNING_STIM_11/1592038.bmp_pp67_L2_V1_veridical_freeview_isoFalse_fps144.mp4",""
"null","","","html-keyboard-response","53","301326","0.0-53.0","wt61tbc5","","<span style=""color:Black; font-size:50px;"">Video 2</span>","null","","","","",""
"null","","","video-keyboard-response","54","304401","0.0-54.0","wt61tbc5","","","null","","<span style=""color:Black; font-size:50px;"">Sandy","Sandy","LEARNING_STIM_11/1592038.bmp_pp70_L2_V1_veridical_freeview_isoFalse_fps144.mp4",""
"","","","call-function","55","304401","0.0-55.0","wt61tbc5","","","","","","","",""
"834.914999999979","","","categorize-html","56","307242","0.0-56.0","wt61tbc5","","Which video showed <span style=""font-size:30px"">Sandy's</span> attention?","50","","","","","true"
"null","","","html-keyboard-response","57","307746","0.0-57.0","wt61tbc5",""," ","null","","","","",""
"","","","call-function","58","307747","0.0-58.0","wt61tbc5","","","","","","","",""
"null","","","html-keyboard-response","59","309249","0.0-59.0","wt61tbc5","","<span style=""color:Black; font-size:50px;"">Video 1</span>","null","","","","",""
"null","","","video-keyboard-response","60","312373","0.0-60.0","wt61tbc5","","","null","","<span style=""color:Black; font-size:50px;"">Casey","Casey","LEARNING_STIM_11/498153.bmp_pp67_L2_V1_veridical_freeview_isoFalse_fps144.mp4",""
"null","","","html-keyboard-response","61","313877","0.0-61.0","wt61tbc5","","<span style=""color:Black; font-size:50px;"">Video 2</span>","null","","","","",""
"null","","","video-keyboard-response","62","316935","0.0-62.0","wt61tbc5","","","null","","<span style=""color:Black; font-size:50px;"">Sandy","Sandy","LEARNING_STIM_11/498153.bmp_pp70_L2_V1_veridical_freeview_isoFalse_fps144.mp4",""
"","","","call-function","63","316936","0.0-63.0","wt61tbc5","","","","","","","",""
"852.289999999979","","","categorize-html","64","319795","0.0-64.0","wt61tbc5","","Which video showed <span style=""font-size:30px"">Sandy's</span> attention?","50","","","","","true"
"null","","","html-keyboard-response","65","320300","0.0-65.0","wt61tbc5",""," ","null","","","","",""
"","","","call-function","66","320300","0.0-66.0","wt61tbc5","","","","","","","",""
"null","","","html-keyboard-response","67","321801","0.0-67.0","wt61tbc5","","<span style=""color:Black; font-size:50px;"">Video 1</span>","null","","","","",""
"null","","","video-keyboard-response","68","324907","0.0-68.0","wt61tbc5","","","null","","<span style=""color:Black; font-size:50px;"">Sandy","Sandy","LEARNING_STIM_11/1592656.bmp_pp70_L2_V1_veridical_freeview_isoFalse_fps144.mp4",""
"null","","","html-keyboard-response","69","326414","0.0-69.0","wt61tbc5","","<span style=""color:Black; font-size:50px;"">Video 2</span>","null","","","","",""
"null","","","video-keyboard-response","70","329522","0.0-70.0","wt61tbc5","","","null","","<span style=""color:Black; font-size:50px;"">Casey","Casey","LEARNING_STIM_11/1592656.bmp_pp67_L2_V1_veridical_freeview_isoFalse_fps144.mp4",""
"","","","call-function","71","329524","0.0-71.0","wt61tbc5","","","","","","","",""
"1496.0199999999604","","","categorize-html","72","333024","0.0-72.0","wt61tbc5","","Which video showed <span style=""font-size:30px"">Sandy's</span> attention?","50","","","","","false"
"null","","","html-keyboard-response","73","333530","0.0-73.0","wt61tbc5",""," ","null","","","","",""
"","","","call-function","74","333531","0.0-74.0","wt61tbc5","","","","","","","",""
"null","","","html-keyboard-response","75","335033","0.0-75.0","wt61tbc5","","<span style=""color:Black; font-size:50px;"">Video 1</span>","null","","","","",""
"null","","","video-keyboard-response","76","338137","0.0-76.0","wt61tbc5","","","null","","<span style=""color:Black; font-size:50px;"">Sandy","Sandy","LEARNING_STIM_11/1160227.bmp_pp70_L2_V1_veridical_freeview_isoFalse_fps144.mp4",""
"null","","","html-keyboard-response","77","339643","0.0-77.0","wt61tbc5","","<span style=""color:Black; font-size:50px;"">Video 2</span>","null","","","","",""
"null","","","video-keyboard-response","78","342730","0.0-78.0","wt61tbc5","","","null","","<span style=""color:Black; font-size:50px;"">Casey","Casey","LEARNING_STIM_11/1160227.bmp_pp67_L2_V1_veridical_freeview_isoFalse_fps144.mp4",""
"","","","call-function","79","342731","0.0-79.0","wt61tbc5","","","","","","","",""
"2745.7849999999744","","","categorize-html","80","347483","0.0-80.0","wt61tbc5","","Which video showed <span style=""font-size:30px"">Sandy's</span> attention?","49","","","","","true"
"null","","","html-keyboard-response","81","347990","0.0-81.0","wt61tbc5",""," ","null","","","","",""
"","","","call-function","82","347990","0.0-82.0","wt61tbc5","","","","","","","",""
"null","","","html-keyboard-response","83","349496","0.0-83.0","wt61tbc5","","<span style=""color:Black; font-size:50px;"">Video 1</span>","null","","","","",""
"null","","","video-keyboard-response","84","352591","0.0-84.0","wt61tbc5","","","null","","<span style=""color:Black; font-size:50px;"">Casey","Casey","LEARNING_STIM_11/61514.bmp_pp67_L2_V1_veridical_freeview_isoFalse_fps144.mp4",""
"null","","","html-keyboard-response","85","354094","0.0-85.0","wt61tbc5","","<span style=""color:Black; font-size:50px;"">Video 2</span>","null","","","","",""
"null","","","video-keyboard-response","86","357195","0.0-86.0","wt61tbc5","","","null","","<span style=""color:Black; font-size:50px;"">Sandy","Sandy","LEARNING_STIM_11/61514.bmp_pp70_L2_V1_veridical_freeview_isoFalse_fps144.mp4",""
"","","","call-function","87","357195","0.0-87.0","wt61tbc5","","","","","","","",""
"753.210000000021","","","categorize-html","88","359951","0.0-88.0","wt61tbc5","","Which video showed <span style=""font-size:30px"">Sandy's</span> attention?","50","","","","","true"
"null","","","html-keyboard-response","89","360456","0.0-89.0","wt61tbc5",""," ","null","","","","",""
"6851.600000000035","","","instructions","90","367308","0.0-90.0","wt61tbc5","[{""page_index"":0,""viewing_time"":2090.2150000000256},{""page_index"":1,""viewing_time"":2186.9500000000116},{""page_index"":2,""viewing_time"":2574.2149999999674}]","","","","","","",""
"7572.664999999979","","","instructions","91","374881","0.0-91.0","wt61tbc5","[{""page_index"":0,""viewing_time"":103.80999999999767},{""page_index"":1,""viewing_time"":3252.375},{""page_index"":0,""viewing_time"":2433.9599999999627},{""page_index"":1,""viewing_time"":1662.335000000021},{""page_index"":2,""viewing_time"":120.07000000000698}]","","","","","","",""
"","","","call-function","92","374882","0.0-92.0","wt61tbc5","","","","","","","",""
"null","","","html-keyboard-response","93","376387","0.0-93.0","wt61tbc5","","<span style=""color:Black; font-size:50px;"">Video 1</span>","null","","","","",""
"null","","","video-keyboard-response","94","379447","0.0-94.0","wt61tbc5","","","null","","<span style=""color:Black; font-size:50px;"">Sandy","Sandy","LEARNING_STIM_11/1592567.bmp_pp70_L2_V1_veridical_freeview_isoFalse_fps144.mp4",""
"null","","","html-keyboard-response","95","380951","0.0-95.0","wt61tbc5","","<span style=""color:Black; font-size:50px;"">Video 2</span>","null","","","","",""
"null","","","video-keyboard-response","96","384028","0.0-96.0","wt61tbc5","","","null","","<span style=""color:Black; font-size:50px;"">Casey","Casey","LEARNING_STIM_11/1592567.bmp_pp67_L2_V1_veridical_freeview_isoFalse_fps144.mp4",""
"","","","call-function","97","384028","0.0-97.0","wt61tbc5","","","","","","","",""
"1400.1300000000047","","","categorize-html","98","387431","0.0-98.0","wt61tbc5","","Which video showed <span style=""font-size:30px"">Sandy's</span> attention?","50","","","","","false"
"null","","","html-keyboard-response","99","387933","0.0-99.0","wt61tbc5",""," ","null","","","","",""
"","","","call-function","100","387934","0.0-100.0","wt61tbc5","","","","","","","",""
"null","","","html-keyboard-response","101","389437","0.0-101.0","wt61tbc5","","<span style=""color:Black; font-size:50px;"">Video 1</span>","null","","","","",""
"null","","","video-keyboard-response","102","392522","0.0-102.0","wt61tbc5","","","null","","<span style=""color:Black; font-size:50px;"">Casey","Casey","LEARNING_STIM_11/713381.bmp_pp67_L2_V1_veridical_freeview_isoFalse_fps144.mp4",""
"null","","","html-keyboard-response","103","394027","0.0-103.0","wt61tbc5","","<span style=""color:Black; font-size:50px;"">Video 2</span>","null","","","","",""
"null","","","video-keyboard-response","104","397101","0.0-104.0","wt61tbc5","","","null","","<span style=""color:Black; font-size:50px;"">Sandy","Sandy","LEARNING_STIM_11/713381.bmp_pp70_L2_V1_veridical_freeview_isoFalse_fps144.mp4",""
"","","","call-function","105","397102","0.0-105.0","wt61tbc5","","","","","","","",""
"2310.4949999999953","","","categorize-html","106","401418","0.0-106.0","wt61tbc5","","Which video showed <span style=""font-size:30px"">Sandy's</span> attention?","49","","","","","false"
"null","","","html-keyboard-response","107","401920","0.0-107.0","wt61tbc5",""," ","null","","","","",""
"","","","call-function","108","401920","0.0-108.0","wt61tbc5","","","","","","","",""
"null","","","html-keyboard-response","109","403424","0.0-109.0","wt61tbc5","","<span style=""color:Black; font-size:50px;"">Video 1</span>","null","","","","",""
"null","","","video-keyboard-response","110","406513","0.0-110.0","wt61tbc5","","","null","","<span style=""color:Black; font-size:50px;"">Casey","Casey","LEARNING_STIM_11/285949.bmp_pp67_L2_V1_veridical_freeview_isoFalse_fps144.mp4",""
"null","","","html-keyboard-response","111","408014","0.0-111.0","wt61tbc5","","<span style=""color:Black; font-size:50px;"">Video 2</span>","null","","","","",""
"null","","","video-keyboard-response","112","411102","0.0-112.0","wt61tbc5","","","null","","<span style=""color:Black; font-size:50px;"">Sandy","Sandy","LEARNING_STIM_11/285949.bmp_pp70_L2_V1_veridical_freeview_isoFalse_fps144.mp4",""
"","","","call-function","113","411102","0.0-113.0","wt61tbc5","","","","","","","",""
"2837.9899999999907","","","categorize-html","114","415945","0.0-114.0","wt61tbc5","","Which video showed <span style=""font-size:30px"">Sandy's</span> attention?","49","","","","","false"
"null","","","html-keyboard-response","115","416448","0.0-115.0","wt61tbc5",""," ","null","","","","",""
"","","","call-function","116","416448","0.0-116.0","wt61tbc5","","","","","","","",""
"null","","","html-keyboard-response","117","417951","0.0-117.0","wt61tbc5","","<span style=""color:Black; font-size:50px;"">Video 1</span>","null","","","","",""
"null","","","video-keyboard-response","118","421035","0.0-118.0","wt61tbc5","","","null","","<span style=""color:Black; font-size:50px;"">Sandy","Sandy","LEARNING_STIM_11/498226.bmp_pp70_L2_V1_veridical_freeview_isoFalse_fps144.mp4",""
"null","","","html-keyboard-response","119","422537","0.0-119.0","wt61tbc5","","<span style=""color:Black; font-size:50px;"">Video 2</span>","null","","","","",""
"null","","","video-keyboard-response","120","425631","0.0-120.0","wt61tbc5","","","null","","<span style=""color:Black; font-size:50px;"">Casey","Casey","LEARNING_STIM_11/498226.bmp_pp67_L2_V1_veridical_freeview_isoFalse_fps144.mp4",""
"","","","call-function","121","425632","0.0-121.0","wt61tbc5","","","","","","","",""
"1236.7849999999744","","","categorize-html","122","428872","0.0-122.0","wt61tbc5","","Which video showed <span style=""font-size:30px"">Sandy's</span> attention?","50","","","","","false"
"null","","","html-keyboard-response","123","429374","0.0-123.0","wt61tbc5",""," ","null","","","","",""
"","","","call-function","124","429375","0.0-124.0","wt61tbc5","","","","","","","",""
"null","","","html-keyboard-response","125","430877","0.0-125.0","wt61tbc5","","<span style=""color:Black; font-size:50px;"">Video 1</span>","null","","","","",""
"null","","","video-keyboard-response","126","433967","0.0-126.0","wt61tbc5","","","null","","<span style=""color:Black; font-size:50px;"">Sandy","Sandy","LEARNING_STIM_11/1160127.bmp_pp70_L2_V1_veridical_freeview_isoFalse_fps144.mp4",""
"null","","","html-keyboard-response","127","435471","0.0-127.0","wt61tbc5","","<span style=""color:Black; font-size:50px;"">Video 2</span>","null","","","","",""
"null","","","video-keyboard-response","128","438561","0.0-128.0","wt61tbc5","","","null","","<span style=""color:Black; font-size:50px;"">Casey","Casey","LEARNING_STIM_11/1160127.bmp_pp67_L2_V1_veridical_freeview_isoFalse_fps144.mp4",""
"","","","call-function","129","438561","0.0-129.0","wt61tbc5","","","","","","","",""
"1506.8249999999534","","","categorize-html","130","442072","0.0-130.0","wt61tbc5","","Which video showed <span style=""font-size:30px"">Sandy's</span> attention?","49","","","","","true"
"null","","","html-keyboard-response","131","442575","0.0-131.0","wt61tbc5",""," ","null","","","","",""
"","","","call-function","132","442575","0.0-132.0","wt61tbc5","","","","","","","",""
"null","","","html-keyboard-response","133","444080","0.0-133.0","wt61tbc5","","<span style=""color:Black; font-size:50px;"">Video 1</span>","null","","","","",""
"null","","","video-keyboard-response","134","447146","0.0-134.0","wt61tbc5","","","null","","<span style=""color:Black; font-size:50px;"">Sandy","Sandy","LEARNING_STIM_11/713513.bmp_pp70_L2_V1_veridical_freeview_isoFalse_fps144.mp4",""
"null","","","html-keyboard-response","135","448648","0.0-135.0","wt61tbc5","","<span style=""color:Black; font-size:50px;"">Video 2</span>","null","","","","",""
"null","","","video-keyboard-response","136","451724","0.0-136.0","wt61tbc5","","","null","","<span style=""color:Black; font-size:50px;"">Casey","Casey","LEARNING_STIM_11/713513.bmp_pp67_L2_V1_veridical_freeview_isoFalse_fps144.mp4",""
"","","","call-function","137","451724","0.0-137.0","wt61tbc5","","","","","","","",""
"888.1300000000047","","","categorize-html","138","454616","0.0-138.0","wt61tbc5","","Which video showed <span style=""font-size:30px"">Sandy's</span> attention?","49","","","","","true"
"null","","","html-keyboard-response","139","455120","0.0-139.0","wt61tbc5",""," ","null","","","","",""
"","","","call-function","140","455120","0.0-140.0","wt61tbc5","","","","","","","",""
"null","","","html-keyboard-response","141","456627","0.0-141.0","wt61tbc5","","<span style=""color:Black; font-size:50px;"">Video 1</span>","null","","","","",""
"null","","","video-keyboard-response","142","459686","0.0-142.0","wt61tbc5","","","null","","<span style=""color:Black; font-size:50px;"">Sandy","Sandy","LEARNING_STIM_11/498253.bmp_pp70_L2_V1_veridical_freeview_isoFalse_fps144.mp4",""
"null","","","html-keyboard-response","143","461192","0.0-143.0","wt61tbc5","","<span style=""color:Black; font-size:50px;"">Video 2</span>","null","","","","",""
"null","","","video-keyboard-response","144","464267","0.0-144.0","wt61tbc5","","","null","","<span style=""color:Black; font-size:50px;"">Casey","Casey","LEARNING_STIM_11/498253.bmp_pp67_L2_V1_veridical_freeview_isoFalse_fps144.mp4",""
"","","","call-function","145","464267","0.0-145.0","wt61tbc5","","","","","","","",""
"912.8699999999953","","","categorize-html","146","467185","0.0-146.0","wt61tbc5","","Which video showed <span style=""font-size:30px"">Sandy's</span> attention?","50","","","","","false"
"null","","","html-keyboard-response","147","467689","0.0-147.0","wt61tbc5",""," ","null","","","","",""
"","","","call-function","148","467689","0.0-148.0","wt61tbc5","","","","","","","",""
"null","","","html-keyboard-response","149","469192","0.0-149.0","wt61tbc5","","<span style=""color:Black; font-size:50px;"">Video 1</span>","null","","","","",""
"null","","","video-keyboard-response","150","472297","0.0-150.0","wt61tbc5","","","null","","<span style=""color:Black; font-size:50px;"">Sandy","Sandy","LEARNING_STIM_11/713585.bmp_pp70_L2_V1_veridical_freeview_isoFalse_fps144.mp4",""
"null","","","html-keyboard-response","151","473803","0.0-151.0","wt61tbc5","","<span style=""color:Black; font-size:50px;"">Video 2</span>","null","","","","",""
"null","","","video-keyboard-response","152","476901","0.0-152.0","wt61tbc5","","","null","","<span style=""color:Black; font-size:50px;"">Casey","Casey","LEARNING_STIM_11/713585.bmp_pp67_L2_V1_veridical_freeview_isoFalse_fps144.mp4",""
"","","","call-function","153","476901","0.0-153.0","wt61tbc5","","","","","","","",""
"695.4249999999884","","","categorize-html","154","479600","0.0-154.0","wt61tbc5","","Which video showed <span style=""font-size:30px"">Sandy's</span> attention?","49","","","","","true"
"null","","","html-keyboard-response","155","480105","0.0-155.0","wt61tbc5",""," ","null","","","","",""
"","","","call-function","156","480106","0.0-156.0","wt61tbc5","","","","","","","",""
"null","","","html-keyboard-response","157","481608","0.0-157.0","wt61tbc5","","<span style=""color:Black; font-size:50px;"">Video 1</span>","null","","","","",""
"null","","","video-keyboard-response","158","484705","0.0-158.0","wt61tbc5","","","null","","<span style=""color:Black; font-size:50px;"">Sandy","Sandy","LEARNING_STIM_11/150458.bmp_pp70_L2_V1_veridical_freeview_isoFalse_fps144.mp4",""
"null","","","html-keyboard-response","159","486210","0.0-159.0","wt61tbc5","","<span style=""color:Black; font-size:50px;"">Video 2</span>","null","","","","",""
"null","","","video-keyboard-response","160","489307","0.0-160.0","wt61tbc5","","","null","","<span style=""color:Black; font-size:50px;"">Casey","Casey","LEARNING_STIM_11/150458.bmp_pp67_L2_V1_veridical_freeview_isoFalse_fps144.mp4",""
"","","","call-function","161","489307","0.0-161.0","wt61tbc5","","","","","","","",""
"873.085000000021","","","categorize-html","162","492187","0.0-162.0","wt61tbc5","","Which video showed <span style=""font-size:30px"">Sandy's</span> attention?","49","","","","","true"
"null","","","html-keyboard-response","163","492691","0.0-163.0","wt61tbc5",""," ","null","","","","",""
"","","","call-function","164","492691","0.0-164.0","wt61tbc5","","","","","","","",""
"null","","","html-keyboard-response","165","494197","0.0-165.0","wt61tbc5","","<span style=""color:Black; font-size:50px;"">Video 1</span>","null","","","","",""
"null","","","video-keyboard-response","166","497287","0.0-166.0","wt61tbc5","","","null","","<span style=""color:Black; font-size:50px;"">Casey","Casey","LEARNING_STIM_11/713328.bmp_pp67_L2_V1_veridical_freeview_isoFalse_fps144.mp4",""
"null","","","html-keyboard-response","167","498791","0.0-167.0","wt61tbc5","","<span style=""color:Black; font-size:50px;"">Video 2</span>","null","","","","",""
"null","","","video-keyboard-response","168","501886","0.0-168.0","wt61tbc5","","","null","","<span style=""color:Black; font-size:50px;"">Sandy","Sandy","LEARNING_STIM_11/713328.bmp_pp70_L2_V1_veridical_freeview_isoFalse_fps144.mp4",""
"","","","call-function","169","501886","0.0-169.0","wt61tbc5","","","","","","","",""
"2749.9850000000442","","","categorize-html","170","506641","0.0-170.0","wt61tbc5","","Which video showed <span style=""font-size:30px"">Sandy's</span> attention?","50","","","","","true"
"null","","","html-keyboard-response","171","507143","0.0-171.0","wt61tbc5",""," ","null","","","","",""
"5329.429999999993","","","instructions","172","512473","0.0-172.0","wt61tbc5","[{""page_index"":0,""viewing_time"":2020.375},{""page_index"":1,""viewing_time"":1716.990000000049},{""page_index"":2,""viewing_time"":1591.9499999999534}]","","","","","","",""
"11399.715000000026","","","instructions","173","523873","0.0-173.0","wt61tbc5","[{""page_index"":0,""viewing_time"":56.29000000003725},{""page_index"":1,""viewing_time"":1647.2099999999627},{""page_index"":0,""viewing_time"":5670.340000000026},{""page_index"":1,""viewing_time"":1160.875},{""page_index"":2,""viewing_time"":2864.8850000000093}]","","","","","","",""
"","","","call-function","174","523873","0.0-174.0","wt61tbc5","","","","","","","",""
"null","","","html-keyboard-response","175","525376","0.0-175.0","wt61tbc5","","<span style=""color:Black; font-size:50px;"">Video 1</span>","null","","","","",""
"null","","","video-keyboard-response","176","528438","0.0-176.0","wt61tbc5","","","null","","<span style=""color:Black; font-size:50px;"">Casey","Casey","LEARNING_STIM_11/1159575.bmp_pp67_L2_V1_veridical_freeview_isoFalse_fps144.mp4",""
"null","","","html-keyboard-response","177","529942","0.0-177.0","wt61tbc5","","<span style=""color:Black; font-size:50px;"">Video 2</span>","null","","","","",""
"null","","","video-keyboard-response","178","533015","0.0-178.0","wt61tbc5","","","null","","<span style=""color:Black; font-size:50px;"">Sandy","Sandy","LEARNING_STIM_11/1159575.bmp_pp70_L2_V1_veridical_freeview_isoFalse_fps144.mp4",""
"","","","call-function","179","533016","0.0-179.0","wt61tbc5","","","","","","","",""
"724.2050000000745","","","categorize-html","180","535744","0.0-180.0","wt61tbc5","","Which video showed <span style=""font-size:30px"">Sandy's</span> attention?","49","","","","","false"
"null","","","html-keyboard-response","181","536248","0.0-181.0","wt61tbc5",""," ","null","","","","",""
"","","","call-function","182","536248","0.0-182.0","wt61tbc5","","","","","","","",""
"null","","","html-keyboard-response","183","537751","0.0-183.0","wt61tbc5","","<span style=""color:Black; font-size:50px;"">Video 1</span>","null","","","","",""
"null","","","video-keyboard-response","184","540810","0.0-184.0","wt61tbc5","","","null","","<span style=""color:Black; font-size:50px;"">Casey","Casey","LEARNING_STIM_11/285715.bmp_pp67_L2_V1_veridical_freeview_isoFalse_fps144.mp4",""
"null","","","html-keyboard-response","185","542313","0.0-185.0","wt61tbc5","","<span style=""color:Black; font-size:50px;"">Video 2</span>","null","","","","",""
"null","","","video-keyboard-response","186","545371","0.0-186.0","wt61tbc5","","","null","","<span style=""color:Black; font-size:50px;"">Sandy","Sandy","LEARNING_STIM_11/285715.bmp_pp70_L2_V1_veridical_freeview_isoFalse_fps144.mp4",""
"","","","call-function","187","545371","0.0-187.0","wt61tbc5","","","","","","","",""
"1665.2899999999208","","","categorize-html","188","549042","0.0-188.0","wt61tbc5","","Which video showed <span style=""font-size:30px"">Sandy's</span> attention?","49","","","","","false"
"null","","","html-keyboard-response","189","549547","0.0-189.0","wt61tbc5",""," ","null","","","","",""
"","","","call-function","190","549547","0.0-190.0","wt61tbc5","","","","","","","",""
"null","","","html-keyboard-response","191","551049","0.0-191.0","wt61tbc5","","<span style=""color:Black; font-size:50px;"">Video 1</span>","null","","","","",""
"null","","","video-keyboard-response","192","554145","0.0-192.0","wt61tbc5","","","null","","<span style=""color:Black; font-size:50px;"">Sandy","Sandy","LEARNING_STIM_11/498155.bmp_pp70_L2_V1_veridical_freeview_isoFalse_fps144.mp4",""
"null","","","html-keyboard-response","193","555649","0.0-193.0","wt61tbc5","","<span style=""color:Black; font-size:50px;"">Video 2</span>","null","","","","",""
"null","","","video-keyboard-response","194","558756","0.0-194.0","wt61tbc5","","","null","","<span style=""color:Black; font-size:50px;"">Casey","Casey","LEARNING_STIM_11/498155.bmp_pp67_L2_V1_veridical_freeview_isoFalse_fps144.mp4",""
"","","","call-function","195","558756","0.0-195.0","wt61tbc5","","","","","","","",""
"752.484999999986","","","categorize-html","196","561513","0.0-196.0","wt61tbc5","","Which video showed <span style=""font-size:30px"">Sandy's</span> attention?","50","","","","","false"
"null","","","html-keyboard-response","197","562019","0.0-197.0","wt61tbc5",""," ","null","","","","",""
"","","","call-function","198","562019","0.0-198.0","wt61tbc5","","","","","","","",""
"null","","","html-keyboard-response","199","563522","0.0-199.0","wt61tbc5","","<span style=""color:Black; font-size:50px;"">Video 1</span>","null","","","","",""
"null","","","video-keyboard-response","200","566624","0.0-200.0","wt61tbc5","","","null","","<span style=""color:Black; font-size:50px;"">Casey","Casey","LEARNING_STIM_11/498221.bmp_pp67_L2_V1_veridical_freeview_isoFalse_fps144.mp4",""
"null","","","html-keyboard-response","201","568127","0.0-201.0","wt61tbc5","","<span style=""color:Black; font-size:50px;"">Video 2</span>","null","","","","",""
"null","","","video-keyboard-response","202","571222","0.0-202.0","wt61tbc5","","","null","","<span style=""color:Black; font-size:50px;"">Sandy","Sandy","LEARNING_STIM_11/498221.bmp_pp70_L2_V1_veridical_freeview_isoFalse_fps144.mp4",""
"","","","call-function","203","571222","0.0-203.0","wt61tbc5","","","","","","","",""
"2958.069999999949","","","categorize-html","204","576186","0.0-204.0","wt61tbc5","","Which video showed <span style=""font-size:30px"">Sandy's</span> attention?","49","","","","","false"
"null","","","html-keyboard-response","205","576691","0.0-205.0","wt61tbc5",""," ","null","","","","",""
"","","","call-function","206","576692","0.0-206.0","wt61tbc5","","","","","","","",""
"null","","","html-keyboard-response","207","578194","0.0-207.0","wt61tbc5","","<span style=""color:Black; font-size:50px;"">Video 1</span>","null","","","","",""
"null","","","video-keyboard-response","208","581289","0.0-208.0","wt61tbc5","","","null","","<span style=""color:Black; font-size:50px;"">Casey","Casey","LEARNING_STIM_11/1160167.bmp_pp67_L2_V1_veridical_freeview_isoFalse_fps144.mp4",""
"null","","","html-keyboard-response","209","582790","0.0-209.0","wt61tbc5","","<span style=""color:Black; font-size:50px;"">Video 2</span>","null","","","","",""
"null","","","video-keyboard-response","210","585879","0.0-210.0","wt61tbc5","","","null","","<span style=""color:Black; font-size:50px;"">Sandy","Sandy","LEARNING_STIM_11/1160167.bmp_pp70_L2_V1_veridical_freeview_isoFalse_fps144.mp4",""
"","","","call-function","211","585879","0.0-211.0","wt61tbc5","","","","","","","",""
"501.0350000000326","","","categorize-html","212","588387","0.0-212.0","wt61tbc5","","Which video showed <span style=""font-size:30px"">Sandy's</span> attention?","50","","","","","true"
"null","","","html-keyboard-response","213","588894","0.0-213.0","wt61tbc5",""," ","null","","","","",""
"","","","call-function","214","588894","0.0-214.0","wt61tbc5","","","","","","","",""
"null","","","html-keyboard-response","215","590398","0.0-215.0","wt61tbc5","","<span style=""color:Black; font-size:50px;"">Video 1</span>","null","","","","",""
"null","","","video-keyboard-response","216","593458","0.0-216.0","wt61tbc5","","","null","","<span style=""color:Black; font-size:50px;"">Sandy","Sandy","LEARNING_STIM_11/498396.bmp_pp70_L2_V1_veridical_freeview_isoFalse_fps144.mp4",""
"null","","","html-keyboard-response","217","594964","0.0-217.0","wt61tbc5","","<span style=""color:Black; font-size:50px;"">Video 2</span>","null","","","","",""
"null","","","video-keyboard-response","218","598052","0.0-218.0","wt61tbc5","","","null","","<span style=""color:Black; font-size:50px;"">Casey","Casey","LEARNING_STIM_11/498396.bmp_pp67_L2_V1_veridical_freeview_isoFalse_fps144.mp4",""
"","","","call-function","219","598053","0.0-219.0","wt61tbc5","","","","","","","",""
"1104.1699999999255","","","categorize-html","220","601162","0.0-220.0","wt61tbc5","","Which video showed <span style=""font-size:30px"">Sandy's</span> attention?","49","","","","","true"
"null","","","html-keyboard-response","221","601664","0.0-221.0","wt61tbc5",""," ","null","","","","",""
"","","","call-function","222","601665","0.0-222.0","wt61tbc5","","","","","","","",""
"null","","","html-keyboard-response","223","603167","0.0-223.0","wt61tbc5","","<span style=""color:Black; font-size:50px;"">Video 1</span>","null","","","","",""
"null","","","video-keyboard-response","224","606237","0.0-224.0","wt61tbc5","","","null","","<span style=""color:Black; font-size:50px;"">Casey","Casey","LEARNING_STIM_11/1591954.bmp_pp67_L2_V1_veridical_freeview_isoFalse_fps144.mp4",""
"null","","","html-keyboard-response","225","607740","0.0-225.0","wt61tbc5","","<span style=""color:Black; font-size:50px;"">Video 2</span>","null","","","","",""
"null","","","video-keyboard-response","226","610802","0.0-226.0","wt61tbc5","","","null","","<span style=""color:Black; font-size:50px;"">Sandy","Sandy","LEARNING_STIM_11/1591954.bmp_pp70_L2_V1_veridical_freeview_isoFalse_fps144.mp4",""
"","","","call-function","227","610802","0.0-227.0","wt61tbc5","","","","","","","",""
"1058.3400000000838","","","categorize-html","228","613863","0.0-228.0","wt61tbc5","","Which video showed <span style=""font-size:30px"">Sandy's</span> attention?","49","","","","","false"
"null","","","html-keyboard-response","229","614365","0.0-229.0","wt61tbc5",""," ","null","","","","",""
"","","","call-function","230","614365","0.0-230.0","wt61tbc5","","","","","","","",""
"null","","","html-keyboard-response","231","615868","0.0-231.0","wt61tbc5","","<span style=""color:Black; font-size:50px;"">Video 1</span>","null","","","","",""
"null","","","video-keyboard-response","232","618969","0.0-232.0","wt61tbc5","","","null","","<span style=""color:Black; font-size:50px;"">Casey","Casey","LEARNING_STIM_11/498149.bmp_pp67_L2_V1_veridical_freeview_isoFalse_fps144.mp4",""
"null","","","html-keyboard-response","233","620471","0.0-233.0","wt61tbc5","","<span style=""color:Black; font-size:50px;"">Video 2</span>","null","","","","",""
"null","","","video-keyboard-response","234","623566","0.0-234.0","wt61tbc5","","","null","","<span style=""color:Black; font-size:50px;"">Sandy","Sandy","LEARNING_STIM_11/498149.bmp_pp70_L2_V1_veridical_freeview_isoFalse_fps144.mp4",""
"","","","call-function","235","623566","0.0-235.0","wt61tbc5","","","","","","","",""
"574.6699999999255","","","categorize-html","236","626148","0.0-236.0","wt61tbc5","","Which video showed <span style=""font-size:30px"">Sandy's</span> attention?","50","","","","","true"
"null","","","html-keyboard-response","237","626651","0.0-237.0","wt61tbc5",""," ","null","","","","",""
"","","","call-function","238","626652","0.0-238.0","wt61tbc5","","","","","","","",""
"null","","","html-keyboard-response","239","628155","0.0-239.0","wt61tbc5","","<span style=""color:Black; font-size:50px;"">Video 1</span>","null","","","","",""
"null","","","video-keyboard-response","240","631271","0.0-240.0","wt61tbc5","","","null","","<span style=""color:Black; font-size:50px;"">Sandy","Sandy","LEARNING_STIM_11/61574.bmp_pp70_L2_V1_veridical_freeview_isoFalse_fps144.mp4",""
"null","","","html-keyboard-response","241","632774","0.0-241.0","wt61tbc5","","<span style=""color:Black; font-size:50px;"">Video 2</span>","null","","","","",""
"null","","","video-keyboard-response","242","635889","0.0-242.0","wt61tbc5","","","null","","<span style=""color:Black; font-size:50px;"">Casey","Casey","LEARNING_STIM_11/61574.bmp_pp67_L2_V1_veridical_freeview_isoFalse_fps144.mp4",""
"","","","call-function","243","635889","0.0-243.0","wt61tbc5","","","","","","","",""
"1099.594999999972","","","categorize-html","244","638994","0.0-244.0","wt61tbc5","","Which video showed <span style=""font-size:30px"">Sandy's</span> attention?","49","","","","","true"
"null","","","html-keyboard-response","245","639501","0.0-245.0","wt61tbc5",""," ","null","","","","",""
"","","","call-function","246","639501","0.0-246.0","wt61tbc5","","","","","","","",""
"null","","","html-keyboard-response","247","641008","0.0-247.0","wt61tbc5","","<span style=""color:Black; font-size:50px;"">Video 1</span>","null","","","","",""
"null","","","video-keyboard-response","248","644099","0.0-248.0","wt61tbc5","","","null","","<span style=""color:Black; font-size:50px;"">Casey","Casey","LEARNING_STIM_11/1160204.bmp_pp67_L2_V1_veridical_freeview_isoFalse_fps144.mp4",""
"null","","","html-keyboard-response","249","645603","0.0-249.0","wt61tbc5","","<span style=""color:Black; font-size:50px;"">Video 2</span>","null","","","","",""
"null","","","video-keyboard-response","250","648698","0.0-250.0","wt61tbc5","","","null","","<span style=""color:Black; font-size:50px;"">Sandy","Sandy","LEARNING_STIM_11/1160204.bmp_pp70_L2_V1_veridical_freeview_isoFalse_fps144.mp4",""
"","","","call-function","251","648698","0.0-251.0","wt61tbc5","","","","","","","",""
"538.4349999999395","","","categorize-html","252","651242","0.0-252.0","wt61tbc5","","Which video showed <span style=""font-size:30px"">Sandy's</span> attention?","50","","","","","true"
"null","","","html-keyboard-response","253","651745","0.0-253.0","wt61tbc5",""," ","null","","","","",""
"6006.694999999949","","","instructions","254","657752","0.0-254.0","wt61tbc5","[{""page_index"":0,""viewing_time"":1921.8100000000559},{""page_index"":1,""viewing_time"":1644.8949999999022},{""page_index"":2,""viewing_time"":2439.875}]","","","","","","",""
"6084.709999999963","","","instructions","255","663837","0.0-255.0","wt61tbc5","[{""page_index"":0,""viewing_time"":3857.789999999921},{""page_index"":1,""viewing_time"":1374.7700000000186},{""page_index"":2,""viewing_time"":852.0400000000373}]","","","","","","",""
"","","","call-function","256","663838","0.0-256.0","wt61tbc5","","","","","","","",""
"null","","","html-keyboard-response","257","665339","0.0-257.0","wt61tbc5","","<span style=""color:Black; font-size:50px;"">Video 1</span>","null","","","","",""
"null","","","video-keyboard-response","258","668398","0.0-258.0","wt61tbc5","","","null","","<span style=""color:Black; font-size:50px;"">Casey","Casey","LEARNING_STIM_11/107955.bmp_pp67_L2_V1_veridical_freeview_isoFalse_fps144.mp4",""
"null","","","html-keyboard-response","259","669902","0.0-259.0","wt61tbc5","","<span style=""color:Black; font-size:50px;"">Video 2</span>","null","","","","",""
"null","","","video-keyboard-response","260","672960","0.0-260.0","wt61tbc5","","","null","","<span style=""color:Black; font-size:50px;"">Sandy","Sandy","LEARNING_STIM_11/107955.bmp_pp70_L2_V1_veridical_freeview_isoFalse_fps144.mp4",""
"","","","call-function","261","672961","0.0-261.0","wt61tbc5","","","","","","","",""
"507.6850000000559","","","categorize-html","262","675473","0.0-262.0","wt61tbc5","","Which video showed <span style=""font-size:30px"">Sandy's</span> attention?","50","","","","","true"
"null","","","html-keyboard-response","263","675977","0.0-263.0","wt61tbc5",""," ","null","","","","",""
"","","","call-function","264","675977","0.0-264.0","wt61tbc5","","","","","","","",""
"null","","","html-keyboard-response","265","677483","0.0-265.0","wt61tbc5","","<span style=""color:Black; font-size:50px;"">Video 1</span>","null","","","","",""
"null","","","video-keyboard-response","266","680552","0.0-266.0","wt61tbc5","","","null","","<span style=""color:Black; font-size:50px;"">Casey","Casey","LEARNING_STIM_11/498281.bmp_pp67_L2_V1_veridical_freeview_isoFalse_fps144.mp4",""
"null","","","html-keyboard-response","267","682056","0.0-267.0","wt61tbc5","","<span style=""color:Black; font-size:50px;"">Video 2</span>","null","","","","",""
"null","","","video-keyboard-response","268","685122","0.0-268.0","wt61tbc5","","","null","","<span style=""color:Black; font-size:50px;"">Sandy","Sandy","LEARNING_STIM_11/498281.bmp_pp70_L2_V1_veridical_freeview_isoFalse_fps144.mp4",""
"","","","call-function","269","685122","0.0-269.0","wt61tbc5","","","","","","","",""
"1058.5999999999767","","","categorize-html","270","688188","0.0-270.0","wt61tbc5","","Which video showed <span style=""font-size:30px"">Sandy's</span> attention?","50","","","","","true"
"null","","","html-keyboard-response","271","688690","0.0-271.0","wt61tbc5",""," ","null","","","","",""
"","","","call-function","272","688690","0.0-272.0","wt61tbc5","","","","","","","",""
"null","","","html-keyboard-response","273","690194","0.0-273.0","wt61tbc5","","<span style=""color:Black; font-size:50px;"">Video 1</span>","null","","","","",""
"null","","","video-keyboard-response","274","693299","0.0-274.0","wt61tbc5","","","null","","<span style=""color:Black; font-size:50px;"">Casey","Casey","LEARNING_STIM_11/1592394.bmp_pp67_L2_V1_veridical_freeview_isoFalse_fps144.mp4",""
"null","","","html-keyboard-response","275","694805","0.0-275.0","wt61tbc5","","<span style=""color:Black; font-size:50px;"">Video 2</span>","null","","","","",""
"null","","","video-keyboard-response","276","697902","0.0-276.0","wt61tbc5","","","null","","<span style=""color:Black; font-size:50px;"">Sandy","Sandy","LEARNING_STIM_11/1592394.bmp_pp70_L2_V1_veridical_freeview_isoFalse_fps144.mp4",""
"","","","call-function","277","697902","0.0-277.0","wt61tbc5","","","","","","","",""
"766.4749999999767","","","categorize-html","278","700671","0.0-278.0","wt61tbc5","","Which video showed <span style=""font-size:30px"">Sandy's</span> attention?","49","","","","","false"
"null","","","html-keyboard-response","279","701173","0.0-279.0","wt61tbc5",""," ","null","","","","",""
"","","","call-function","280","701173","0.0-280.0","wt61tbc5","","","","","","","",""
"null","","","html-keyboard-response","281","702676","0.0-281.0","wt61tbc5","","<span style=""color:Black; font-size:50px;"">Video 1</span>","null","","","","",""
"null","","","video-keyboard-response","282","705777","0.0-282.0","wt61tbc5","","","null","","<span style=""color:Black; font-size:50px;"">Casey","Casey","LEARNING_STIM_11/1159775.bmp_pp67_L2_V1_veridical_freeview_isoFalse_fps144.mp4",""
"null","","","html-keyboard-response","283","707280","0.0-283.0","wt61tbc5","","<span style=""color:Black; font-size:50px;"">Video 2</span>","null","","","","",""
"null","","","video-keyboard-response","284","710386","0.0-284.0","wt61tbc5","","","null","","<span style=""color:Black; font-size:50px;"">Sandy","Sandy","LEARNING_STIM_11/1159775.bmp_pp70_L2_V1_veridical_freeview_isoFalse_fps144.mp4",""
"","","","call-function","285","710386","0.0-285.0","wt61tbc5","","","","","","","",""
"1290.3050000000512","","","categorize-html","286","713679","0.0-286.0","wt61tbc5","","Which video showed <span style=""font-size:30px"">Sandy's</span> attention?","50","","","","","true"
"null","","","html-keyboard-response","287","714183","0.0-287.0","wt61tbc5",""," ","null","","","","",""
"","","","call-function","288","714184","0.0-288.0","wt61tbc5","","","","","","","",""
"null","","","html-keyboard-response","289","715690","0.0-289.0","wt61tbc5","","<span style=""color:Black; font-size:50px;"">Video 1</span>","null","","","","",""
"null","","","video-keyboard-response","290","718790","0.0-290.0","wt61tbc5","","","null","","<span style=""color:Black; font-size:50px;"">Sandy","Sandy","LEARNING_STIM_11/1592620.bmp_pp70_L2_V1_veridical_freeview_isoFalse_fps144.mp4",""
"null","","","html-keyboard-response","291","720295","0.0-291.0","wt61tbc5","","<span style=""color:Black; font-size:50px;"">Video 2</span>","null","","","","",""
"null","","","video-keyboard-response","292","723397","0.0-292.0","wt61tbc5","","","null","","<span style=""color:Black; font-size:50px;"">Casey","Casey","LEARNING_STIM_11/1592620.bmp_pp67_L2_V1_veridical_freeview_isoFalse_fps144.mp4",""
"","","","call-function","293","723397","0.0-293.0","wt61tbc5","","","","","","","",""
"551.7099999999627","","","categorize-html","294","725951","0.0-294.0","wt61tbc5","","Which video showed <span style=""font-size:30px"">Sandy's</span> attention?","50","","","","","false"
"null","","","html-keyboard-response","295","726456","0.0-295.0","wt61tbc5",""," ","null","","","","",""
"","","","call-function","296","726457","0.0-296.0","wt61tbc5","","","","","","","",""
"null","","","html-keyboard-response","297","727960","0.0-297.0","wt61tbc5","","<span style=""color:Black; font-size:50px;"">Video 1</span>","null","","","","",""
"null","","","video-keyboard-response","298","731060","0.0-298.0","wt61tbc5","","","null","","<span style=""color:Black; font-size:50px;"">Casey","Casey","LEARNING_STIM_11/107964.bmp_pp67_L2_V1_veridical_freeview_isoFalse_fps144.mp4",""
"null","","","html-keyboard-response","299","732563","0.0-299.0","wt61tbc5","","<span style=""color:Black; font-size:50px;"">Video 2</span>","null","","","","",""
"null","","","video-keyboard-response","300","735623","0.0-300.0","wt61tbc5","","","null","","<span style=""color:Black; font-size:50px;"">Sandy","Sandy","LEARNING_STIM_11/107964.bmp_pp70_L2_V1_veridical_freeview_isoFalse_fps144.mp4",""
"","","","call-function","301","735623","0.0-301.0","wt61tbc5","","","","","","","",""
"669.7099999999627","","","categorize-html","302","738296","0.0-302.0","wt61tbc5","","Which video showed <span style=""font-size:30px"">Sandy's</span> attention?","50","","","","","true"
"null","","","html-keyboard-response","303","738798","0.0-303.0","wt61tbc5",""," ","null","","","","",""
"","","","call-function","304","738798","0.0-304.0","wt61tbc5","","","","","","","",""
"null","","","html-keyboard-response","305","740301","0.0-305.0","wt61tbc5","","<span style=""color:Black; font-size:50px;"">Video 1</span>","null","","","","",""
"null","","","video-keyboard-response","306","743361","0.0-306.0","wt61tbc5","","","null","","<span style=""color:Black; font-size:50px;"">Sandy","Sandy","LEARNING_STIM_11/713142.bmp_pp70_L2_V1_veridical_freeview_isoFalse_fps144.mp4",""
"null","","","html-keyboard-response","307","744865","0.0-307.0","wt61tbc5","","<span style=""color:Black; font-size:50px;"">Video 2</span>","null","","","","",""
"null","","","video-keyboard-response","308","747948","0.0-308.0","wt61tbc5","","","null","","<span style=""color:Black; font-size:50px;"">Casey","Casey","LEARNING_STIM_11/713142.bmp_pp67_L2_V1_veridical_freeview_isoFalse_fps144.mp4",""
"","","","call-function","309","747948","0.0-309.0","wt61tbc5","","","","","","","",""
"768.265000000014","","","categorize-html","310","750719","0.0-310.0","wt61tbc5","","Which video showed <span style=""font-size:30px"">Sandy's</span> attention?","50","","","","","false"
"null","","","html-keyboard-response","311","751222","0.0-311.0","wt61tbc5",""," ","null","","","","",""
"","","","call-function","312","751222","0.0-312.0","wt61tbc5","","","","","","","",""
"null","","","html-keyboard-response","313","752726","0.0-313.0","wt61tbc5","","<span style=""color:Black; font-size:50px;"">Video 1</span>","null","","","","",""
"null","","","video-keyboard-response","314","755795","0.0-314.0","wt61tbc5","","","null","","<span style=""color:Black; font-size:50px;"">Casey","Casey","LEARNING_STIM_11/1159397.bmp_pp67_L2_V1_veridical_freeview_isoFalse_fps144.mp4",""
"null","","","html-keyboard-response","315","757298","0.0-315.0","wt61tbc5","","<span style=""color:Black; font-size:50px;"">Video 2</span>","null","","","","",""
"null","","","video-keyboard-response","316","760387","0.0-316.0","wt61tbc5","","","null","","<span style=""color:Black; font-size:50px;"">Sandy","Sandy","LEARNING_STIM_11/1159397.bmp_pp70_L2_V1_veridical_freeview_isoFalse_fps144.mp4",""
"","","","call-function","317","760387","0.0-317.0","wt61tbc5","","","","","","","",""
"1721.4000000000233","","","categorize-html","318","764114","0.0-318.0","wt61tbc5","","Which video showed <span style=""font-size:30px"">Sandy's</span> attention?","49","","","","","false"
"null","","","html-keyboard-response","319","764618","0.0-319.0","wt61tbc5",""," ","null","","","","",""
"","","","call-function","320","764618","0.0-320.0","wt61tbc5","","","","","","","",""
"null","","","html-keyboard-response","321","766121","0.0-321.0","wt61tbc5","","<span style=""color:Black; font-size:50px;"">Video 1</span>","null","","","","",""
"null","","","video-keyboard-response","322","769211","0.0-322.0","wt61tbc5","","","null","","<span style=""color:Black; font-size:50px;"">Casey","Casey","LEARNING_STIM_11/1593006.bmp_pp67_L2_V1_veridical_freeview_isoFalse_fps144.mp4",""
"null","","","html-keyboard-response","323","770717","0.0-323.0","wt61tbc5","","<span style=""color:Black; font-size:50px;"">Video 2</span>","null","","","","",""
"null","","","video-keyboard-response","324","773824","0.0-324.0","wt61tbc5","","","null","","<span style=""color:Black; font-size:50px;"">Sandy","Sandy","LEARNING_STIM_11/1593006.bmp_pp70_L2_V1_veridical_freeview_isoFalse_fps144.mp4",""
"","","","call-function","325","773824","0.0-325.0","wt61tbc5","","","","","","","",""
"1364.2850000000326","","","categorize-html","326","777194","0.0-326.0","wt61tbc5","","Which video showed <span style=""font-size:30px"">Sandy's</span> attention?","50","","","","","true"
"null","","","html-keyboard-response","327","777697","0.0-327.0","wt61tbc5",""," ","null","","","","",""
"","","","call-function","328","777697","0.0-328.0","wt61tbc5","","","","","","","",""
"null","","","html-keyboard-response","329","779202","0.0-329.0","wt61tbc5","","<span style=""color:Black; font-size:50px;"">Video 1</span>","null","","","","",""
"null","","","video-keyboard-response","330","782291","0.0-330.0","wt61tbc5","","","null","","<span style=""color:Black; font-size:50px;"">Casey","Casey","LEARNING_STIM_11/713003.bmp_pp67_L2_V1_veridical_freeview_isoFalse_fps144.mp4",""
"null","","","html-keyboard-response","331","783794","0.0-331.0","wt61tbc5","","<span style=""color:Black; font-size:50px;"">Video 2</span>","null","","","","",""
"null","","","video-keyboard-response","332","786907","0.0-332.0","wt61tbc5","","","null","","<span style=""color:Black; font-size:50px;"">Sandy","Sandy","LEARNING_STIM_11/713003.bmp_pp70_L2_V1_veridical_freeview_isoFalse_fps144.mp4",""
"","","","call-function","333","786908","0.0-333.0","wt61tbc5","","","","","","","",""
"1000.8950000000186","","","categorize-html","334","789912","0.0-334.0","wt61tbc5","","Which video showed <span style=""font-size:30px"">Sandy's</span> attention?","50","","","","","true"
"null","","","html-keyboard-response","335","790418","0.0-335.0","wt61tbc5",""," ","null","","","","",""
"24393.05999999994","","","instructions","336","814811","0.0-336.0","wt61tbc5","[{""page_index"":0,""viewing_time"":3655.969999999972},{""page_index"":1,""viewing_time"":1499.1450000000186},{""page_index"":2,""viewing_time"":19237.824999999953}]","","","","","","",""
"3390.7249999999767","","","instructions","337","818203","0.0-337.0","wt61tbc5","[{""page_index"":0,""viewing_time"":1241.594999999972},{""page_index"":1,""viewing_time"":1291.9100000000326},{""page_index"":2,""viewing_time"":857.1049999999814}]","","","","","","",""
"","","","call-function","338","818203","0.0-338.0","wt61tbc5","","","","","","","",""
"null","","","html-keyboard-response","339","819705","0.0-339.0","wt61tbc5","","<span style=""color:Black; font-size:50px;"">Video 1</span>","null","","","","",""
"null","","","video-keyboard-response","340","822771","0.0-340.0","wt61tbc5","","","null","","<span style=""color:Black; font-size:50px;"">Sandy","Sandy","LEARNING_STIM_11/713807.bmp_pp70_L2_V1_veridical_freeview_isoFalse_fps144.mp4",""
"null","","","html-keyboard-response","341","824273","0.0-341.0","wt61tbc5","","<span style=""color:Black; font-size:50px;"">Video 2</span>","null","","","","",""
"null","","","video-keyboard-response","342","827349","0.0-342.0","wt61tbc5","","","null","","<span style=""color:Black; font-size:50px;"">Casey","Casey","LEARNING_STIM_11/713807.bmp_pp67_L2_V1_veridical_freeview_isoFalse_fps144.mp4",""
"","","","call-function","343","827349","0.0-343.0","wt61tbc5","","","","","","","",""
"871.5599999999395","","","categorize-html","344","830224","0.0-344.0","wt61tbc5","","Which video showed <span style=""font-size:30px"">Sandy's</span> attention?","49","","","","","true"
"null","","","html-keyboard-response","345","830729","0.0-345.0","wt61tbc5",""," ","null","","","","",""
"","","","call-function","346","830729","0.0-346.0","wt61tbc5","","","","","","","",""
"null","","","html-keyboard-response","347","832232","0.0-347.0","wt61tbc5","","<span style=""color:Black; font-size:50px;"">Video 1</span>","null","","","","",""
"null","","","video-keyboard-response","348","835293","0.0-348.0","wt61tbc5","","","null","","<span style=""color:Black; font-size:50px;"">Sandy","Sandy","LEARNING_STIM_11/1591961.bmp_pp70_L2_V1_veridical_freeview_isoFalse_fps144.mp4",""
"null","","","html-keyboard-response","349","836796","0.0-349.0","wt61tbc5","","<span style=""color:Black; font-size:50px;"">Video 2</span>","null","","","","",""
"null","","","video-keyboard-response","350","839864","0.0-350.0","wt61tbc5","","","null","","<span style=""color:Black; font-size:50px;"">Casey","Casey","LEARNING_STIM_11/1591961.bmp_pp67_L2_V1_veridical_freeview_isoFalse_fps144.mp4",""
"","","","call-function","351","839864","0.0-351.0","wt61tbc5","","","","","","","",""
"1132.2850000000326","","","categorize-html","352","843003","0.0-352.0","wt61tbc5","","Which video showed <span style=""font-size:30px"">Sandy's</span> attention?","49","","","","","true"
"null","","","html-keyboard-response","353","843506","0.0-353.0","wt61tbc5",""," ","null","","","","",""
"","","","call-function","354","843506","0.0-354.0","wt61tbc5","","","","","","","",""
"null","","","html-keyboard-response","355","845011","0.0-355.0","wt61tbc5","","<span style=""color:Black; font-size:50px;"">Video 1</span>","null","","","","",""
"null","","","video-keyboard-response","356","848112","0.0-356.0","wt61tbc5","","","null","","<span style=""color:Black; font-size:50px;"">Sandy","Sandy","LEARNING_STIM_11/1159434.bmp_pp70_L2_V1_veridical_freeview_isoFalse_fps144.mp4",""
"null","","","html-keyboard-response","357","849617","0.0-357.0","wt61tbc5","","<span style=""color:Black; font-size:50px;"">Video 2</span>","null","","","","",""
"null","","","video-keyboard-response","358","852705","0.0-358.0","wt61tbc5","","","null","","<span style=""color:Black; font-size:50px;"">Casey","Casey","LEARNING_STIM_11/1159434.bmp_pp67_L2_V1_veridical_freeview_isoFalse_fps144.mp4",""
"","","","call-function","359","852705","0.0-359.0","wt61tbc5","","","","","","","",""
"1371.4899999999907","","","categorize-html","360","856080","0.0-360.0","wt61tbc5","","Which video showed <span style=""font-size:30px"">Sandy's</span> attention?","50","","","","","false"
"null","","","html-keyboard-response","361","856582","0.0-361.0","wt61tbc5",""," ","null","","","","",""
"","","","call-function","362","856582","0.0-362.0","wt61tbc5","","","","","","","",""
"null","","","html-keyboard-response","363","858089","0.0-363.0","wt61tbc5","","<span style=""color:Black; font-size:50px;"">Video 1</span>","null","","","","",""
"null","","","video-keyboard-response","364","861192","0.0-364.0","wt61tbc5","","","null","","<span style=""color:Black; font-size:50px;"">Sandy","Sandy","LEARNING_STIM_11/1592367.bmp_pp70_L2_V1_veridical_freeview_isoFalse_fps144.mp4",""
"null","","","html-keyboard-response","365","862699","0.0-365.0","wt61tbc5","","<span style=""color:Black; font-size:50px;"">Video 2</span>","null","","","","",""
"null","","","video-keyboard-response","366","865796","0.0-366.0","wt61tbc5","","","null","","<span style=""color:Black; font-size:50px;"">Casey","Casey","LEARNING_STIM_11/1592367.bmp_pp67_L2_V1_veridical_freeview_isoFalse_fps144.mp4",""
"","","","call-function","367","865796","0.0-367.0","wt61tbc5","","","","","","","",""
"1496.5250000000233","","","categorize-html","368","869295","0.0-368.0","wt61tbc5","","Which video showed <span style=""font-size:30px"">Sandy's</span> attention?","49","","","","","true"
"null","","","html-keyboard-response","369","869796","0.0-369.0","wt61tbc5",""," ","null","","","","",""
"","","","call-function","370","869797","0.0-370.0","wt61tbc5","","","","","","","",""
"null","","","html-keyboard-response","371","871302","0.0-371.0","wt61tbc5","","<span style=""color:Black; font-size:50px;"">Video 1</span>","null","","","","",""
"null","","","video-keyboard-response","372","874400","0.0-372.0","wt61tbc5","","","null","","<span style=""color:Black; font-size:50px;"">Casey","Casey","LEARNING_STIM_11/286001.bmp_pp67_L2_V1_veridical_freeview_isoFalse_fps144.mp4",""
"null","","","html-keyboard-response","373","875903","0.0-373.0","wt61tbc5","","<span style=""color:Black; font-size:50px;"">Video 2</span>","null","","","","",""
"null","","","video-keyboard-response","374","878995","0.0-374.0","wt61tbc5","","","null","","<span style=""color:Black; font-size:50px;"">Sandy","Sandy","LEARNING_STIM_11/286001.bmp_pp70_L2_V1_veridical_freeview_isoFalse_fps144.mp4",""
"","","","call-function","375","878996","0.0-375.0","wt61tbc5","","","","","","","",""
"537.1049999999814","","","categorize-html","376","881535","0.0-376.0","wt61tbc5","","Which video showed <span style=""font-size:30px"">Sandy's</span> attention?","50","","","","","true"
"null","","","html-keyboard-response","377","882038","0.0-377.0","wt61tbc5",""," ","null","","","","",""
"","","","call-function","378","882040","0.0-378.0","wt61tbc5","","","","","","","",""
"null","","","html-keyboard-response","379","883543","0.0-379.0","wt61tbc5","","<span style=""color:Black; font-size:50px;"">Video 1</span>","null","","","","",""
"null","","","video-keyboard-response","380","886617","0.0-380.0","wt61tbc5","","","null","","<span style=""color:Black; font-size:50px;"">Sandy","Sandy","LEARNING_STIM_11/1160093.bmp_pp70_L2_V1_veridical_freeview_isoFalse_fps144.mp4",""
"null","","","html-keyboard-response","381","888122","0.0-381.0","wt61tbc5","","<span style=""color:Black; font-size:50px;"">Video 2</span>","null","","","","",""
"null","","","video-keyboard-response","382","891197","0.0-382.0","wt61tbc5","","","null","","<span style=""color:Black; font-size:50px;"">Casey","Casey","LEARNING_STIM_11/1160093.bmp_pp67_L2_V1_veridical_freeview_isoFalse_fps144.mp4",""
"","","","call-function","383","891198","0.0-383.0","wt61tbc5","","","","","","","",""
"22151.140000000014","","","categorize-html","384","915352","0.0-384.0","wt61tbc5","","Which video showed <span style=""font-size:30px"">Sandy's</span> attention?","49","","","","","true"
"null","","","html-keyboard-response","385","915857","0.0-385.0","wt61tbc5",""," ","null","","","","",""
"","","","call-function","386","915857","0.0-386.0","wt61tbc5","","","","","","","",""
"null","","","html-keyboard-response","387","917361","0.0-387.0","wt61tbc5","","<span style=""color:Black; font-size:50px;"">Video 1</span>","null","","","","",""
"null","","","video-keyboard-response","388","920424","0.0-388.0","wt61tbc5","","","null","","<span style=""color:Black; font-size:50px;"">Sandy","Sandy","LEARNING_STIM_11/285686.bmp_pp70_L2_V1_veridical_freeview_isoFalse_fps144.mp4",""
"null","","","html-keyboard-response","389","921926","0.0-389.0","wt61tbc5","","<span style=""color:Black; font-size:50px;"">Video 2</span>","null","","","","",""
"null","","","video-keyboard-response","390","924989","0.0-390.0","wt61tbc5","","","null","","<span style=""color:Black; font-size:50px;"">Casey","Casey","LEARNING_STIM_11/285686.bmp_pp67_L2_V1_veridical_freeview_isoFalse_fps144.mp4",""
"","","","call-function","391","924989","0.0-391.0","wt61tbc5","","","","","","","",""
"615.75","","","categorize-html","392","927610","0.0-392.0","wt61tbc5","","Which video showed <span style=""font-size:30px"">Sandy's</span> attention?","50","","","","","false"
"null","","","html-keyboard-response","393","928113","0.0-393.0","wt61tbc5",""," ","null","","","","",""
"","","","call-function","394","928113","0.0-394.0","wt61tbc5","","","","","","","",""
"null","","","html-keyboard-response","395","929618","0.0-395.0","wt61tbc5","","<span style=""color:Black; font-size:50px;"">Video 1</span>","null","","","","",""
"null","","","video-keyboard-response","396","932715","0.0-396.0","wt61tbc5","","","null","","<span style=""color:Black; font-size:50px;"">Casey","Casey","LEARNING_STIM_11/498388.bmp_pp67_L2_V1_veridical_freeview_isoFalse_fps144.mp4",""
"null","","","html-keyboard-response","397","934217","0.0-397.0","wt61tbc5","","<span style=""color:Black; font-size:50px;"">Video 2</span>","null","","","","",""
"null","","","video-keyboard-response","398","937320","0.0-398.0","wt61tbc5","","","null","","<span style=""color:Black; font-size:50px;"">Sandy","Sandy","LEARNING_STIM_11/498388.bmp_pp70_L2_V1_veridical_freeview_isoFalse_fps144.mp4",""
"","","","call-function","399","937321","0.0-399.0","wt61tbc5","","","","","","","",""
"1812.1699999999255","","","categorize-html","400","941137","0.0-400.0","wt61tbc5","","Which video showed <span style=""font-size:30px"">Sandy's</span> attention?","49","","","","","false"
"null","","","html-keyboard-response","401","941640","0.0-401.0","wt61tbc5",""," ","null","","","","",""
"","","","call-function","402","941640","0.0-402.0","wt61tbc5","","","","","","","",""
"null","","","html-keyboard-response","403","943143","0.0-403.0","wt61tbc5","","<span style=""color:Black; font-size:50px;"">Video 1</span>","null","","","","",""
"null","","","video-keyboard-response","404","946249","0.0-404.0","wt61tbc5","","","null","","<span style=""color:Black; font-size:50px;"">Casey","Casey","LEARNING_STIM_11/1159874.bmp_pp67_L2_V1_veridical_freeview_isoFalse_fps144.mp4",""
"null","","","html-keyboard-response","405","947751","0.0-405.0","wt61tbc5","","<span style=""color:Black; font-size:50px;"">Video 2</span>","null","","","","",""
"null","","","video-keyboard-response","406","950825","0.0-406.0","wt61tbc5","","","null","","<span style=""color:Black; font-size:50px;"">Sandy","Sandy","LEARNING_STIM_11/1159874.bmp_pp70_L2_V1_veridical_freeview_isoFalse_fps144.mp4",""
"","","","call-function","407","950825","0.0-407.0","wt61tbc5","","","","","","","",""
"2155.685000000056","","","categorize-html","408","954986","0.0-408.0","wt61tbc5","","Which video showed <span style=""font-size:30px"">Sandy's</span> attention?","49","","","","","false"
"null","","","html-keyboard-response","409","955488","0.0-409.0","wt61tbc5",""," ","null","","","","",""
"","","","call-function","410","955488","0.0-410.0","wt61tbc5","","","","","","","",""
"null","","","html-keyboard-response","411","956990","0.0-411.0","wt61tbc5","","<span style=""color:Black; font-size:50px;"">Video 1</span>","null","","","","",""
"null","","","video-keyboard-response","412","960064","0.0-412.0","wt61tbc5","","","null","","<span style=""color:Black; font-size:50px;"">Casey","Casey","LEARNING_STIM_11/1160180.bmp_pp67_L2_V1_veridical_freeview_isoFalse_fps144.mp4",""
"null","","","html-keyboard-response","413","961565","0.0-413.0","wt61tbc5","","<span style=""color:Black; font-size:50px;"">Video 2</span>","null","","","","",""
"null","","","video-keyboard-response","414","964666","0.0-414.0","wt61tbc5","","","null","","<span style=""color:Black; font-size:50px;"">Sandy","Sandy","LEARNING_STIM_11/1160180.bmp_pp70_L2_V1_veridical_freeview_isoFalse_fps144.mp4",""
"","","","call-function","415","964666","0.0-415.0","wt61tbc5","","","","","","","",""
"450.48499999998603","","","categorize-html","416","967124","0.0-416.0","wt61tbc5","","Which video showed <span style=""font-size:30px"">Sandy's</span> attention?","50","","","","","true"
"null","","","html-keyboard-response","417","967631","0.0-417.0","wt61tbc5",""," ","null","","","","",""
"6069.989999999991","","","instructions","418","973701","0.0-418.0","wt61tbc5","[{""page_index"":0,""viewing_time"":5002.724999999977},{""page_index"":1,""viewing_time"":1018.8050000000512},{""page_index"":2,""viewing_time"":48.339999999967404}]","","","","","","",""
"2472.305000000051","","","instructions","419","976174","0.0-419.0","wt61tbc5","[{""page_index"":0,""viewing_time"":1128.1450000000186},{""page_index"":1,""viewing_time"":762.4399999999441},{""page_index"":2,""viewing_time"":581.6000000000931}]","","","","","","",""
"","","","call-function","420","976174","0.0-420.0","wt61tbc5","","","","","","","",""
"null","","","html-keyboard-response","421","977677","0.0-421.0","wt61tbc5","","<span style=""color:Black; font-size:50px;"">Video 1</span>","null","","","","",""
"null","","","video-keyboard-response","422","980781","0.0-422.0","wt61tbc5","","","null","","<span style=""color:Black; font-size:50px;"">Casey","Casey","LEARNING_STIM_11/1159847.bmp_pp67_L2_V1_veridical_freeview_isoFalse_fps144.mp4",""
"null","","","html-keyboard-response","423","982284","0.0-423.0","wt61tbc5","","<span style=""color:Black; font-size:50px;"">Video 2</span>","null","","","","",""
"null","","","video-keyboard-response","424","985345","0.0-424.0","wt61tbc5","","","null","","<span style=""color:Black; font-size:50px;"">Sandy","Sandy","LEARNING_STIM_11/1159847.bmp_pp70_L2_V1_veridical_freeview_isoFalse_fps144.mp4",""
"","","","call-function","425","985345","0.0-425.0","wt61tbc5","","","","","","","",""
"1115.7149999999674","","","categorize-html","426","988464","0.0-426.0","wt61tbc5","","Which video showed <span style=""font-size:30px"">Sandy's</span> attention?","50","","","","","true"
"null","","","html-keyboard-response","427","988971","0.0-427.0","wt61tbc5",""," ","null","","","","",""
"","","","call-function","428","988971","0.0-428.0","wt61tbc5","","","","","","","",""
"null","","","html-keyboard-response","429","990473","0.0-429.0","wt61tbc5","","<span style=""color:Black; font-size:50px;"">Video 1</span>","null","","","","",""
"null","","","video-keyboard-response","430","993534","0.0-430.0","wt61tbc5","","","null","","<span style=""color:Black; font-size:50px;"">Casey","Casey","LEARNING_STIM_11/498272.bmp_pp67_L2_V1_veridical_freeview_isoFalse_fps144.mp4",""
"null","","","html-keyboard-response","431","995040","0.0-431.0","wt61tbc5","","<span style=""color:Black; font-size:50px;"">Video 2</span>","null","","","","",""
"null","","","video-keyboard-response","432","998143","0.0-432.0","wt61tbc5","","","null","","<span style=""color:Black; font-size:50px;"">Sandy","Sandy","LEARNING_STIM_11/498272.bmp_pp70_L2_V1_veridical_freeview_isoFalse_fps144.mp4",""
"","","","call-function","433","998144","0.0-433.0","wt61tbc5","","","","","","","",""
"1157.3699999999953","","","categorize-html","434","1001303","0.0-434.0","wt61tbc5","","Which video showed <span style=""font-size:30px"">Sandy's</span> attention?","49","","","","","false"
"null","","","html-keyboard-response","435","1001810","0.0-435.0","wt61tbc5",""," ","null","","","","",""
"","","","call-function","436","1001811","0.0-436.0","wt61tbc5","","","","","","","",""
"null","","","html-keyboard-response","437","1003316","0.0-437.0","wt61tbc5","","<span style=""color:Black; font-size:50px;"">Video 1</span>","null","","","","",""
"null","","","video-keyboard-response","438","1006419","0.0-438.0","wt61tbc5","","","null","","<span style=""color:Black; font-size:50px;"">Sandy","Sandy","LEARNING_STIM_11/1592362.bmp_pp70_L2_V1_veridical_freeview_isoFalse_fps144.mp4",""
"null","","","html-keyboard-response","439","1007921","0.0-439.0","wt61tbc5","","<span style=""color:Black; font-size:50px;"">Video 2</span>","null","","","","",""
"null","","","video-keyboard-response","440","1011010","0.0-440.0","wt61tbc5","","","null","","<span style=""color:Black; font-size:50px;"">Casey","Casey","LEARNING_STIM_11/1592362.bmp_pp67_L2_V1_veridical_freeview_isoFalse_fps144.mp4",""
"","","","call-function","441","1011010","0.0-441.0","wt61tbc5","","","","","","","",""
"522.8500000000931","","","categorize-html","442","1013536","0.0-442.0","wt61tbc5","","Which video showed <span style=""font-size:30px"">Sandy's</span> attention?","49","","","","","true"
"null","","","html-keyboard-response","443","1014039","0.0-443.0","wt61tbc5",""," ","null","","","","",""
"","","","call-function","444","1014039","0.0-444.0","wt61tbc5","","","","","","","",""
"null","","","html-keyboard-response","445","1015542","0.0-445.0","wt61tbc5","","<span style=""color:Black; font-size:50px;"">Video 1</span>","null","","","","",""
"null","","","video-keyboard-response","446","1018617","0.0-446.0","wt61tbc5","","","null","","<span style=""color:Black; font-size:50px;"">Sandy","Sandy","LEARNING_STIM_11/1593035.bmp_pp70_L2_V1_veridical_freeview_isoFalse_fps144.mp4",""
"null","","","html-keyboard-response","447","1020121","0.0-447.0","wt61tbc5","","<span style=""color:Black; font-size:50px;"">Video 2</span>","null","","","","",""
"null","","","video-keyboard-response","448","1023191","0.0-448.0","wt61tbc5","","","null","","<span style=""color:Black; font-size:50px;"">Casey","Casey","LEARNING_STIM_11/1593035.bmp_pp67_L2_V1_veridical_freeview_isoFalse_fps144.mp4",""
"","","","call-function","449","1023191","0.0-449.0","wt61tbc5","","","","","","","",""
"2061.670000000042","","","categorize-html","450","1027258","0.0-450.0","wt61tbc5","","Which video showed <span style=""font-size:30px"">Sandy's</span> attention?","50","","","","","false"
"null","","","html-keyboard-response","451","1027765","0.0-451.0","wt61tbc5",""," ","null","","","","",""
"","","","call-function","452","1027765","0.0-452.0","wt61tbc5","","","","","","","",""
"null","","","html-keyboard-response","453","1029267","0.0-453.0","wt61tbc5","","<span style=""color:Black; font-size:50px;"">Video 1</span>","null","","","","",""
"null","","","video-keyboard-response","454","1032372","0.0-454.0","wt61tbc5","","","null","","<span style=""color:Black; font-size:50px;"">Sandy","Sandy","LEARNING_STIM_11/285946.bmp_pp70_L2_V1_veridical_freeview_isoFalse_fps144.mp4",""
"null","","","html-keyboard-response","455","1033878","0.0-455.0","wt61tbc5","","<span style=""color:Black; font-size:50px;"">Video 2</span>","null","","","","",""
"null","","","video-keyboard-response","456","1036986","0.0-456.0","wt61tbc5","","","null","","<span style=""color:Black; font-size:50px;"">Casey","Casey","LEARNING_STIM_11/285946.bmp_pp67_L2_V1_veridical_freeview_isoFalse_fps144.mp4",""
"","","","call-function","457","1036987","0.0-457.0","wt61tbc5","","","","","","","",""
"698.2399999999907","","","categorize-html","458","1039690","0.0-458.0","wt61tbc5","","Which video showed <span style=""font-size:30px"">Sandy's</span> attention?","49","","","","","true"
"null","","","html-keyboard-response","459","1040192","0.0-459.0","wt61tbc5",""," ","null","","","","",""
"","","","call-function","460","1040192","0.0-460.0","wt61tbc5","","","","","","","",""
"null","","","html-keyboard-response","461","1041695","0.0-461.0","wt61tbc5","","<span style=""color:Black; font-size:50px;"">Video 1</span>","null","","","","",""
"null","","","video-keyboard-response","462","1044804","0.0-462.0","wt61tbc5","","","null","","<span style=""color:Black; font-size:50px;"">Casey","Casey","LEARNING_STIM_11/713285.bmp_pp67_L2_V1_veridical_freeview_isoFalse_fps144.mp4",""
"null","","","html-keyboard-response","463","1046308","0.0-463.0","wt61tbc5","","<span style=""color:Black; font-size:50px;"">Video 2</span>","null","","","","",""
"null","","","video-keyboard-response","464","1049376","0.0-464.0","wt61tbc5","","","null","","<span style=""color:Black; font-size:50px;"">Sandy","Sandy","LEARNING_STIM_11/713285.bmp_pp70_L2_V1_veridical_freeview_isoFalse_fps144.mp4",""
"","","","call-function","465","1049376","0.0-465.0","wt61tbc5","","","","","","","",""
"476.6199999998789","","","categorize-html","466","1051856","0.0-466.0","wt61tbc5","","Which video showed <span style=""font-size:30px"">Sandy's</span> attention?","49","","","","","false"
"null","","","html-keyboard-response","467","1052362","0.0-467.0","wt61tbc5",""," ","null","","","","",""
"","","","call-function","468","1052362","0.0-468.0","wt61tbc5","","","","","","","",""
"null","","","html-keyboard-response","469","1053869","0.0-469.0","wt61tbc5","","<span style=""color:Black; font-size:50px;"">Video 1</span>","null","","","","",""
"null","","","video-keyboard-response","470","1056936","0.0-470.0","wt61tbc5","","","null","","<span style=""color:Black; font-size:50px;"">Casey","Casey","LEARNING_STIM_11/713112.bmp_pp67_L2_V1_veridical_freeview_isoFalse_fps144.mp4",""
"null","","","html-keyboard-response","471","1058439","0.0-471.0","wt61tbc5","","<span style=""color:Black; font-size:50px;"">Video 2</span>","null","","","","",""
"null","","","video-keyboard-response","472","1061543","0.0-472.0","wt61tbc5","","","null","","<span style=""color:Black; font-size:50px;"">Sandy","Sandy","LEARNING_STIM_11/713112.bmp_pp70_L2_V1_veridical_freeview_isoFalse_fps144.mp4",""
"","","","call-function","473","1061543","0.0-473.0","wt61tbc5","","","","","","","",""
"1845.655000000028","","","categorize-html","474","1065396","0.0-474.0","wt61tbc5","","Which video showed <span style=""font-size:30px"">Sandy's</span> attention?","50","","","","","true"
"null","","","html-keyboard-response","475","1065900","0.0-475.0","wt61tbc5",""," ","null","","","","",""
"","","","call-function","476","1065900","0.0-476.0","wt61tbc5","","","","","","","",""
"null","","","html-keyboard-response","477","1067404","0.0-477.0","wt61tbc5","","<span style=""color:Black; font-size:50px;"">Video 1</span>","null","","","","",""
"null","","","video-keyboard-response","478","1070503","0.0-478.0","wt61tbc5","","","null","","<span style=""color:Black; font-size:50px;"">Casey","Casey","LEARNING_STIM_11/713730.bmp_pp67_L2_V1_veridical_freeview_isoFalse_fps144.mp4",""
"null","","","html-keyboard-response","479","1072006","0.0-479.0","wt61tbc5","","<span style=""color:Black; font-size:50px;"">Video 2</span>","null","","","","",""
"null","","","video-keyboard-response","480","1075101","0.0-480.0","wt61tbc5","","","null","","<span style=""color:Black; font-size:50px;"">Sandy","Sandy","LEARNING_STIM_11/713730.bmp_pp70_L2_V1_veridical_freeview_isoFalse_fps144.mp4",""
"","","","call-function","481","1075102","0.0-481.0","wt61tbc5","","","","","","","",""
"503.2949999999255","","","categorize-html","482","1077609","0.0-482.0","wt61tbc5","","Which video showed <span style=""font-size:30px"">Sandy's</span> attention?","50","","","","","true"
"null","","","html-keyboard-response","483","1078112","0.0-483.0","wt61tbc5",""," ","null","","","","",""
"","","","call-function","484","1078112","0.0-484.0","wt61tbc5","","","","","","","",""
"null","","","html-keyboard-response","485","1079618","0.0-485.0","wt61tbc5","","<span style=""color:Black; font-size:50px;"">Video 1</span>","null","","","","",""
"null","","","video-keyboard-response","486","1082685","0.0-486.0","wt61tbc5","","","null","","<span style=""color:Black; font-size:50px;"">Casey","Casey","LEARNING_STIM_11/1159904.bmp_pp67_L2_V1_veridical_freeview_isoFalse_fps144.mp4",""
"null","","","html-keyboard-response","487","1084188","0.0-487.0","wt61tbc5","","<span style=""color:Black; font-size:50px;"">Video 2</span>","null","","","","",""
"null","","","video-keyboard-response","488","1087250","0.0-488.0","wt61tbc5","","","null","","<span style=""color:Black; font-size:50px;"">Sandy","Sandy","LEARNING_STIM_11/1159904.bmp_pp70_L2_V1_veridical_freeview_isoFalse_fps144.mp4",""
"","","","call-function","489","1087250","0.0-489.0","wt61tbc5","","","","","","","",""
"922.6799999999348","","","categorize-html","490","1090178","0.0-490.0","wt61tbc5","","Which video showed <span style=""font-size:30px"">Sandy's</span> attention?","50","","","","","true"
"null","","","html-keyboard-response","491","1090680","0.0-491.0","wt61tbc5",""," ","null","","","","",""
"","","","call-function","492","1090681","0.0-492.0","wt61tbc5","","","","","","","",""
"null","","","html-keyboard-response","493","1092184","0.0-493.0","wt61tbc5","","<span style=""color:Black; font-size:50px;"">Video 1</span>","null","","","","",""
"null","","","video-keyboard-response","494","1095314","0.0-494.0","wt61tbc5","","","null","","<span style=""color:Black; font-size:50px;"">Casey","Casey","LEARNING_STIM_11/1159855.bmp_pp67_L2_V1_veridical_freeview_isoFalse_fps144.mp4",""
"null","","","html-keyboard-response","495","1096816","0.0-495.0","wt61tbc5","","<span style=""color:Black; font-size:50px;"">Video 2</span>","null","","","","",""
"null","","","video-keyboard-response","496","1099915","0.0-496.0","wt61tbc5","","","null","","<span style=""color:Black; font-size:50px;"">Sandy","Sandy","LEARNING_STIM_11/1159855.bmp_pp70_L2_V1_veridical_freeview_isoFalse_fps144.mp4",""
"","","","call-function","497","1099915","0.0-497.0","wt61tbc5","","","","","","","",""
"1385.5250000001397","","","categorize-html","498","1103305","0.0-498.0","wt61tbc5","","Which video showed <span style=""font-size:30px"">Sandy's</span> attention?","49","","","","","false"
"null","","","html-keyboard-response","499","1103809","0.0-499.0","wt61tbc5",""," ","null","","","","",""
"18995.64500000002","","","instructions","500","1122805","0.0-500.0","wt61tbc5","[{""page_index"":0,""viewing_time"":15410.514999999898},{""page_index"":1,""viewing_time"":1013.910000000149},{""page_index"":2,""viewing_time"":2571.0399999998044}]","","","","","","",""
"2690.0449999999255","","","instructions","501","1125496","0.0-501.0","wt61tbc5","[{""page_index"":0,""viewing_time"":1148.9799999999814},{""page_index"":1,""viewing_time"":775.1399999998976},{""page_index"":2,""viewing_time"":765.8049999999348}]","","","","","","",""
"","","","call-function","502","1125496","0.0-502.0","wt61tbc5","","","","","","","",""
"null","","","html-keyboard-response","503","1126998","0.0-503.0","wt61tbc5","","<span style=""color:Black; font-size:50px;"">Video 1</span>","null","","","","",""
"null","","","video-keyboard-response","504","1130066","0.0-504.0","wt61tbc5","","","null","","<span style=""color:Black; font-size:50px;"">Sandy","Sandy","LEARNING_STIM_11/285993.bmp_pp70_L2_V1_veridical_freeview_isoFalse_fps144.mp4",""
"null","","","html-keyboard-response","505","1131573","0.0-505.0","wt61tbc5","","<span style=""color:Black; font-size:50px;"">Video 2</span>","null","","","","",""
"null","","","video-keyboard-response","506","1134637","0.0-506.0","wt61tbc5","","","null","","<span style=""color:Black; font-size:50px;"">Casey","Casey","LEARNING_STIM_11/285993.bmp_pp67_L2_V1_veridical_freeview_isoFalse_fps144.mp4",""
"","","","call-function","507","1134637","0.0-507.0","wt61tbc5","","","","","","","",""
"480.4199999999255","","","categorize-html","508","1137123","0.0-508.0","wt61tbc5","","Which video showed <span style=""font-size:30px"">Sandy's</span> attention?","49","","","","","true"
"null","","","html-keyboard-response","509","1137627","0.0-509.0","wt61tbc5",""," ","null","","","","",""
"","","","call-function","510","1137628","0.0-510.0","wt61tbc5","","","","","","","",""
"null","","","html-keyboard-response","511","1139135","0.0-511.0","wt61tbc5","","<span style=""color:Black; font-size:50px;"">Video 1</span>","null","","","","",""
"null","","","video-keyboard-response","512","1142233","0.0-512.0","wt61tbc5","","","null","","<span style=""color:Black; font-size:50px;"">Casey","Casey","LEARNING_STIM_11/285859.bmp_pp67_L2_V1_veridical_freeview_isoFalse_fps144.mp4",""
"null","","","html-keyboard-response","513","1143740","0.0-513.0","wt61tbc5","","<span style=""color:Black; font-size:50px;"">Video 2</span>","null","","","","",""
"null","","","video-keyboard-response","514","1146803","0.0-514.0","wt61tbc5","","","null","","<span style=""color:Black; font-size:50px;"">Sandy","Sandy","LEARNING_STIM_11/285859.bmp_pp70_L2_V1_veridical_freeview_isoFalse_fps144.mp4",""
"","","","call-function","515","1146803","0.0-515.0","wt61tbc5","","","","","","","",""
"602.0400000000373","","","categorize-html","516","1149408","0.0-516.0","wt61tbc5","","Which video showed <span style=""font-size:30px"">Sandy's</span> attention?","49","","","","","false"
"null","","","html-keyboard-response","517","1149913","0.0-517.0","wt61tbc5",""," ","null","","","","",""
"","","","call-function","518","1149913","0.0-518.0","wt61tbc5","","","","","","","",""
"null","","","html-keyboard-response","519","1151419","0.0-519.0","wt61tbc5","","<span style=""color:Black; font-size:50px;"">Video 1</span>","null","","","","",""
"null","","","video-keyboard-response","520","1154495","0.0-520.0","wt61tbc5","","","null","","<span style=""color:Black; font-size:50px;"">Sandy","Sandy","LEARNING_STIM_11/1591975.bmp_pp70_L2_V1_veridical_freeview_isoFalse_fps144.mp4",""
"null","","","html-keyboard-response","521","1155997","0.0-521.0","wt61tbc5","","<span style=""color:Black; font-size:50px;"">Video 2</span>","null","","","","",""
"null","","","video-keyboard-response","522","1159096","0.0-522.0","wt61tbc5","","","null","","<span style=""color:Black; font-size:50px;"">Casey","Casey","LEARNING_STIM_11/1591975.bmp_pp67_L2_V1_veridical_freeview_isoFalse_fps144.mp4",""
"","","","call-function","523","1159097","0.0-523.0","wt61tbc5","","","","","","","",""
"1292.434999999823","","","categorize-html","524","1162392","0.0-524.0","wt61tbc5","","Which video showed <span style=""font-size:30px"">Sandy's</span> attention?","49","","","","","true"
"null","","","html-keyboard-response","525","1162895","0.0-525.0","wt61tbc5",""," ","null","","","","",""
"","","","call-function","526","1162896","0.0-526.0","wt61tbc5","","","","","","","",""
"null","","","html-keyboard-response","527","1164399","0.0-527.0","wt61tbc5","","<span style=""color:Black; font-size:50px;"">Video 1</span>","null","","","","",""
"null","","","video-keyboard-response","528","1167489","0.0-528.0","wt61tbc5","","","null","","<span style=""color:Black; font-size:50px;"">Sandy","Sandy","LEARNING_STIM_11/498111.bmp_pp70_L2_V1_veridical_freeview_isoFalse_fps144.mp4",""
"null","","","html-keyboard-response","529","1168995","0.0-529.0","wt61tbc5","","<span style=""color:Black; font-size:50px;"">Video 2</span>","null","","","","",""
"null","","","video-keyboard-response","530","1172084","0.0-530.0","wt61tbc5","","","null","","<span style=""color:Black; font-size:50px;"">Casey","Casey","LEARNING_STIM_11/498111.bmp_pp67_L2_V1_veridical_freeview_isoFalse_fps144.mp4",""
"","","","call-function","531","1172085","0.0-531.0","wt61tbc5","","","","","","","",""
"480.49500000011176","","","categorize-html","532","1174569","0.0-532.0","wt61tbc5","","Which video showed <span style=""font-size:30px"">Sandy's</span> attention?","50","","","","","false"
"null","","","html-keyboard-response","533","1175071","0.0-533.0","wt61tbc5",""," ","null","","","","",""
"","","","call-function","534","1175072","0.0-534.0","wt61tbc5","","","","","","","",""
"null","","","html-keyboard-response","535","1176575","0.0-535.0","wt61tbc5","","<span style=""color:Black; font-size:50px;"">Video 1</span>","null","","","","",""
"null","","","video-keyboard-response","536","1179681","0.0-536.0","wt61tbc5","","","null","","<span style=""color:Black; font-size:50px;"">Sandy","Sandy","LEARNING_STIM_11/1159335.bmp_pp70_L2_V1_veridical_freeview_isoFalse_fps144.mp4",""
"null","","","html-keyboard-response","537","1181187","0.0-537.0","wt61tbc5","","<span style=""color:Black; font-size:50px;"">Video 2</span>","null","","","","",""
"null","","","video-keyboard-response","538","1184280","0.0-538.0","wt61tbc5","","","null","","<span style=""color:Black; font-size:50px;"">Casey","Casey","LEARNING_STIM_11/1159335.bmp_pp67_L2_V1_veridical_freeview_isoFalse_fps144.mp4",""
"","","","call-function","539","1184280","0.0-539.0","wt61tbc5","","","","","","","",""
"756.8500000000931","","","categorize-html","540","1187040","0.0-540.0","wt61tbc5","","Which video showed <span style=""font-size:30px"">Sandy's</span> attention?","49","","","","","true"
"null","","","html-keyboard-response","541","1187544","0.0-541.0","wt61tbc5",""," ","null","","","","",""
"","","","call-function","542","1187544","0.0-542.0","wt61tbc5","","","","","","","",""
"null","","","html-keyboard-response","543","1189045","0.0-543.0","wt61tbc5","","<span style=""color:Black; font-size:50px;"">Video 1</span>","null","","","","",""
"null","","","video-keyboard-response","544","1192154","0.0-544.0","wt61tbc5","","","null","","<span style=""color:Black; font-size:50px;"">Casey","Casey","LEARNING_STIM_11/150374.bmp_pp67_L2_V1_veridical_freeview_isoFalse_fps144.mp4",""
"null","","","html-keyboard-response","545","1193659","0.0-545.0","wt61tbc5","","<span style=""color:Black; font-size:50px;"">Video 2</span>","null","","","","",""
"null","","","video-keyboard-response","546","1196719","0.0-546.0","wt61tbc5","","","null","","<span style=""color:Black; font-size:50px;"">Sandy","Sandy","LEARNING_STIM_11/150374.bmp_pp70_L2_V1_veridical_freeview_isoFalse_fps144.mp4",""
"","","","call-function","547","1196720","0.0-547.0","wt61tbc5","","","","","","","",""
"637.410000000149","","","categorize-html","548","1199360","0.0-548.0","wt61tbc5","","Which video showed <span style=""font-size:30px"">Sandy's</span> attention?","50","","","","","true"
"null","","","html-keyboard-response","549","1199863","0.0-549.0","wt61tbc5",""," ","null","","","","",""
"","","","call-function","550","1199863","0.0-550.0","wt61tbc5","","","","","","","",""
"null","","","html-keyboard-response","551","1201367","0.0-551.0","wt61tbc5","","<span style=""color:Black; font-size:50px;"">Video 1</span>","null","","","","",""
"null","","","video-keyboard-response","552","1204432","0.0-552.0","wt61tbc5","","","null","","<span style=""color:Black; font-size:50px;"">Sandy","Sandy","LEARNING_STIM_11/1159447.bmp_pp70_L2_V1_veridical_freeview_isoFalse_fps144.mp4",""
"null","","","html-keyboard-response","553","1205935","0.0-553.0","wt61tbc5","","<span style=""color:Black; font-size:50px;"">Video 2</span>","null","","","","",""
"null","","","video-keyboard-response","554","1209050","0.0-554.0","wt61tbc5","","","null","","<span style=""color:Black; font-size:50px;"">Casey","Casey","LEARNING_STIM_11/1159447.bmp_pp67_L2_V1_veridical_freeview_isoFalse_fps144.mp4",""
"","","","call-function","555","1209050","0.0-555.0","wt61tbc5","","","","","","","",""
"2394.9249999998137","","","categorize-html","556","1213451","0.0-556.0","wt61tbc5","","Which video showed <span style=""font-size:30px"">Sandy's</span> attention?","50","","","","","false"
"null","","","html-keyboard-response","557","1213956","0.0-557.0","wt61tbc5",""," ","null","","","","",""
"","","","call-function","558","1213957","0.0-558.0","wt61tbc5","","","","","","","",""
"null","","","html-keyboard-response","559","1215459","0.0-559.0","wt61tbc5","","<span style=""color:Black; font-size:50px;"">Video 1</span>","null","","","","",""
"null","","","video-keyboard-response","560","1218527","0.0-560.0","wt61tbc5","","","null","","<span style=""color:Black; font-size:50px;"">Sandy","Sandy","LEARNING_STIM_11/713681.bmp_pp70_L2_V1_veridical_freeview_isoFalse_fps144.mp4",""
"null","","","html-keyboard-response","561","1220034","0.0-561.0","wt61tbc5","","<span style=""color:Black; font-size:50px;"">Video 2</span>","null","","","","",""
"null","","","video-keyboard-response","562","1223106","0.0-562.0","wt61tbc5","","","null","","<span style=""color:Black; font-size:50px;"">Casey","Casey","LEARNING_STIM_11/713681.bmp_pp67_L2_V1_veridical_freeview_isoFalse_fps144.mp4",""
"","","","call-function","563","1223107","0.0-563.0","wt61tbc5","","","","","","","",""
"506.4749999998603","","","categorize-html","564","1225615","0.0-564.0","wt61tbc5","","Which video showed <span style=""font-size:30px"">Sandy's</span> attention?","49","","","","","true"
"null","","","html-keyboard-response","565","1226118","0.0-565.0","wt61tbc5",""," ","null","","","","",""
"","","","call-function","566","1226119","0.0-566.0","wt61tbc5","","","","","","","",""
"null","","","html-keyboard-response","567","1227621","0.0-567.0","wt61tbc5","","<span style=""color:Black; font-size:50px;"">Video 1</span>","null","","","","",""
"null","","","video-keyboard-response","568","1230717","0.0-568.0","wt61tbc5","","","null","","<span style=""color:Black; font-size:50px;"">Casey","Casey","LEARNING_STIM_11/713512.bmp_pp67_L2_V1_veridical_freeview_isoFalse_fps144.mp4",""
"null","","","html-keyboard-response","569","1232222","0.0-569.0","wt61tbc5","","<span style=""color:Black; font-size:50px;"">Video 2</span>","null","","","","",""
"null","","","video-keyboard-response","570","1235326","0.0-570.0","wt61tbc5","","","null","","<span style=""color:Black; font-size:50px;"">Sandy","Sandy","LEARNING_STIM_11/713512.bmp_pp70_L2_V1_veridical_freeview_isoFalse_fps144.mp4",""
"","","","call-function","571","1235326","0.0-571.0","wt61tbc5","","","","","","","",""
"391.0700000000652","","","categorize-html","572","1237722","0.0-572.0","wt61tbc5","","Which video showed <span style=""font-size:30px"">Sandy's</span> attention?","49","","","","","false"
"null","","","html-keyboard-response","573","1238226","0.0-573.0","wt61tbc5",""," ","null","","","","",""
"","","","call-function","574","1238226","0.0-574.0","wt61tbc5","","","","","","","",""
"null","","","html-keyboard-response","575","1239729","0.0-575.0","wt61tbc5","","<span style=""color:Black; font-size:50px;"">Video 1</span>","null","","","","",""
"null","","","video-keyboard-response","576","1242834","0.0-576.0","wt61tbc5","","","null","","<span style=""color:Black; font-size:50px;"">Casey","Casey","LEARNING_STIM_11/1592033.bmp_pp67_L2_V1_veridical_freeview_isoFalse_fps144.mp4",""
"null","","","html-keyboard-response","577","1244340","0.0-577.0","wt61tbc5","","<span style=""color:Black; font-size:50px;"">Video 2</span>","null","","","","",""
"null","","","video-keyboard-response","578","1247435","0.0-578.0","wt61tbc5","","","null","","<span style=""color:Black; font-size:50px;"">Sandy","Sandy","LEARNING_STIM_11/1592033.bmp_pp70_L2_V1_veridical_freeview_isoFalse_fps144.mp4",""
"","","","call-function","579","1247435","0.0-579.0","wt61tbc5","","","","","","","",""
"658.0749999999534","","","categorize-html","580","1250096","0.0-580.0","wt61tbc5","","Which video showed <span style=""font-size:30px"">Sandy's</span> attention?","50","","","","","true"
"null","","","html-keyboard-response","581","1250603","0.0-581.0","wt61tbc5",""," ","null","","","","",""
"3303.9449999998324","","","instructions","582","1253907","0.0-582.0","wt61tbc5","[{""page_index"":0,""viewing_time"":3303.8199999998324}]","","","","","","",""
"1566.5150000001304","","","instructions","583","1255474","0.0-583.0","wt61tbc5","[{""page_index"":0,""viewing_time"":1566.405000000028}]","","","","","","",""
"94471.80499999993","{""Q0"":""I'm sure what was noteworthy about my experience. I had hoped to improve as the chunks went on but I don't think I did. It was interesting to see the differences in how two people take in an image. I think I wasn't really takin in any of the images though because I was focused on the dots""}","","survey-text","584","1349952","0.0-584.0","wt61tbc5","","","","","","","",""
"46833.20499999984","{""Q0"":""I think I found a pattern pretty quickly that Sandy tends to start by looking at the right side of the image and make their way left, so I basically followed that pattern the whole time.""}","","survey-text","585","1396789","0.0-585.0","wt61tbc5","","","","","","","",""
"28378.764999999898","{""Q0"":""Sometimes the dots didn't go from left to right or right to left, so I didn't know how to jduge who was who""}","","survey-text","586","1425171","0.0-586.0","wt61tbc5","","","","","","","",""
"2896.7950000001583","","","instructions","587","1428069","0.0-587.0","wt61tbc5","[{""page_index"":0,""viewing_time"":2896.6800000001676}]","","","","","","",""
"117579.67999999993","{""Experimenter_end"":[""Printed ID# wt61tbc5 on consent form"",""Given subject SONA credit or payment"",""Given the subject debrief form""]}","[0]","survey-multi-select","588","1545651","0.0-588.0","wt61tbc5","","","","","","","",""
