"rt","responses","question_order","trial_type","trial_index","time_elapsed","internal_node_id","ID","view_history","stimulus","key_press","value","agent","condition","image","correct"
"1720727.045","{""Experimenter"":[""Confirmed subject's identity (ID card)"",""Confirmed normal or corrected-to-normal vision"",""Obtained consent (signature and date)"",""Checked the test room lighting"",""Checked computer screen lighting"",""Checked distance from screen to chin rest (50cm)"",""Cleaned and adjusted chin rest"",""Counterbalanced the order of the tasks"",""Opened the experiment in Firefox"",""Made the experiment full screen"",""Encouraged subject to silence phone, put away distractors, etc.""]}","[0]","survey-multi-select","0","1720737","0.0-0.0","l4vexvox","","","","","","","",""
"55476.23499999987","","","instructions","1","1776214","0.0-1.0","l4vexvox","[{""page_index"":0,""viewing_time"":55476.08499999996}]","","","","","","",""
"7477.449999999953","{""Age"":2,""Sex"":1,""Gender"":1}","[0,1,2]","survey-likert","2","1783694","0.0-2.0","l4vexvox","","","","","","","",""
"1384.6049999999814","","","instructions","3","1785079","0.0-3.0","l4vexvox","[{""page_index"":0,""viewing_time"":1384.5}]","","","","","","",""
"22231.709999999963","","","instructions","4","1807311","0.0-4.0","l4vexvox","[{""page_index"":0,""viewing_time"":853.6300000001211},{""page_index"":1,""viewing_time"":15285.780000000028},{""page_index"":2,""viewing_time"":6092.179999999935}]","","","","","","",""
"2168.5150000001304","","","instructions","5","1809480","0.0-5.0","l4vexvox","[{""page_index"":0,""viewing_time"":2168.4150000000373}]","","","","","","",""
"null","","","video-keyboard-response","6","1812553","0.0-6.0","l4vexvox","","","null","","","","",""
"28065.34999999986","","","instructions","7","1840620","0.0-7.0","l4vexvox","[{""page_index"":0,""viewing_time"":2602.75},{""page_index"":1,""viewing_time"":2503.1399999998976},{""page_index"":2,""viewing_time"":58.97999999998137},{""page_index"":3,""viewing_time"":3597.7900000000373},{""page_index"":4,""viewing_time"":5171.090000000084},{""page_index"":5,""viewing_time"":8224.964999999851},{""page_index"":6,""viewing_time"":4342.949999999953},{""page_index"":7,""viewing_time"":1563.094999999972}]","","","","","","",""
"5560.540000000037","","","instructions","8","1846181","0.0-8.0","l4vexvox","[{""page_index"":0,""viewing_time"":5560.415000000037}]","","","","","","",""
"2807.475000000093","","","instructions","9","1848989","0.0-9.0","l4vexvox","[{""page_index"":0,""viewing_time"":2807.375}]","","","","","","",""
"","","","call-function","10","1848990","0.0-10.0","l4vexvox","","","","","","","",""
"null","","","html-keyboard-response","11","1850496","0.0-11.0","l4vexvox","","<span style=""color:Black; font-size:50px;"">Video 1</span>","null","","","","",""
"null","","","video-keyboard-response","12","1853571","0.0-12.0","l4vexvox","","","null","","<span style=""color:Black; font-size:50px;"">Sandy","Sandy","subject_12/1159882.bmp_pp79_L2_V1_veridical_freeview_isoFalse_fps144.mp4",""
"null","","","html-keyboard-response","13","1855074","0.0-13.0","l4vexvox","","<span style=""color:Black; font-size:50px;"">Video 2</span>","null","","","","",""
"null","","","video-keyboard-response","14","1858133","0.0-14.0","l4vexvox","","","null","","<span style=""color:Black; font-size:50px;"">Casey","Casey","subject_12/1159882.bmp_pp61_L2_V1_veridical_freeview_isoFalse_fps144.mp4",""
"","","","call-function","15","1858133","0.0-15.0","l4vexvox","","","","","","","",""
"1326.4399999999441","","","categorize-html","16","1861466","0.0-16.0","l4vexvox","","Which video showed <span style=""font-size:30px"">Sandy's</span> attention?","49","","","","","true"
"null","","","html-keyboard-response","17","1861971","0.0-17.0","l4vexvox",""," ","null","","","","",""
"","","","call-function","18","1861971","0.0-18.0","l4vexvox","","","","","","","",""
"null","","","html-keyboard-response","19","1863475","0.0-19.0","l4vexvox","","<span style=""color:Black; font-size:50px;"">Video 1</span>","null","","","","",""
"null","","","video-keyboard-response","20","1866536","0.0-20.0","l4vexvox","","","null","","<span style=""color:Black; font-size:50px;"">Sandy","Sandy","subject_12/498221.bmp_pp79_L2_V1_veridical_freeview_isoFalse_fps144.mp4",""
"null","","","html-keyboard-response","21","1868039","0.0-21.0","l4vexvox","","<span style=""color:Black; font-size:50px;"">Video 2</span>","null","","","","",""
"null","","","video-keyboard-response","22","1871106","0.0-22.0","l4vexvox","","","null","","<span style=""color:Black; font-size:50px;"">Casey","Casey","subject_12/498221.bmp_pp61_L2_V1_veridical_freeview_isoFalse_fps144.mp4",""
"","","","call-function","23","1871107","0.0-23.0","l4vexvox","","","","","","","",""
"880.3950000000186","","","categorize-html","24","1873990","0.0-24.0","l4vexvox","","Which video showed <span style=""font-size:30px"">Sandy's</span> attention?","49","","","","","true"
"null","","","html-keyboard-response","25","1874495","0.0-25.0","l4vexvox",""," ","null","","","","",""
"","","","call-function","26","1874495","0.0-26.0","l4vexvox","","","","","","","",""
"null","","","html-keyboard-response","27","1876000","0.0-27.0","l4vexvox","","<span style=""color:Black; font-size:50px;"">Video 1</span>","null","","","","",""
"null","","","video-keyboard-response","28","1879100","0.0-28.0","l4vexvox","","","null","","<span style=""color:Black; font-size:50px;"">Sandy","Sandy","subject_12/713807.bmp_pp79_L2_V1_veridical_freeview_isoFalse_fps144.mp4",""
"null","","","html-keyboard-response","29","1880606","0.0-29.0","l4vexvox","","<span style=""color:Black; font-size:50px;"">Video 2</span>","null","","","","",""
"null","","","video-keyboard-response","30","1883691","0.0-30.0","l4vexvox","","","null","","<span style=""color:Black; font-size:50px;"">Casey","Casey","subject_12/713807.bmp_pp61_L2_V1_veridical_freeview_isoFalse_fps144.mp4",""
"","","","call-function","31","1883691","0.0-31.0","l4vexvox","","","","","","","",""
"2111.5749999999534","","","categorize-html","32","1887807","0.0-32.0","l4vexvox","","Which video showed <span style=""font-size:30px"">Sandy's</span> attention?","50","","","","","false"
"null","","","html-keyboard-response","33","1888310","0.0-33.0","l4vexvox",""," ","null","","","","",""
"","","","call-function","34","1888311","0.0-34.0","l4vexvox","","","","","","","",""
"null","","","html-keyboard-response","35","1889813","0.0-35.0","l4vexvox","","<span style=""color:Black; font-size:50px;"">Video 1</span>","null","","","","",""
"null","","","video-keyboard-response","36","1892912","0.0-36.0","l4vexvox","","","null","","<span style=""color:Black; font-size:50px;"">Casey","Casey","subject_12/1159434.bmp_pp61_L2_V1_veridical_freeview_isoFalse_fps144.mp4",""
"null","","","html-keyboard-response","37","1894418","0.0-37.0","l4vexvox","","<span style=""color:Black; font-size:50px;"">Video 2</span>","null","","","","",""
"null","","","video-keyboard-response","38","1897517","0.0-38.0","l4vexvox","","","null","","<span style=""color:Black; font-size:50px;"">Sandy","Sandy","subject_12/1159434.bmp_pp79_L2_V1_veridical_freeview_isoFalse_fps144.mp4",""
"","","","call-function","39","1897518","0.0-39.0","l4vexvox","","","","","","","",""
"1397.2900000000373","","","categorize-html","40","1900917","0.0-40.0","l4vexvox","","Which video showed <span style=""font-size:30px"">Sandy's</span> attention?","50","","","","","true"
"null","","","html-keyboard-response","41","1901423","0.0-41.0","l4vexvox",""," ","null","","","","",""
"","","","call-function","42","1901424","0.0-42.0","l4vexvox","","","","","","","",""
"null","","","html-keyboard-response","43","1902930","0.0-43.0","l4vexvox","","<span style=""color:Black; font-size:50px;"">Video 1</span>","null","","","","",""
"null","","","video-keyboard-response","44","1906019","0.0-44.0","l4vexvox","","","null","","<span style=""color:Black; font-size:50px;"">Sandy","Sandy","subject_12/1159609.bmp_pp79_L2_V1_veridical_freeview_isoFalse_fps144.mp4",""
"null","","","html-keyboard-response","45","1907521","0.0-45.0","l4vexvox","","<span style=""color:Black; font-size:50px;"">Video 2</span>","null","","","","",""
"null","","","video-keyboard-response","46","1910626","0.0-46.0","l4vexvox","","","null","","<span style=""color:Black; font-size:50px;"">Casey","Casey","subject_12/1159609.bmp_pp61_L2_V1_veridical_freeview_isoFalse_fps144.mp4",""
"","","","call-function","47","1910626","0.0-47.0","l4vexvox","","","","","","","",""
"1048.6099999998696","","","categorize-html","48","1913679","0.0-48.0","l4vexvox","","Which video showed <span style=""font-size:30px"">Sandy's</span> attention?","49","","","","","true"
"null","","","html-keyboard-response","49","1914183","0.0-49.0","l4vexvox",""," ","null","","","","",""
"","","","call-function","50","1914184","0.0-50.0","l4vexvox","","","","","","","",""
"null","","","html-keyboard-response","51","1915687","0.0-51.0","l4vexvox","","<span style=""color:Black; font-size:50px;"">Video 1</span>","null","","","","",""
"null","","","video-keyboard-response","52","1918763","0.0-52.0","l4vexvox","","","null","","<span style=""color:Black; font-size:50px;"">Casey","Casey","subject_12/285993.bmp_pp61_L2_V1_veridical_freeview_isoFalse_fps144.mp4",""
"null","","","html-keyboard-response","53","1920268","0.0-53.0","l4vexvox","","<span style=""color:Black; font-size:50px;"">Video 2</span>","null","","","","",""
"null","","","video-keyboard-response","54","1923352","0.0-54.0","l4vexvox","","","null","","<span style=""color:Black; font-size:50px;"">Sandy","Sandy","subject_12/285993.bmp_pp79_L2_V1_veridical_freeview_isoFalse_fps144.mp4",""
"","","","call-function","55","1923352","0.0-55.0","l4vexvox","","","","","","","",""
"1706.3850000000093","","","categorize-html","56","1927062","0.0-56.0","l4vexvox","","Which video showed <span style=""font-size:30px"">Sandy's</span> attention?","49","","","","","false"
"null","","","html-keyboard-response","57","1927568","0.0-57.0","l4vexvox",""," ","null","","","","",""
"","","","call-function","58","1927568","0.0-58.0","l4vexvox","","","","","","","",""
"null","","","html-keyboard-response","59","1929074","0.0-59.0","l4vexvox","","<span style=""color:Black; font-size:50px;"">Video 1</span>","null","","","","",""
"null","","","video-keyboard-response","60","1932151","0.0-60.0","l4vexvox","","","null","","<span style=""color:Black; font-size:50px;"">Sandy","Sandy","subject_12/1591805.bmp_pp79_L2_V1_veridical_freeview_isoFalse_fps144.mp4",""
"null","","","html-keyboard-response","61","1933655","0.0-61.0","l4vexvox","","<span style=""color:Black; font-size:50px;"">Video 2</span>","null","","","","",""
"null","","","video-keyboard-response","62","1936717","0.0-62.0","l4vexvox","","","null","","<span style=""color:Black; font-size:50px;"">Casey","Casey","subject_12/1591805.bmp_pp61_L2_V1_veridical_freeview_isoFalse_fps144.mp4",""
"","","","call-function","63","1936717","0.0-63.0","l4vexvox","","","","","","","",""
"1581.6450000000186","","","categorize-html","64","1940306","0.0-64.0","l4vexvox","","Which video showed <span style=""font-size:30px"">Sandy's</span> attention?","49","","","","","true"
"null","","","html-keyboard-response","65","1940808","0.0-65.0","l4vexvox",""," ","null","","","","",""
"","","","call-function","66","1940808","0.0-66.0","l4vexvox","","","","","","","",""
"null","","","html-keyboard-response","67","1942310","0.0-67.0","l4vexvox","","<span style=""color:Black; font-size:50px;"">Video 1</span>","null","","","","",""
"null","","","video-keyboard-response","68","1945394","0.0-68.0","l4vexvox","","","null","","<span style=""color:Black; font-size:50px;"">Sandy","Sandy","subject_12/1592254.bmp_pp79_L2_V1_veridical_freeview_isoFalse_fps144.mp4",""
"null","","","html-keyboard-response","69","1946900","0.0-69.0","l4vexvox","","<span style=""color:Black; font-size:50px;"">Video 2</span>","null","","","","",""
"null","","","video-keyboard-response","70","1949997","0.0-70.0","l4vexvox","","","null","","<span style=""color:Black; font-size:50px;"">Casey","Casey","subject_12/1592254.bmp_pp61_L2_V1_veridical_freeview_isoFalse_fps144.mp4",""
"","","","call-function","71","1949998","0.0-71.0","l4vexvox","","","","","","","",""
"933.0100000000093","","","categorize-html","72","1952935","0.0-72.0","l4vexvox","","Which video showed <span style=""font-size:30px"">Sandy's</span> attention?","49","","","","","true"
"null","","","html-keyboard-response","73","1953442","0.0-73.0","l4vexvox",""," ","null","","","","",""
"","","","call-function","74","1953442","0.0-74.0","l4vexvox","","","","","","","",""
"null","","","html-keyboard-response","75","1954949","0.0-75.0","l4vexvox","","<span style=""color:Black; font-size:50px;"">Video 1</span>","null","","","","",""
"null","","","video-keyboard-response","76","1958057","0.0-76.0","l4vexvox","","","null","","<span style=""color:Black; font-size:50px;"">Sandy","Sandy","subject_12/150280.bmp_pp79_L2_V1_veridical_freeview_isoFalse_fps144.mp4",""
"null","","","html-keyboard-response","77","1959560","0.0-77.0","l4vexvox","","<span style=""color:Black; font-size:50px;"">Video 2</span>","null","","","","",""
"null","","","video-keyboard-response","78","1962667","0.0-78.0","l4vexvox","","","null","","<span style=""color:Black; font-size:50px;"">Casey","Casey","subject_12/150280.bmp_pp61_L2_V1_veridical_freeview_isoFalse_fps144.mp4",""
"","","","call-function","79","1962667","0.0-79.0","l4vexvox","","","","","","","",""
"1159.8799999998882","","","categorize-html","80","1965829","0.0-80.0","l4vexvox","","Which video showed <span style=""font-size:30px"">Sandy's</span> attention?","49","","","","","true"
"null","","","html-keyboard-response","81","1966331","0.0-81.0","l4vexvox",""," ","null","","","","",""
"","","","call-function","82","1966332","0.0-82.0","l4vexvox","","","","","","","",""
"null","","","html-keyboard-response","83","1967834","0.0-83.0","l4vexvox","","<span style=""color:Black; font-size:50px;"">Video 1</span>","null","","","","",""
"null","","","video-keyboard-response","84","1970939","0.0-84.0","l4vexvox","","","null","","<span style=""color:Black; font-size:50px;"">Sandy","Sandy","subject_12/713028.bmp_pp79_L2_V1_veridical_freeview_isoFalse_fps144.mp4",""
"null","","","html-keyboard-response","85","1972441","0.0-85.0","l4vexvox","","<span style=""color:Black; font-size:50px;"">Video 2</span>","null","","","","",""
"null","","","video-keyboard-response","86","1975540","0.0-86.0","l4vexvox","","","null","","<span style=""color:Black; font-size:50px;"">Casey","Casey","subject_12/713028.bmp_pp61_L2_V1_veridical_freeview_isoFalse_fps144.mp4",""
"","","","call-function","87","1975541","0.0-87.0","l4vexvox","","","","","","","",""
"1349.9099999999162","","","categorize-html","88","1978895","0.0-88.0","l4vexvox","","Which video showed <span style=""font-size:30px"">Sandy's</span> attention?","49","","","","","true"
"null","","","html-keyboard-response","89","1979399","0.0-89.0","l4vexvox",""," ","null","","","","",""
"3706.2650000001304","","","instructions","90","1983106","0.0-90.0","l4vexvox","[{""page_index"":0,""viewing_time"":1684.0450000001583},{""page_index"":1,""viewing_time"":1236.1349999997765},{""page_index"":2,""viewing_time"":785.9750000000931}]","","","","","","",""
"2516.75","","","instructions","91","1985623","0.0-91.0","l4vexvox","[{""page_index"":0,""viewing_time"":762.5900000000838},{""page_index"":1,""viewing_time"":1140.8299999998417},{""page_index"":2,""viewing_time"":613.2150000000838}]","","","","","","",""
"","","","call-function","92","1985623","0.0-92.0","l4vexvox","","","","","","","",""
"null","","","html-keyboard-response","93","1987128","0.0-93.0","l4vexvox","","<span style=""color:Black; font-size:50px;"">Video 1</span>","null","","","","",""
"null","","","video-keyboard-response","94","1990201","0.0-94.0","l4vexvox","","","null","","<span style=""color:Black; font-size:50px;"">Sandy","Sandy","subject_12/713681.bmp_pp79_L2_V1_veridical_freeview_isoFalse_fps144.mp4",""
"null","","","html-keyboard-response","95","1991704","0.0-95.0","l4vexvox","","<span style=""color:Black; font-size:50px;"">Video 2</span>","null","","","","",""
"null","","","video-keyboard-response","96","1994766","0.0-96.0","l4vexvox","","","null","","<span style=""color:Black; font-size:50px;"">Casey","Casey","subject_12/713681.bmp_pp61_L2_V1_veridical_freeview_isoFalse_fps144.mp4",""
"","","","call-function","97","1994767","0.0-97.0","l4vexvox","","","","","","","",""
"860.0949999999721","","","categorize-html","98","1997630","0.0-98.0","l4vexvox","","Which video showed <span style=""font-size:30px"">Sandy's</span> attention?","49","","","","","true"
"null","","","html-keyboard-response","99","1998133","0.0-99.0","l4vexvox",""," ","null","","","","",""
"","","","call-function","100","1998134","0.0-100.0","l4vexvox","","","","","","","",""
"null","","","html-keyboard-response","101","1999638","0.0-101.0","l4vexvox","","<span style=""color:Black; font-size:50px;"">Video 1</span>","null","","","","",""
"null","","","video-keyboard-response","102","2002713","0.0-102.0","l4vexvox","","","null","","<span style=""color:Black; font-size:50px;"">Sandy","Sandy","subject_12/285686.bmp_pp79_L2_V1_veridical_freeview_isoFalse_fps144.mp4",""
"null","","","html-keyboard-response","103","2004217","0.0-103.0","l4vexvox","","<span style=""color:Black; font-size:50px;"">Video 2</span>","null","","","","",""
"null","","","video-keyboard-response","104","2007286","0.0-104.0","l4vexvox","","","null","","<span style=""color:Black; font-size:50px;"">Casey","Casey","subject_12/285686.bmp_pp61_L2_V1_veridical_freeview_isoFalse_fps144.mp4",""
"","","","call-function","105","2007287","0.0-105.0","l4vexvox","","","","","","","",""
"860.3899999998976","","","categorize-html","106","2010154","0.0-106.0","l4vexvox","","Which video showed <span style=""font-size:30px"">Sandy's</span> attention?","49","","","","","true"
"null","","","html-keyboard-response","107","2010657","0.0-107.0","l4vexvox",""," ","null","","","","",""
"","","","call-function","108","2010657","0.0-108.0","l4vexvox","","","","","","","",""
"null","","","html-keyboard-response","109","2012161","0.0-109.0","l4vexvox","","<span style=""color:Black; font-size:50px;"">Video 1</span>","null","","","","",""
"null","","","video-keyboard-response","110","2015250","0.0-110.0","l4vexvox","","","null","","<span style=""color:Black; font-size:50px;"">Sandy","Sandy","subject_12/1159392.bmp_pp79_L2_V1_veridical_freeview_isoFalse_fps144.mp4",""
"null","","","html-keyboard-response","111","2016755","0.0-111.0","l4vexvox","","<span style=""color:Black; font-size:50px;"">Video 2</span>","null","","","","",""
"null","","","video-keyboard-response","112","2019859","0.0-112.0","l4vexvox","","","null","","<span style=""color:Black; font-size:50px;"">Casey","Casey","subject_12/1159392.bmp_pp61_L2_V1_veridical_freeview_isoFalse_fps144.mp4",""
"","","","call-function","113","2019859","0.0-113.0","l4vexvox","","","","","","","",""
"751.7700000000186","","","categorize-html","114","2022613","0.0-114.0","l4vexvox","","Which video showed <span style=""font-size:30px"">Sandy's</span> attention?","49","","","","","true"
"null","","","html-keyboard-response","115","2023115","0.0-115.0","l4vexvox",""," ","null","","","","",""
"","","","call-function","116","2023115","0.0-116.0","l4vexvox","","","","","","","",""
"null","","","html-keyboard-response","117","2024619","0.0-117.0","l4vexvox","","<span style=""color:Black; font-size:50px;"">Video 1</span>","null","","","","",""
"null","","","video-keyboard-response","118","2027711","0.0-118.0","l4vexvox","","","null","","<span style=""color:Black; font-size:50px;"">Sandy","Sandy","subject_12/498388.bmp_pp79_L2_V1_veridical_freeview_isoFalse_fps144.mp4",""
"null","","","html-keyboard-response","119","2029213","0.0-119.0","l4vexvox","","<span style=""color:Black; font-size:50px;"">Video 2</span>","null","","","","",""
"null","","","video-keyboard-response","120","2032303","0.0-120.0","l4vexvox","","","null","","<span style=""color:Black; font-size:50px;"">Casey","Casey","subject_12/498388.bmp_pp61_L2_V1_veridical_freeview_isoFalse_fps144.mp4",""
"","","","call-function","121","2032303","0.0-121.0","l4vexvox","","","","","","","",""
"715.4899999999907","","","categorize-html","122","2035026","0.0-122.0","l4vexvox","","Which video showed <span style=""font-size:30px"">Sandy's</span> attention?","50","","","","","false"
"null","","","html-keyboard-response","123","2035528","0.0-123.0","l4vexvox",""," ","null","","","","",""
"","","","call-function","124","2035529","0.0-124.0","l4vexvox","","","","","","","",""
"null","","","html-keyboard-response","125","2037032","0.0-125.0","l4vexvox","","<span style=""color:Black; font-size:50px;"">Video 1</span>","null","","","","",""
"null","","","video-keyboard-response","126","2040130","0.0-126.0","l4vexvox","","","null","","<span style=""color:Black; font-size:50px;"">Casey","Casey","subject_12/1159335.bmp_pp61_L2_V1_veridical_freeview_isoFalse_fps144.mp4",""
"null","","","html-keyboard-response","127","2041632","0.0-127.0","l4vexvox","","<span style=""color:Black; font-size:50px;"">Video 2</span>","null","","","","",""
"null","","","video-keyboard-response","128","2044729","0.0-128.0","l4vexvox","","","null","","<span style=""color:Black; font-size:50px;"">Sandy","Sandy","subject_12/1159335.bmp_pp79_L2_V1_veridical_freeview_isoFalse_fps144.mp4",""
"","","","call-function","129","2044729","0.0-129.0","l4vexvox","","","","","","","",""
"641.6350000000093","","","categorize-html","130","2047378","0.0-130.0","l4vexvox","","Which video showed <span style=""font-size:30px"">Sandy's</span> attention?","50","","","","","true"
"null","","","html-keyboard-response","131","2047882","0.0-131.0","l4vexvox",""," ","null","","","","",""
"","","","call-function","132","2047882","0.0-132.0","l4vexvox","","","","","","","",""
"null","","","html-keyboard-response","133","2049387","0.0-133.0","l4vexvox","","<span style=""color:Black; font-size:50px;"">Video 1</span>","null","","","","",""
"null","","","video-keyboard-response","134","2052485","0.0-134.0","l4vexvox","","","null","","<span style=""color:Black; font-size:50px;"">Casey","Casey","subject_12/498372.bmp_pp61_L2_V1_veridical_freeview_isoFalse_fps144.mp4",""
"null","","","html-keyboard-response","135","2053992","0.0-135.0","l4vexvox","","<span style=""color:Black; font-size:50px;"">Video 2</span>","null","","","","",""
"null","","","video-keyboard-response","136","2057060","0.0-136.0","l4vexvox","","","null","","<span style=""color:Black; font-size:50px;"">Sandy","Sandy","subject_12/498372.bmp_pp79_L2_V1_veridical_freeview_isoFalse_fps144.mp4",""
"","","","call-function","137","2057060","0.0-137.0","l4vexvox","","","","","","","",""
"662.5449999999255","","","categorize-html","138","2059728","0.0-138.0","l4vexvox","","Which video showed <span style=""font-size:30px"">Sandy's</span> attention?","50","","","","","true"
"null","","","html-keyboard-response","139","2060234","0.0-139.0","l4vexvox",""," ","null","","","","",""
"","","","call-function","140","2060235","0.0-140.0","l4vexvox","","","","","","","",""
"null","","","html-keyboard-response","141","2061738","0.0-141.0","l4vexvox","","<span style=""color:Black; font-size:50px;"">Video 1</span>","null","","","","",""
"null","","","video-keyboard-response","142","2064802","0.0-142.0","l4vexvox","","","null","","<span style=""color:Black; font-size:50px;"">Casey","Casey","subject_12/1592033.bmp_pp61_L2_V1_veridical_freeview_isoFalse_fps144.mp4",""
"null","","","html-keyboard-response","143","2066304","0.0-143.0","l4vexvox","","<span style=""color:Black; font-size:50px;"">Video 2</span>","null","","","","",""
"null","","","video-keyboard-response","144","2069366","0.0-144.0","l4vexvox","","","null","","<span style=""color:Black; font-size:50px;"">Sandy","Sandy","subject_12/1592033.bmp_pp79_L2_V1_veridical_freeview_isoFalse_fps144.mp4",""
"","","","call-function","145","2069367","0.0-145.0","l4vexvox","","","","","","","",""
"964.7299999999814","","","categorize-html","146","2072338","0.0-146.0","l4vexvox","","Which video showed <span style=""font-size:30px"">Sandy's</span> attention?","50","","","","","true"
"null","","","html-keyboard-response","147","2072844","0.0-147.0","l4vexvox",""," ","null","","","","",""
"","","","call-function","148","2072845","0.0-148.0","l4vexvox","","","","","","","",""
"null","","","html-keyboard-response","149","2074350","0.0-149.0","l4vexvox","","<span style=""color:Black; font-size:50px;"">Video 1</span>","null","","","","",""
"null","","","video-keyboard-response","150","2077420","0.0-150.0","l4vexvox","","","null","","<span style=""color:Black; font-size:50px;"">Casey","Casey","subject_12/1160168.bmp_pp61_L2_V1_veridical_freeview_isoFalse_fps144.mp4",""
"null","","","html-keyboard-response","151","2078922","0.0-151.0","l4vexvox","","<span style=""color:Black; font-size:50px;"">Video 2</span>","null","","","","",""
"null","","","video-keyboard-response","152","2082032","0.0-152.0","l4vexvox","","","null","","<span style=""color:Black; font-size:50px;"">Sandy","Sandy","subject_12/1160168.bmp_pp79_L2_V1_veridical_freeview_isoFalse_fps144.mp4",""
"","","","call-function","153","2082033","0.0-153.0","l4vexvox","","","","","","","",""
"914.2949999999255","","","categorize-html","154","2084949","0.0-154.0","l4vexvox","","Which video showed <span style=""font-size:30px"">Sandy's</span> attention?","49","","","","","false"
"null","","","html-keyboard-response","155","2085456","0.0-155.0","l4vexvox",""," ","null","","","","",""
"","","","call-function","156","2085456","0.0-156.0","l4vexvox","","","","","","","",""
"null","","","html-keyboard-response","157","2086959","0.0-157.0","l4vexvox","","<span style=""color:Black; font-size:50px;"">Video 1</span>","null","","","","",""
"null","","","video-keyboard-response","158","2090051","0.0-158.0","l4vexvox","","","null","","<span style=""color:Black; font-size:50px;"">Sandy","Sandy","subject_12/1592193.bmp_pp79_L2_V1_veridical_freeview_isoFalse_fps144.mp4",""
"null","","","html-keyboard-response","159","2091557","0.0-159.0","l4vexvox","","<span style=""color:Black; font-size:50px;"">Video 2</span>","null","","","","",""
"null","","","video-keyboard-response","160","2094650","0.0-160.0","l4vexvox","","","null","","<span style=""color:Black; font-size:50px;"">Casey","Casey","subject_12/1592193.bmp_pp61_L2_V1_veridical_freeview_isoFalse_fps144.mp4",""
"","","","call-function","161","2094650","0.0-161.0","l4vexvox","","","","","","","",""
"1336.744999999879","","","categorize-html","162","2097994","0.0-162.0","l4vexvox","","Which video showed <span style=""font-size:30px"">Sandy's</span> attention?","49","","","","","true"
"null","","","html-keyboard-response","163","2098497","0.0-163.0","l4vexvox",""," ","null","","","","",""
"","","","call-function","164","2098498","0.0-164.0","l4vexvox","","","","","","","",""
"null","","","html-keyboard-response","165","2100004","0.0-165.0","l4vexvox","","<span style=""color:Black; font-size:50px;"">Video 1</span>","null","","","","",""
"null","","","video-keyboard-response","166","2103121","0.0-166.0","l4vexvox","","","null","","<span style=""color:Black; font-size:50px;"">Sandy","Sandy","subject_12/1592890.bmp_pp79_L2_V1_veridical_freeview_isoFalse_fps144.mp4",""
"null","","","html-keyboard-response","167","2104627","0.0-167.0","l4vexvox","","<span style=""color:Black; font-size:50px;"">Video 2</span>","null","","","","",""
"null","","","video-keyboard-response","168","2107719","0.0-168.0","l4vexvox","","","null","","<span style=""color:Black; font-size:50px;"">Casey","Casey","subject_12/1592890.bmp_pp61_L2_V1_veridical_freeview_isoFalse_fps144.mp4",""
"","","","call-function","169","2107719","0.0-169.0","l4vexvox","","","","","","","",""
"1204.0900000003166","","","categorize-html","170","2110926","0.0-170.0","l4vexvox","","Which video showed <span style=""font-size:30px"">Sandy's</span> attention?","49","","","","","true"
"null","","","html-keyboard-response","171","2111431","0.0-171.0","l4vexvox",""," ","null","","","","",""
"3032.7450000001118","","","instructions","172","2114465","0.0-172.0","l4vexvox","[{""page_index"":0,""viewing_time"":2222.75},{""page_index"":1,""viewing_time"":426.09499999973923},{""page_index"":2,""viewing_time"":383.785000000149}]","","","","","","",""
"1642.4799999999814","","","instructions","173","2116108","0.0-173.0","l4vexvox","[{""page_index"":0,""viewing_time"":483.3450000002049},{""page_index"":1,""viewing_time"":643.1549999997951},{""page_index"":2,""viewing_time"":515.8700000001118}]","","","","","","",""
"","","","call-function","174","2116108","0.0-174.0","l4vexvox","","","","","","","",""
"null","","","html-keyboard-response","175","2117611","0.0-175.0","l4vexvox","","<span style=""color:Black; font-size:50px;"">Video 1</span>","null","","","","",""
"null","","","video-keyboard-response","176","2120676","0.0-176.0","l4vexvox","","","null","","<span style=""color:Black; font-size:50px;"">Sandy","Sandy","subject_12/713512.bmp_pp79_L2_V1_veridical_freeview_isoFalse_fps144.mp4",""
"null","","","html-keyboard-response","177","2122180","0.0-177.0","l4vexvox","","<span style=""color:Black; font-size:50px;"">Video 2</span>","null","","","","",""
"null","","","video-keyboard-response","178","2125277","0.0-178.0","l4vexvox","","","null","","<span style=""color:Black; font-size:50px;"">Casey","Casey","subject_12/713512.bmp_pp61_L2_V1_veridical_freeview_isoFalse_fps144.mp4",""
"","","","call-function","179","2125278","0.0-179.0","l4vexvox","","","","","","","",""
"757.3850000002421","","","categorize-html","180","2128042","0.0-180.0","l4vexvox","","Which video showed <span style=""font-size:30px"">Sandy's</span> attention?","49","","","","","true"
"null","","","html-keyboard-response","181","2128544","0.0-181.0","l4vexvox",""," ","null","","","","",""
"","","","call-function","182","2128545","0.0-182.0","l4vexvox","","","","","","","",""
"null","","","html-keyboard-response","183","2130051","0.0-183.0","l4vexvox","","<span style=""color:Black; font-size:50px;"">Video 1</span>","null","","","","",""
"null","","","video-keyboard-response","184","2133127","0.0-184.0","l4vexvox","","","null","","<span style=""color:Black; font-size:50px;"">Casey","Casey","subject_12/713730.bmp_pp61_L2_V1_veridical_freeview_isoFalse_fps144.mp4",""
"null","","","html-keyboard-response","185","2134634","0.0-185.0","l4vexvox","","<span style=""color:Black; font-size:50px;"">Video 2</span>","null","","","","",""
"null","","","video-keyboard-response","186","2137702","0.0-186.0","l4vexvox","","","null","","<span style=""color:Black; font-size:50px;"">Sandy","Sandy","subject_12/713730.bmp_pp79_L2_V1_veridical_freeview_isoFalse_fps144.mp4",""
"","","","call-function","187","2137702","0.0-187.0","l4vexvox","","","","","","","",""
"980.7750000003725","","","categorize-html","188","2140689","0.0-188.0","l4vexvox","","Which video showed <span style=""font-size:30px"">Sandy's</span> attention?","50","","","","","true"
"null","","","html-keyboard-response","189","2141193","0.0-189.0","l4vexvox",""," ","null","","","","",""
"","","","call-function","190","2141194","0.0-190.0","l4vexvox","","","","","","","",""
"null","","","html-keyboard-response","191","2142695","0.0-191.0","l4vexvox","","<span style=""color:Black; font-size:50px;"">Video 1</span>","null","","","","",""
"null","","","video-keyboard-response","192","2145765","0.0-192.0","l4vexvox","","","null","","<span style=""color:Black; font-size:50px;"">Sandy","Sandy","subject_12/713285.bmp_pp79_L2_V1_veridical_freeview_isoFalse_fps144.mp4",""
"null","","","html-keyboard-response","193","2147270","0.0-193.0","l4vexvox","","<span style=""color:Black; font-size:50px;"">Video 2</span>","null","","","","",""
"null","","","video-keyboard-response","194","2150362","0.0-194.0","l4vexvox","","","null","","<span style=""color:Black; font-size:50px;"">Casey","Casey","subject_12/713285.bmp_pp61_L2_V1_veridical_freeview_isoFalse_fps144.mp4",""
"","","","call-function","195","2150363","0.0-195.0","l4vexvox","","","","","","","",""
"648.6000000000931","","","categorize-html","196","2153018","0.0-196.0","l4vexvox","","Which video showed <span style=""font-size:30px"">Sandy's</span> attention?","49","","","","","true"
"null","","","html-keyboard-response","197","2153522","0.0-197.0","l4vexvox",""," ","null","","","","",""
"","","","call-function","198","2153522","0.0-198.0","l4vexvox","","","","","","","",""
"null","","","html-keyboard-response","199","2155028","0.0-199.0","l4vexvox","","<span style=""color:Black; font-size:50px;"">Video 1</span>","null","","","","",""
"null","","","video-keyboard-response","200","2158128","0.0-200.0","l4vexvox","","","null","","<span style=""color:Black; font-size:50px;"">Sandy","Sandy","subject_12/1159874.bmp_pp79_L2_V1_veridical_freeview_isoFalse_fps144.mp4",""
"null","","","html-keyboard-response","201","2159633","0.0-201.0","l4vexvox","","<span style=""color:Black; font-size:50px;"">Video 2</span>","null","","","","",""
"null","","","video-keyboard-response","202","2162730","0.0-202.0","l4vexvox","","","null","","<span style=""color:Black; font-size:50px;"">Casey","Casey","subject_12/1159874.bmp_pp61_L2_V1_veridical_freeview_isoFalse_fps144.mp4",""
"","","","call-function","203","2162730","0.0-203.0","l4vexvox","","","","","","","",""
"497.0500000002794","","","categorize-html","204","2165230","0.0-204.0","l4vexvox","","Which video showed <span style=""font-size:30px"">Sandy's</span> attention?","49","","","","","true"
"null","","","html-keyboard-response","205","2165736","0.0-205.0","l4vexvox",""," ","null","","","","",""
"","","","call-function","206","2165737","0.0-206.0","l4vexvox","","","","","","","",""
"null","","","html-keyboard-response","207","2167238","0.0-207.0","l4vexvox","","<span style=""color:Black; font-size:50px;"">Video 1</span>","null","","","","",""
"null","","","video-keyboard-response","208","2170333","0.0-208.0","l4vexvox","","","null","","<span style=""color:Black; font-size:50px;"">Sandy","Sandy","subject_12/713135.bmp_pp79_L2_V1_veridical_freeview_isoFalse_fps144.mp4",""
"null","","","html-keyboard-response","209","2171838","0.0-209.0","l4vexvox","","<span style=""color:Black; font-size:50px;"">Video 2</span>","null","","","","",""
"null","","","video-keyboard-response","210","2174941","0.0-210.0","l4vexvox","","","null","","<span style=""color:Black; font-size:50px;"">Casey","Casey","subject_12/713135.bmp_pp61_L2_V1_veridical_freeview_isoFalse_fps144.mp4",""
"","","","call-function","211","2174942","0.0-211.0","l4vexvox","","","","","","","",""
"645.5950000002049","","","categorize-html","212","2177592","0.0-212.0","l4vexvox","","Which video showed <span style=""font-size:30px"">Sandy's</span> attention?","49","","","","","true"
"null","","","html-keyboard-response","213","2178093","0.0-213.0","l4vexvox",""," ","null","","","","",""
"","","","call-function","214","2178094","0.0-214.0","l4vexvox","","","","","","","",""
"null","","","html-keyboard-response","215","2179598","0.0-215.0","l4vexvox","","<span style=""color:Black; font-size:50px;"">Video 1</span>","null","","","","",""
"null","","","video-keyboard-response","216","2182707","0.0-216.0","l4vexvox","","","null","","<span style=""color:Black; font-size:50px;"">Sandy","Sandy","subject_12/285946.bmp_pp79_L2_V1_veridical_freeview_isoFalse_fps144.mp4",""
"null","","","html-keyboard-response","217","2184214","0.0-217.0","l4vexvox","","<span style=""color:Black; font-size:50px;"">Video 2</span>","null","","","","",""
"null","","","video-keyboard-response","218","2187283","0.0-218.0","l4vexvox","","","null","","<span style=""color:Black; font-size:50px;"">Casey","Casey","subject_12/285946.bmp_pp61_L2_V1_veridical_freeview_isoFalse_fps144.mp4",""
"","","","call-function","219","2187284","0.0-219.0","l4vexvox","","","","","","","",""
"2663.2050000000745","","","categorize-html","220","2191951","0.0-220.0","l4vexvox","","Which video showed <span style=""font-size:30px"">Sandy's</span> attention?","49","","","","","true"
"null","","","html-keyboard-response","221","2192457","0.0-221.0","l4vexvox",""," ","null","","","","",""
"","","","call-function","222","2192458","0.0-222.0","l4vexvox","","","","","","","",""
"null","","","html-keyboard-response","223","2193965","0.0-223.0","l4vexvox","","<span style=""color:Black; font-size:50px;"">Video 1</span>","null","","","","",""
"null","","","video-keyboard-response","224","2197027","0.0-224.0","l4vexvox","","","null","","<span style=""color:Black; font-size:50px;"">Sandy","Sandy","subject_12/1591975.bmp_pp79_L2_V1_veridical_freeview_isoFalse_fps144.mp4",""
"null","","","html-keyboard-response","225","2198529","0.0-225.0","l4vexvox","","<span style=""color:Black; font-size:50px;"">Video 2</span>","null","","","","",""
"null","","","video-keyboard-response","226","2201595","0.0-226.0","l4vexvox","","","null","","<span style=""color:Black; font-size:50px;"">Casey","Casey","subject_12/1591975.bmp_pp61_L2_V1_veridical_freeview_isoFalse_fps144.mp4",""
"","","","call-function","227","2201596","0.0-227.0","l4vexvox","","","","","","","",""
"839.3149999999441","","","categorize-html","228","2204439","0.0-228.0","l4vexvox","","Which video showed <span style=""font-size:30px"">Sandy's</span> attention?","49","","","","","true"
"null","","","html-keyboard-response","229","2204943","0.0-229.0","l4vexvox",""," ","null","","","","",""
"","","","call-function","230","2204944","0.0-230.0","l4vexvox","","","","","","","",""
"null","","","html-keyboard-response","231","2206448","0.0-231.0","l4vexvox","","<span style=""color:Black; font-size:50px;"">Video 1</span>","null","","","","",""
"null","","","video-keyboard-response","232","2209522","0.0-232.0","l4vexvox","","","null","","<span style=""color:Black; font-size:50px;"">Casey","Casey","subject_12/1592083.bmp_pp61_L2_V1_veridical_freeview_isoFalse_fps144.mp4",""
"null","","","html-keyboard-response","233","2211028","0.0-233.0","l4vexvox","","<span style=""color:Black; font-size:50px;"">Video 2</span>","null","","","","",""
"null","","","video-keyboard-response","234","2214115","0.0-234.0","l4vexvox","","","null","","<span style=""color:Black; font-size:50px;"">Sandy","Sandy","subject_12/1592083.bmp_pp79_L2_V1_veridical_freeview_isoFalse_fps144.mp4",""
"","","","call-function","235","2214115","0.0-235.0","l4vexvox","","","","","","","",""
"703.7000000001863","","","categorize-html","236","2216824","0.0-236.0","l4vexvox","","Which video showed <span style=""font-size:30px"">Sandy's</span> attention?","50","","","","","true"
"null","","","html-keyboard-response","237","2217330","0.0-237.0","l4vexvox",""," ","null","","","","",""
"","","","call-function","238","2217331","0.0-238.0","l4vexvox","","","","","","","",""
"null","","","html-keyboard-response","239","2218837","0.0-239.0","l4vexvox","","<span style=""color:Black; font-size:50px;"">Video 1</span>","null","","","","",""
"null","","","video-keyboard-response","240","2221941","0.0-240.0","l4vexvox","","","null","","<span style=""color:Black; font-size:50px;"">Casey","Casey","subject_12/713017.bmp_pp61_L2_V1_veridical_freeview_isoFalse_fps144.mp4",""
"null","","","html-keyboard-response","241","2223448","0.0-241.0","l4vexvox","","<span style=""color:Black; font-size:50px;"">Video 2</span>","null","","","","",""
"null","","","video-keyboard-response","242","2226540","0.0-242.0","l4vexvox","","","null","","<span style=""color:Black; font-size:50px;"">Sandy","Sandy","subject_12/713017.bmp_pp79_L2_V1_veridical_freeview_isoFalse_fps144.mp4",""
"","","","call-function","243","2226541","0.0-243.0","l4vexvox","","","","","","","",""
"1534.910000000149","","","categorize-html","244","2230078","0.0-244.0","l4vexvox","","Which video showed <span style=""font-size:30px"">Sandy's</span> attention?","50","","","","","true"
"null","","","html-keyboard-response","245","2230585","0.0-245.0","l4vexvox",""," ","null","","","","",""
"","","","call-function","246","2230585","0.0-246.0","l4vexvox","","","","","","","",""
"null","","","html-keyboard-response","247","2232088","0.0-247.0","l4vexvox","","<span style=""color:Black; font-size:50px;"">Video 1</span>","null","","","","",""
"null","","","video-keyboard-response","248","2235187","0.0-248.0","l4vexvox","","","null","","<span style=""color:Black; font-size:50px;"">Sandy","Sandy","subject_12/713003.bmp_pp79_L2_V1_veridical_freeview_isoFalse_fps144.mp4",""
"null","","","html-keyboard-response","249","2236692","0.0-249.0","l4vexvox","","<span style=""color:Black; font-size:50px;"">Video 2</span>","null","","","","",""
"null","","","video-keyboard-response","250","2239795","0.0-250.0","l4vexvox","","","null","","<span style=""color:Black; font-size:50px;"">Casey","Casey","subject_12/713003.bmp_pp61_L2_V1_veridical_freeview_isoFalse_fps144.mp4",""
"","","","call-function","251","2239796","0.0-251.0","l4vexvox","","","","","","","",""
"727.5699999998324","","","categorize-html","252","2242530","0.0-252.0","l4vexvox","","Which video showed <span style=""font-size:30px"">Sandy's</span> attention?","49","","","","","true"
"null","","","html-keyboard-response","253","2243036","0.0-253.0","l4vexvox",""," ","null","","","","",""
"1840.1499999999069","","","instructions","254","2244877","0.0-254.0","l4vexvox","[{""page_index"":0,""viewing_time"":1029.125},{""page_index"":1,""viewing_time"":459.9199999999255},{""page_index"":2,""viewing_time"":350.99500000011176}]","","","","","","",""
"1731.5800000000745","","","instructions","255","2246609","0.0-255.0","l4vexvox","[{""page_index"":0,""viewing_time"":403.4600000004284},{""page_index"":1,""viewing_time"":675.0399999995716},{""page_index"":2,""viewing_time"":652.9650000003166}]","","","","","","",""
"","","","call-function","256","2246609","0.0-256.0","l4vexvox","","","","","","","",""
"null","","","html-keyboard-response","257","2248111","0.0-257.0","l4vexvox","","<span style=""color:Black; font-size:50px;"">Video 1</span>","null","","","","",""
"null","","","video-keyboard-response","258","2251180","0.0-258.0","l4vexvox","","","null","","<span style=""color:Black; font-size:50px;"">Sandy","Sandy","subject_12/1160093.bmp_pp79_L2_V1_veridical_freeview_isoFalse_fps144.mp4",""
"null","","","html-keyboard-response","259","2252681","0.0-259.0","l4vexvox","","<span style=""color:Black; font-size:50px;"">Video 2</span>","null","","","","",""
"null","","","video-keyboard-response","260","2255787","0.0-260.0","l4vexvox","","","null","","<span style=""color:Black; font-size:50px;"">Casey","Casey","subject_12/1160093.bmp_pp61_L2_V1_veridical_freeview_isoFalse_fps144.mp4",""
"","","","call-function","261","2255788","0.0-261.0","l4vexvox","","","","","","","",""
"703.3599999998696","","","categorize-html","262","2258497","0.0-262.0","l4vexvox","","Which video showed <span style=""font-size:30px"">Sandy's</span> attention?","49","","","","","true"
"null","","","html-keyboard-response","263","2259001","0.0-263.0","l4vexvox",""," ","null","","","","",""
"","","","call-function","264","2259001","0.0-264.0","l4vexvox","","","","","","","",""
"null","","","html-keyboard-response","265","2260507","0.0-265.0","l4vexvox","","<span style=""color:Black; font-size:50px;"">Video 1</span>","null","","","","",""
"null","","","video-keyboard-response","266","2263577","0.0-266.0","l4vexvox","","","null","","<span style=""color:Black; font-size:50px;"">Casey","Casey","subject_12/1159397.bmp_pp61_L2_V1_veridical_freeview_isoFalse_fps144.mp4",""
"null","","","html-keyboard-response","267","2265079","0.0-267.0","l4vexvox","","<span style=""color:Black; font-size:50px;"">Video 2</span>","null","","","","",""
"null","","","video-keyboard-response","268","2268153","0.0-268.0","l4vexvox","","","null","","<span style=""color:Black; font-size:50px;"">Sandy","Sandy","subject_12/1159397.bmp_pp79_L2_V1_veridical_freeview_isoFalse_fps144.mp4",""
"","","","call-function","269","2268153","0.0-269.0","l4vexvox","","","","","","","",""
"738.0049999998882","","","categorize-html","270","2270898","0.0-270.0","l4vexvox","","Which video showed <span style=""font-size:30px"">Sandy's</span> attention?","49","","","","","false"
"null","","","html-keyboard-response","271","2271403","0.0-271.0","l4vexvox",""," ","null","","","","",""
"","","","call-function","272","2271404","0.0-272.0","l4vexvox","","","","","","","",""
"null","","","html-keyboard-response","273","2272905","0.0-273.0","l4vexvox","","<span style=""color:Black; font-size:50px;"">Video 1</span>","null","","","","",""
"null","","","video-keyboard-response","274","2275971","0.0-274.0","l4vexvox","","","null","","<span style=""color:Black; font-size:50px;"">Casey","Casey","subject_12/713513.bmp_pp61_L2_V1_veridical_freeview_isoFalse_fps144.mp4",""
"null","","","html-keyboard-response","275","2277474","0.0-275.0","l4vexvox","","<span style=""color:Black; font-size:50px;"">Video 2</span>","null","","","","",""
"null","","","video-keyboard-response","276","2280572","0.0-276.0","l4vexvox","","","null","","<span style=""color:Black; font-size:50px;"">Sandy","Sandy","subject_12/713513.bmp_pp79_L2_V1_veridical_freeview_isoFalse_fps144.mp4",""
"","","","call-function","277","2280573","0.0-277.0","l4vexvox","","","","","","","",""
"5014.534999999683","","","categorize-html","278","2287591","0.0-278.0","l4vexvox","","Which video showed <span style=""font-size:30px"">Sandy's</span> attention?","50","","","","","true"
"null","","","html-keyboard-response","279","2288095","0.0-279.0","l4vexvox",""," ","null","","","","",""
"","","","call-function","280","2288096","0.0-280.0","l4vexvox","","","","","","","",""
"null","","","html-keyboard-response","281","2289600","0.0-281.0","l4vexvox","","<span style=""color:Black; font-size:50px;"">Video 1</span>","null","","","","",""
"null","","","video-keyboard-response","282","2292703","0.0-282.0","l4vexvox","","","null","","<span style=""color:Black; font-size:50px;"">Sandy","Sandy","subject_12/1159775.bmp_pp79_L2_V1_veridical_freeview_isoFalse_fps144.mp4",""
"null","","","html-keyboard-response","283","2294209","0.0-283.0","l4vexvox","","<span style=""color:Black; font-size:50px;"">Video 2</span>","null","","","","",""
"null","","","video-keyboard-response","284","2297302","0.0-284.0","l4vexvox","","","null","","<span style=""color:Black; font-size:50px;"">Casey","Casey","subject_12/1159775.bmp_pp61_L2_V1_veridical_freeview_isoFalse_fps144.mp4",""
"","","","call-function","285","2297303","0.0-285.0","l4vexvox","","","","","","","",""
"924.5449999999255","","","categorize-html","286","2300230","0.0-286.0","l4vexvox","","Which video showed <span style=""font-size:30px"">Sandy's</span> attention?","49","","","","","true"
"null","","","html-keyboard-response","287","2300736","0.0-287.0","l4vexvox",""," ","null","","","","",""
"","","","call-function","288","2300736","0.0-288.0","l4vexvox","","","","","","","",""
"null","","","html-keyboard-response","289","2302239","0.0-289.0","l4vexvox","","<span style=""color:Black; font-size:50px;"">Video 1</span>","null","","","","",""
"null","","","video-keyboard-response","290","2305338","0.0-290.0","l4vexvox","","","null","","<span style=""color:Black; font-size:50px;"">Casey","Casey","subject_12/1160180.bmp_pp61_L2_V1_veridical_freeview_isoFalse_fps144.mp4",""
"null","","","html-keyboard-response","291","2306841","0.0-291.0","l4vexvox","","<span style=""color:Black; font-size:50px;"">Video 2</span>","null","","","","",""
"null","","","video-keyboard-response","292","2309924","0.0-292.0","l4vexvox","","","null","","<span style=""color:Black; font-size:50px;"">Sandy","Sandy","subject_12/1160180.bmp_pp79_L2_V1_veridical_freeview_isoFalse_fps144.mp4",""
"","","","call-function","293","2309925","0.0-293.0","l4vexvox","","","","","","","",""
"654.4500000001863","","","categorize-html","294","2312583","0.0-294.0","l4vexvox","","Which video showed <span style=""font-size:30px"">Sandy's</span> attention?","50","","","","","true"
"null","","","html-keyboard-response","295","2313090","0.0-295.0","l4vexvox",""," ","null","","","","",""
"","","","call-function","296","2313091","0.0-296.0","l4vexvox","","","","","","","",""
"null","","","html-keyboard-response","297","2314592","0.0-297.0","l4vexvox","","<span style=""color:Black; font-size:50px;"">Video 1</span>","null","","","","",""
"null","","","video-keyboard-response","298","2317666","0.0-298.0","l4vexvox","","","null","","<span style=""color:Black; font-size:50px;"">Sandy","Sandy","subject_12/498272.bmp_pp79_L2_V1_veridical_freeview_isoFalse_fps144.mp4",""
"null","","","html-keyboard-response","299","2319172","0.0-299.0","l4vexvox","","<span style=""color:Black; font-size:50px;"">Video 2</span>","null","","","","",""
"null","","","video-keyboard-response","300","2322266","0.0-300.0","l4vexvox","","","null","","<span style=""color:Black; font-size:50px;"">Casey","Casey","subject_12/498272.bmp_pp61_L2_V1_veridical_freeview_isoFalse_fps144.mp4",""
"","","","call-function","301","2322266","0.0-301.0","l4vexvox","","","","","","","",""
"1928.9499999997206","","","categorize-html","302","2326200","0.0-302.0","l4vexvox","","Which video showed <span style=""font-size:30px"">Sandy's</span> attention?","50","","","","","false"
"null","","","html-keyboard-response","303","2326704","0.0-303.0","l4vexvox",""," ","null","","","","",""
"","","","call-function","304","2326705","0.0-304.0","l4vexvox","","","","","","","",""
"null","","","html-keyboard-response","305","2328208","0.0-305.0","l4vexvox","","<span style=""color:Black; font-size:50px;"">Video 1</span>","null","","","","",""
"null","","","video-keyboard-response","306","2331274","0.0-306.0","l4vexvox","","","null","","<span style=""color:Black; font-size:50px;"">Sandy","Sandy","subject_12/498111.bmp_pp79_L2_V1_veridical_freeview_isoFalse_fps144.mp4",""
"null","","","html-keyboard-response","307","2332777","0.0-307.0","l4vexvox","","<span style=""color:Black; font-size:50px;"">Video 2</span>","null","","","","",""
"null","","","video-keyboard-response","308","2335839","0.0-308.0","l4vexvox","","","null","","<span style=""color:Black; font-size:50px;"">Casey","Casey","subject_12/498111.bmp_pp61_L2_V1_veridical_freeview_isoFalse_fps144.mp4",""
"","","","call-function","309","2335839","0.0-309.0","l4vexvox","","","","","","","",""
"692.1400000001304","","","categorize-html","310","2338537","0.0-310.0","l4vexvox","","Which video showed <span style=""font-size:30px"">Sandy's</span> attention?","49","","","","","true"
"null","","","html-keyboard-response","311","2339040","0.0-311.0","l4vexvox",""," ","null","","","","",""
"","","","call-function","312","2339041","0.0-312.0","l4vexvox","","","","","","","",""
"null","","","html-keyboard-response","313","2340547","0.0-313.0","l4vexvox","","<span style=""color:Black; font-size:50px;"">Video 1</span>","null","","","","",""
"null","","","video-keyboard-response","314","2343614","0.0-314.0","l4vexvox","","","null","","<span style=""color:Black; font-size:50px;"">Casey","Casey","subject_12/713585.bmp_pp61_L2_V1_veridical_freeview_isoFalse_fps144.mp4",""
"null","","","html-keyboard-response","315","2345118","0.0-315.0","l4vexvox","","<span style=""color:Black; font-size:50px;"">Video 2</span>","null","","","","",""
"null","","","video-keyboard-response","316","2348214","0.0-316.0","l4vexvox","","","null","","<span style=""color:Black; font-size:50px;"">Sandy","Sandy","subject_12/713585.bmp_pp79_L2_V1_veridical_freeview_isoFalse_fps144.mp4",""
"","","","call-function","317","2348215","0.0-317.0","l4vexvox","","","","","","","",""
"852.2299999999814","","","categorize-html","318","2351071","0.0-318.0","l4vexvox","","Which video showed <span style=""font-size:30px"">Sandy's</span> attention?","50","","","","","true"
"null","","","html-keyboard-response","319","2351573","0.0-319.0","l4vexvox",""," ","null","","","","",""
"","","","call-function","320","2351574","0.0-320.0","l4vexvox","","","","","","","",""
"null","","","html-keyboard-response","321","2353077","0.0-321.0","l4vexvox","","<span style=""color:Black; font-size:50px;"">Video 1</span>","null","","","","",""
"null","","","video-keyboard-response","322","2356173","0.0-322.0","l4vexvox","","","null","","<span style=""color:Black; font-size:50px;"">Sandy","Sandy","subject_12/1159325.bmp_pp79_L2_V1_veridical_freeview_isoFalse_fps144.mp4",""
"null","","","html-keyboard-response","323","2357678","0.0-323.0","l4vexvox","","<span style=""color:Black; font-size:50px;"">Video 2</span>","null","","","","",""
"null","","","video-keyboard-response","324","2360784","0.0-324.0","l4vexvox","","","null","","<span style=""color:Black; font-size:50px;"">Casey","Casey","subject_12/1159325.bmp_pp61_L2_V1_veridical_freeview_isoFalse_fps144.mp4",""
"","","","call-function","325","2360785","0.0-325.0","l4vexvox","","","","","","","",""
"1018.2750000003725","","","categorize-html","326","2363810","0.0-326.0","l4vexvox","","Which video showed <span style=""font-size:30px"">Sandy's</span> attention?","49","","","","","true"
"null","","","html-keyboard-response","327","2364314","0.0-327.0","l4vexvox",""," ","null","","","","",""
"","","","call-function","328","2364315","0.0-328.0","l4vexvox","","","","","","","",""
"null","","","html-keyboard-response","329","2365817","0.0-329.0","l4vexvox","","<span style=""color:Black; font-size:50px;"">Video 1</span>","null","","","","",""
"null","","","video-keyboard-response","330","2368926","0.0-330.0","l4vexvox","","","null","","<span style=""color:Black; font-size:50px;"">Sandy","Sandy","subject_12/1159724.bmp_pp79_L2_V1_veridical_freeview_isoFalse_fps144.mp4",""
"null","","","html-keyboard-response","331","2370433","0.0-331.0","l4vexvox","","<span style=""color:Black; font-size:50px;"">Video 2</span>","null","","","","",""
"null","","","video-keyboard-response","332","2373531","0.0-332.0","l4vexvox","","","null","","<span style=""color:Black; font-size:50px;"">Casey","Casey","subject_12/1159724.bmp_pp61_L2_V1_veridical_freeview_isoFalse_fps144.mp4",""
"","","","call-function","333","2373532","0.0-333.0","l4vexvox","","","","","","","",""
"1023.8700000001118","","","categorize-html","334","2376559","0.0-334.0","l4vexvox","","Which video showed <span style=""font-size:30px"">Sandy's</span> attention?","49","","","","","true"
"null","","","html-keyboard-response","335","2377063","0.0-335.0","l4vexvox",""," ","null","","","","",""
"2771.560000000056","","","instructions","336","2379835","0.0-336.0","l4vexvox","[{""page_index"":0,""viewing_time"":2053.4199999999255},{""page_index"":1,""viewing_time"":384.0600000000559},{""page_index"":2,""viewing_time"":333.964999999851}]","","","","","","",""
"2701.649999999907","","","instructions","337","2382537","0.0-337.0","l4vexvox","[{""page_index"":0,""viewing_time"":309.4849999998696},{""page_index"":1,""viewing_time"":1720.9750000000931},{""page_index"":2,""viewing_time"":671}]","","","","","","",""
"","","","call-function","338","2382538","0.0-338.0","l4vexvox","","","","","","","",""
"null","","","html-keyboard-response","339","2384041","0.0-339.0","l4vexvox","","<span style=""color:Black; font-size:50px;"">Video 1</span>","null","","","","",""
"null","","","video-keyboard-response","340","2387103","0.0-340.0","l4vexvox","","","null","","<span style=""color:Black; font-size:50px;"">Sandy","Sandy","subject_12/1159904.bmp_pp79_L2_V1_veridical_freeview_isoFalse_fps144.mp4",""
"null","","","html-keyboard-response","341","2388607","0.0-341.0","l4vexvox","","<span style=""color:Black; font-size:50px;"">Video 2</span>","null","","","","",""
"null","","","video-keyboard-response","342","2391697","0.0-342.0","l4vexvox","","","null","","<span style=""color:Black; font-size:50px;"">Casey","Casey","subject_12/1159904.bmp_pp61_L2_V1_veridical_freeview_isoFalse_fps144.mp4",""
"","","","call-function","343","2391698","0.0-343.0","l4vexvox","","","","","","","",""
"433.48000000044703","","","categorize-html","344","2394134","0.0-344.0","l4vexvox","","Which video showed <span style=""font-size:30px"">Sandy's</span> attention?","49","","","","","true"
"null","","","html-keyboard-response","345","2394638","0.0-345.0","l4vexvox",""," ","null","","","","",""
"","","","call-function","346","2394638","0.0-346.0","l4vexvox","","","","","","","",""
"null","","","html-keyboard-response","347","2396141","0.0-347.0","l4vexvox","","<span style=""color:Black; font-size:50px;"">Video 1</span>","null","","","","",""
"null","","","video-keyboard-response","348","2399217","0.0-348.0","l4vexvox","","","null","","<span style=""color:Black; font-size:50px;"">Sandy","Sandy","subject_12/1160127.bmp_pp79_L2_V1_veridical_freeview_isoFalse_fps144.mp4",""
"null","","","html-keyboard-response","349","2400719","0.0-349.0","l4vexvox","","<span style=""color:Black; font-size:50px;"">Video 2</span>","null","","","","",""
"null","","","video-keyboard-response","350","2403780","0.0-350.0","l4vexvox","","","null","","<span style=""color:Black; font-size:50px;"">Casey","Casey","subject_12/1160127.bmp_pp61_L2_V1_veridical_freeview_isoFalse_fps144.mp4",""
"","","","call-function","351","2403780","0.0-351.0","l4vexvox","","","","","","","",""
"719.0849999999627","","","categorize-html","352","2406502","0.0-352.0","l4vexvox","","Which video showed <span style=""font-size:30px"">Sandy's</span> attention?","49","","","","","true"
"null","","","html-keyboard-response","353","2407006","0.0-353.0","l4vexvox",""," ","null","","","","",""
"","","","call-function","354","2407007","0.0-354.0","l4vexvox","","","","","","","",""
"null","","","html-keyboard-response","355","2408509","0.0-355.0","l4vexvox","","<span style=""color:Black; font-size:50px;"">Video 1</span>","null","","","","",""
"null","","","video-keyboard-response","356","2411582","0.0-356.0","l4vexvox","","","null","","<span style=""color:Black; font-size:50px;"">Casey","Casey","subject_12/1592038.bmp_pp61_L2_V1_veridical_freeview_isoFalse_fps144.mp4",""
"null","","","html-keyboard-response","357","2413085","0.0-357.0","l4vexvox","","<span style=""color:Black; font-size:50px;"">Video 2</span>","null","","","","",""
"null","","","video-keyboard-response","358","2416188","0.0-358.0","l4vexvox","","","null","","<span style=""color:Black; font-size:50px;"">Sandy","Sandy","subject_12/1592038.bmp_pp79_L2_V1_veridical_freeview_isoFalse_fps144.mp4",""
"","","","call-function","359","2416189","0.0-359.0","l4vexvox","","","","","","","",""
"662.7700000000186","","","categorize-html","360","2418858","0.0-360.0","l4vexvox","","Which video showed <span style=""font-size:30px"">Sandy's</span> attention?","50","","","","","true"
"null","","","html-keyboard-response","361","2419363","0.0-361.0","l4vexvox",""," ","null","","","","",""
"","","","call-function","362","2419363","0.0-362.0","l4vexvox","","","","","","","",""
"null","","","html-keyboard-response","363","2420869","0.0-363.0","l4vexvox","","<span style=""color:Black; font-size:50px;"">Video 1</span>","null","","","","",""
"null","","","video-keyboard-response","364","2423969","0.0-364.0","l4vexvox","","","null","","<span style=""color:Black; font-size:50px;"">Sandy","Sandy","subject_12/1592251.bmp_pp79_L2_V1_veridical_freeview_isoFalse_fps144.mp4",""
"null","","","html-keyboard-response","365","2425474","0.0-365.0","l4vexvox","","<span style=""color:Black; font-size:50px;"">Video 2</span>","null","","","","",""
"null","","","video-keyboard-response","366","2428558","0.0-366.0","l4vexvox","","","null","","<span style=""color:Black; font-size:50px;"">Casey","Casey","subject_12/1592251.bmp_pp61_L2_V1_veridical_freeview_isoFalse_fps144.mp4",""
"","","","call-function","367","2428559","0.0-367.0","l4vexvox","","","","","","","",""
"772.8250000001863","","","categorize-html","368","2431334","0.0-368.0","l4vexvox","","Which video showed <span style=""font-size:30px"">Sandy's</span> attention?","49","","","","","true"
"null","","","html-keyboard-response","369","2431841","0.0-369.0","l4vexvox",""," ","null","","","","",""
"","","","call-function","370","2431841","0.0-370.0","l4vexvox","","","","","","","",""
"null","","","html-keyboard-response","371","2433345","0.0-371.0","l4vexvox","","<span style=""color:Black; font-size:50px;"">Video 1</span>","null","","","","",""
"null","","","video-keyboard-response","372","2436451","0.0-372.0","l4vexvox","","","null","","<span style=""color:Black; font-size:50px;"">Casey","Casey","subject_12/498396.bmp_pp61_L2_V1_veridical_freeview_isoFalse_fps144.mp4",""
"null","","","html-keyboard-response","373","2437954","0.0-373.0","l4vexvox","","<span style=""color:Black; font-size:50px;"">Video 2</span>","null","","","","",""
"null","","","video-keyboard-response","374","2441062","0.0-374.0","l4vexvox","","","null","","<span style=""color:Black; font-size:50px;"">Sandy","Sandy","subject_12/498396.bmp_pp79_L2_V1_veridical_freeview_isoFalse_fps144.mp4",""
"","","","call-function","375","2441062","0.0-375.0","l4vexvox","","","","","","","",""
"957.4150000000373","","","categorize-html","376","2444022","0.0-376.0","l4vexvox","","Which video showed <span style=""font-size:30px"">Sandy's</span> attention?","50","","","","","true"
"null","","","html-keyboard-response","377","2444528","0.0-377.0","l4vexvox",""," ","null","","","","",""
"","","","call-function","378","2444529","0.0-378.0","l4vexvox","","","","","","","",""
"null","","","html-keyboard-response","379","2446031","0.0-379.0","l4vexvox","","<span style=""color:Black; font-size:50px;"">Video 1</span>","null","","","","",""
"null","","","video-keyboard-response","380","2449125","0.0-380.0","l4vexvox","","","null","","<span style=""color:Black; font-size:50px;"">Sandy","Sandy","subject_12/1592747.bmp_pp79_L2_V1_veridical_freeview_isoFalse_fps144.mp4",""
"null","","","html-keyboard-response","381","2450630","0.0-381.0","l4vexvox","","<span style=""color:Black; font-size:50px;"">Video 2</span>","null","","","","",""
"null","","","video-keyboard-response","382","2453708","0.0-382.0","l4vexvox","","","null","","<span style=""color:Black; font-size:50px;"">Casey","Casey","subject_12/1592747.bmp_pp61_L2_V1_veridical_freeview_isoFalse_fps144.mp4",""
"","","","call-function","383","2453708","0.0-383.0","l4vexvox","","","","","","","",""
"1055.0450000003912","","","categorize-html","384","2456766","0.0-384.0","l4vexvox","","Which video showed <span style=""font-size:30px"">Sandy's</span> attention?","49","","","","","true"
"null","","","html-keyboard-response","385","2457270","0.0-385.0","l4vexvox",""," ","null","","","","",""
"","","","call-function","386","2457271","0.0-386.0","l4vexvox","","","","","","","",""
"null","","","html-keyboard-response","387","2458777","0.0-387.0","l4vexvox","","<span style=""color:Black; font-size:50px;"">Video 1</span>","null","","","","",""
"null","","","video-keyboard-response","388","2461881","0.0-388.0","l4vexvox","","","null","","<span style=""color:Black; font-size:50px;"">Casey","Casey","subject_12/286001.bmp_pp61_L2_V1_veridical_freeview_isoFalse_fps144.mp4",""
"null","","","html-keyboard-response","389","2463387","0.0-389.0","l4vexvox","","<span style=""color:Black; font-size:50px;"">Video 2</span>","null","","","","",""
"null","","","video-keyboard-response","390","2466447","0.0-390.0","l4vexvox","","","null","","<span style=""color:Black; font-size:50px;"">Sandy","Sandy","subject_12/286001.bmp_pp79_L2_V1_veridical_freeview_isoFalse_fps144.mp4",""
"","","","call-function","391","2466447","0.0-391.0","l4vexvox","","","","","","","",""
"964.1000000000931","","","categorize-html","392","2469414","0.0-392.0","l4vexvox","","Which video showed <span style=""font-size:30px"">Sandy's</span> attention?","49","","","","","false"
"null","","","html-keyboard-response","393","2469916","0.0-393.0","l4vexvox",""," ","null","","","","",""
"","","","call-function","394","2469916","0.0-394.0","l4vexvox","","","","","","","",""
"null","","","html-keyboard-response","395","2471419","0.0-395.0","l4vexvox","","<span style=""color:Black; font-size:50px;"">Video 1</span>","null","","","","",""
"null","","","video-keyboard-response","396","2474495","0.0-396.0","l4vexvox","","","null","","<span style=""color:Black; font-size:50px;"">Sandy","Sandy","subject_12/713380.bmp_pp79_L2_V1_veridical_freeview_isoFalse_fps144.mp4",""
"null","","","html-keyboard-response","397","2475998","0.0-397.0","l4vexvox","","<span style=""color:Black; font-size:50px;"">Video 2</span>","null","","","","",""
"null","","","video-keyboard-response","398","2479057","0.0-398.0","l4vexvox","","","null","","<span style=""color:Black; font-size:50px;"">Casey","Casey","subject_12/713380.bmp_pp61_L2_V1_veridical_freeview_isoFalse_fps144.mp4",""
"","","","call-function","399","2479058","0.0-399.0","l4vexvox","","","","","","","",""
"497.70999999996275","","","categorize-html","400","2481559","0.0-400.0","l4vexvox","","Which video showed <span style=""font-size:30px"">Sandy's</span> attention?","49","","","","","true"
"null","","","html-keyboard-response","401","2482061","0.0-401.0","l4vexvox",""," ","null","","","","",""
"","","","call-function","402","2482061","0.0-402.0","l4vexvox","","","","","","","",""
"null","","","html-keyboard-response","403","2483568","0.0-403.0","l4vexvox","","<span style=""color:Black; font-size:50px;"">Video 1</span>","null","","","","",""
"null","","","video-keyboard-response","404","2486671","0.0-404.0","l4vexvox","","","null","","<span style=""color:Black; font-size:50px;"">Sandy","Sandy","subject_12/1159889.bmp_pp79_L2_V1_veridical_freeview_isoFalse_fps144.mp4",""
"null","","","html-keyboard-response","405","2488178","0.0-405.0","l4vexvox","","<span style=""color:Black; font-size:50px;"">Video 2</span>","null","","","","",""
"null","","","video-keyboard-response","406","2491282","0.0-406.0","l4vexvox","","","null","","<span style=""color:Black; font-size:50px;"">Casey","Casey","subject_12/1159889.bmp_pp61_L2_V1_veridical_freeview_isoFalse_fps144.mp4",""
"","","","call-function","407","2491283","0.0-407.0","l4vexvox","","","","","","","",""
"576.7349999998696","","","categorize-html","408","2493865","0.0-408.0","l4vexvox","","Which video showed <span style=""font-size:30px"">Sandy's</span> attention?","49","","","","","true"
"null","","","html-keyboard-response","409","2494371","0.0-409.0","l4vexvox",""," ","null","","","","",""
"","","","call-function","410","2494372","0.0-410.0","l4vexvox","","","","","","","",""
"null","","","html-keyboard-response","411","2495875","0.0-411.0","l4vexvox","","<span style=""color:Black; font-size:50px;"">Video 1</span>","null","","","","",""
"null","","","video-keyboard-response","412","2498968","0.0-412.0","l4vexvox","","","null","","<span style=""color:Black; font-size:50px;"">Casey","Casey","subject_12/713749.bmp_pp61_L2_V1_veridical_freeview_isoFalse_fps144.mp4",""
"null","","","html-keyboard-response","413","2500470","0.0-413.0","l4vexvox","","<span style=""color:Black; font-size:50px;"">Video 2</span>","null","","","","",""
"null","","","video-keyboard-response","414","2503559","0.0-414.0","l4vexvox","","","null","","<span style=""color:Black; font-size:50px;"">Sandy","Sandy","subject_12/713749.bmp_pp79_L2_V1_veridical_freeview_isoFalse_fps144.mp4",""
"","","","call-function","415","2503560","0.0-415.0","l4vexvox","","","","","","","",""
"819.5849999999627","","","categorize-html","416","2506383","0.0-416.0","l4vexvox","","Which video showed <span style=""font-size:30px"">Sandy's</span> attention?","50","","","","","true"
"null","","","html-keyboard-response","417","2506886","0.0-417.0","l4vexvox",""," ","null","","","","",""
"3180.9950000001118","","","instructions","418","2510067","0.0-418.0","l4vexvox","[{""page_index"":0,""viewing_time"":2397.9449999998324},{""page_index"":1,""viewing_time"":410.8800000003539},{""page_index"":2,""viewing_time"":372.0599999995902}]","","","","","","",""
"4811.654999999795","","","instructions","419","2514879","0.0-419.0","l4vexvox","[{""page_index"":0,""viewing_time"":315.5950000002049},{""page_index"":1,""viewing_time"":328.8849999997765},{""page_index"":2,""viewing_time"":4167.064999999944}]","","","","","","",""
"","","","call-function","420","2514880","0.0-420.0","l4vexvox","","","","","","","",""
"null","","","html-keyboard-response","421","2516382","0.0-421.0","l4vexvox","","<span style=""color:Black; font-size:50px;"">Video 1</span>","null","","","","",""
"null","","","video-keyboard-response","422","2519444","0.0-422.0","l4vexvox","","","null","","<span style=""color:Black; font-size:50px;"">Sandy","Sandy","subject_12/713142.bmp_pp79_L2_V1_veridical_freeview_isoFalse_fps144.mp4",""
"null","","","html-keyboard-response","423","2520948","0.0-423.0","l4vexvox","","<span style=""color:Black; font-size:50px;"">Video 2</span>","null","","","","",""
"null","","","video-keyboard-response","424","2524044","0.0-424.0","l4vexvox","","","null","","<span style=""color:Black; font-size:50px;"">Casey","Casey","subject_12/713142.bmp_pp61_L2_V1_veridical_freeview_isoFalse_fps144.mp4",""
"","","","call-function","425","2524045","0.0-425.0","l4vexvox","","","","","","","",""
"790.4150000000373","","","categorize-html","426","2526842","0.0-426.0","l4vexvox","","Which video showed <span style=""font-size:30px"">Sandy's</span> attention?","49","","","","","true"
"null","","","html-keyboard-response","427","2527348","0.0-427.0","l4vexvox",""," ","null","","","","",""
"","","","call-function","428","2527349","0.0-428.0","l4vexvox","","","","","","","",""
"null","","","html-keyboard-response","429","2528853","0.0-429.0","l4vexvox","","<span style=""color:Black; font-size:50px;"">Video 1</span>","null","","","","",""
"null","","","video-keyboard-response","430","2531921","0.0-430.0","l4vexvox","","","null","","<span style=""color:Black; font-size:50px;"">Casey","Casey","subject_12/1591961.bmp_pp61_L2_V1_veridical_freeview_isoFalse_fps144.mp4",""
"null","","","html-keyboard-response","431","2533422","0.0-431.0","l4vexvox","","<span style=""color:Black; font-size:50px;"">Video 2</span>","null","","","","",""
"null","","","video-keyboard-response","432","2536527","0.0-432.0","l4vexvox","","","null","","<span style=""color:Black; font-size:50px;"">Sandy","Sandy","subject_12/1591961.bmp_pp79_L2_V1_veridical_freeview_isoFalse_fps144.mp4",""
"","","","call-function","433","2536528","0.0-433.0","l4vexvox","","","","","","","",""
"883.9750000000931","","","categorize-html","434","2539416","0.0-434.0","l4vexvox","","Which video showed <span style=""font-size:30px"">Sandy's</span> attention?","50","","","","","true"
"null","","","html-keyboard-response","435","2539918","0.0-435.0","l4vexvox",""," ","null","","","","",""
"","","","call-function","436","2539919","0.0-436.0","l4vexvox","","","","","","","",""
"null","","","html-keyboard-response","437","2541425","0.0-437.0","l4vexvox","","<span style=""color:Black; font-size:50px;"">Video 1</span>","null","","","","",""
"null","","","video-keyboard-response","438","2544486","0.0-438.0","l4vexvox","","","null","","<span style=""color:Black; font-size:50px;"">Casey","Casey","subject_12/61514.bmp_pp61_L2_V1_veridical_freeview_isoFalse_fps144.mp4",""
"null","","","html-keyboard-response","439","2545988","0.0-439.0","l4vexvox","","<span style=""color:Black; font-size:50px;"">Video 2</span>","null","","","","",""
"null","","","video-keyboard-response","440","2549056","0.0-440.0","l4vexvox","","","null","","<span style=""color:Black; font-size:50px;"">Sandy","Sandy","subject_12/61514.bmp_pp79_L2_V1_veridical_freeview_isoFalse_fps144.mp4",""
"","","","call-function","441","2549057","0.0-441.0","l4vexvox","","","","","","","",""
"858.5950000002049","","","categorize-html","442","2551922","0.0-442.0","l4vexvox","","Which video showed <span style=""font-size:30px"">Sandy's</span> attention?","50","","","","","true"
"null","","","html-keyboard-response","443","2552427","0.0-443.0","l4vexvox",""," ","null","","","","",""
"","","","call-function","444","2552427","0.0-444.0","l4vexvox","","","","","","","",""
"null","","","html-keyboard-response","445","2553931","0.0-445.0","l4vexvox","","<span style=""color:Black; font-size:50px;"">Video 1</span>","null","","","","",""
"null","","","video-keyboard-response","446","2557028","0.0-446.0","l4vexvox","","","null","","<span style=""color:Black; font-size:50px;"">Casey","Casey","subject_12/1591859.bmp_pp61_L2_V1_veridical_freeview_isoFalse_fps144.mp4",""
"null","","","html-keyboard-response","447","2558535","0.0-447.0","l4vexvox","","<span style=""color:Black; font-size:50px;"">Video 2</span>","null","","","","",""
"null","","","video-keyboard-response","448","2561629","0.0-448.0","l4vexvox","","","null","","<span style=""color:Black; font-size:50px;"">Sandy","Sandy","subject_12/1591859.bmp_pp79_L2_V1_veridical_freeview_isoFalse_fps144.mp4",""
"","","","call-function","449","2561629","0.0-449.0","l4vexvox","","","","","","","",""
"742.3549999999814","","","categorize-html","450","2564374","0.0-450.0","l4vexvox","","Which video showed <span style=""font-size:30px"">Sandy's</span> attention?","50","","","","","true"
"null","","","html-keyboard-response","451","2564876","0.0-451.0","l4vexvox",""," ","null","","","","",""
"","","","call-function","452","2564877","0.0-452.0","l4vexvox","","","","","","","",""
"null","","","html-keyboard-response","453","2566383","0.0-453.0","l4vexvox","","<span style=""color:Black; font-size:50px;"">Video 1</span>","null","","","","",""
"null","","","video-keyboard-response","454","2569483","0.0-454.0","l4vexvox","","","null","","<span style=""color:Black; font-size:50px;"">Casey","Casey","subject_12/713146.bmp_pp61_L2_V1_veridical_freeview_isoFalse_fps144.mp4",""
"null","","","html-keyboard-response","455","2570987","0.0-455.0","l4vexvox","","<span style=""color:Black; font-size:50px;"">Video 2</span>","null","","","","",""
"null","","","video-keyboard-response","456","2574094","0.0-456.0","l4vexvox","","","null","","<span style=""color:Black; font-size:50px;"">Sandy","Sandy","subject_12/713146.bmp_pp79_L2_V1_veridical_freeview_isoFalse_fps144.mp4",""
"","","","call-function","457","2574095","0.0-457.0","l4vexvox","","","","","","","",""
"692.6549999997951","","","categorize-html","458","2576791","0.0-458.0","l4vexvox","","Which video showed <span style=""font-size:30px"">Sandy's</span> attention?","50","","","","","true"
"null","","","html-keyboard-response","459","2577295","0.0-459.0","l4vexvox",""," ","null","","","","",""
"","","","call-function","460","2577295","0.0-460.0","l4vexvox","","","","","","","",""
"null","","","html-keyboard-response","461","2578799","0.0-461.0","l4vexvox","","<span style=""color:Black; font-size:50px;"">Video 1</span>","null","","","","",""
"null","","","video-keyboard-response","462","2581901","0.0-462.0","l4vexvox","","","null","","<span style=""color:Black; font-size:50px;"">Sandy","Sandy","subject_12/1160155.bmp_pp79_L2_V1_veridical_freeview_isoFalse_fps144.mp4",""
"null","","","html-keyboard-response","463","2583405","0.0-463.0","l4vexvox","","<span style=""color:Black; font-size:50px;"">Video 2</span>","null","","","","",""
"null","","","video-keyboard-response","464","2586464","0.0-464.0","l4vexvox","","","null","","<span style=""color:Black; font-size:50px;"">Casey","Casey","subject_12/1160155.bmp_pp61_L2_V1_veridical_freeview_isoFalse_fps144.mp4",""
"","","","call-function","465","2586464","0.0-465.0","l4vexvox","","","","","","","",""
"931.4350000000559","","","categorize-html","466","2589400","0.0-466.0","l4vexvox","","Which video showed <span style=""font-size:30px"">Sandy's</span> attention?","49","","","","","true"
"null","","","html-keyboard-response","467","2589902","0.0-467.0","l4vexvox",""," ","null","","","","",""
"","","","call-function","468","2589903","0.0-468.0","l4vexvox","","","","","","","",""
"null","","","html-keyboard-response","469","2591408","0.0-469.0","l4vexvox","","<span style=""color:Black; font-size:50px;"">Video 1</span>","null","","","","",""
"null","","","video-keyboard-response","470","2594511","0.0-470.0","l4vexvox","","","null","","<span style=""color:Black; font-size:50px;"">Casey","Casey","subject_12/1592044.bmp_pp61_L2_V1_veridical_freeview_isoFalse_fps144.mp4",""
"null","","","html-keyboard-response","471","2596017","0.0-471.0","l4vexvox","","<span style=""color:Black; font-size:50px;"">Video 2</span>","null","","","","",""
"null","","","video-keyboard-response","472","2599103","0.0-472.0","l4vexvox","","","null","","<span style=""color:Black; font-size:50px;"">Sandy","Sandy","subject_12/1592044.bmp_pp79_L2_V1_veridical_freeview_isoFalse_fps144.mp4",""
"","","","call-function","473","2599103","0.0-473.0","l4vexvox","","","","","","","",""
"740.3599999998696","","","categorize-html","474","2601846","0.0-474.0","l4vexvox","","Which video showed <span style=""font-size:30px"">Sandy's</span> attention?","50","","","","","true"
"null","","","html-keyboard-response","475","2602350","0.0-475.0","l4vexvox",""," ","null","","","","",""
"","","","call-function","476","2602351","0.0-476.0","l4vexvox","","","","","","","",""
"null","","","html-keyboard-response","477","2603853","0.0-477.0","l4vexvox","","<span style=""color:Black; font-size:50px;"">Video 1</span>","null","","","","",""
"null","","","video-keyboard-response","478","2606948","0.0-478.0","l4vexvox","","","null","","<span style=""color:Black; font-size:50px;"">Sandy","Sandy","subject_12/498153.bmp_pp79_L2_V1_veridical_freeview_isoFalse_fps144.mp4",""
"null","","","html-keyboard-response","479","2608453","0.0-479.0","l4vexvox","","<span style=""color:Black; font-size:50px;"">Video 2</span>","null","","","","",""
"null","","","video-keyboard-response","480","2611530","0.0-480.0","l4vexvox","","","null","","<span style=""color:Black; font-size:50px;"">Casey","Casey","subject_12/498153.bmp_pp61_L2_V1_veridical_freeview_isoFalse_fps144.mp4",""
"","","","call-function","481","2611531","0.0-481.0","l4vexvox","","","","","","","",""
"792.6299999998882","","","categorize-html","482","2614328","0.0-482.0","l4vexvox","","Which video showed <span style=""font-size:30px"">Sandy's</span> attention?","50","","","","","false"
"null","","","html-keyboard-response","483","2614832","0.0-483.0","l4vexvox",""," ","null","","","","",""
"","","","call-function","484","2614832","0.0-484.0","l4vexvox","","","","","","","",""
"null","","","html-keyboard-response","485","2616338","0.0-485.0","l4vexvox","","<span style=""color:Black; font-size:50px;"">Video 1</span>","null","","","","",""
"null","","","video-keyboard-response","486","2619416","0.0-486.0","l4vexvox","","","null","","<span style=""color:Black; font-size:50px;"">Sandy","Sandy","subject_12/1591954.bmp_pp79_L2_V1_veridical_freeview_isoFalse_fps144.mp4",""
"null","","","html-keyboard-response","487","2620919","0.0-487.0","l4vexvox","","<span style=""color:Black; font-size:50px;"">Video 2</span>","null","","","","",""
"null","","","video-keyboard-response","488","2624025","0.0-488.0","l4vexvox","","","null","","<span style=""color:Black; font-size:50px;"">Casey","Casey","subject_12/1591954.bmp_pp61_L2_V1_veridical_freeview_isoFalse_fps144.mp4",""
"","","","call-function","489","2624026","0.0-489.0","l4vexvox","","","","","","","",""
"1521.7450000001118","","","categorize-html","490","2627553","0.0-490.0","l4vexvox","","Which video showed <span style=""font-size:30px"">Sandy's</span> attention?","49","","","","","true"
"null","","","html-keyboard-response","491","2628057","0.0-491.0","l4vexvox",""," ","null","","","","",""
"","","","call-function","492","2628058","0.0-492.0","l4vexvox","","","","","","","",""
"null","","","html-keyboard-response","493","2629560","0.0-493.0","l4vexvox","","<span style=""color:Black; font-size:50px;"">Video 1</span>","null","","","","",""
"null","","","video-keyboard-response","494","2632653","0.0-494.0","l4vexvox","","","null","","<span style=""color:Black; font-size:50px;"">Sandy","Sandy","subject_12/713112.bmp_pp79_L2_V1_veridical_freeview_isoFalse_fps144.mp4",""
"null","","","html-keyboard-response","495","2634157","0.0-495.0","l4vexvox","","<span style=""color:Black; font-size:50px;"">Video 2</span>","null","","","","",""
"null","","","video-keyboard-response","496","2637252","0.0-496.0","l4vexvox","","","null","","<span style=""color:Black; font-size:50px;"">Casey","Casey","subject_12/713112.bmp_pp61_L2_V1_veridical_freeview_isoFalse_fps144.mp4",""
"","","","call-function","497","2637252","0.0-497.0","l4vexvox","","","","","","","",""
"991.4499999997206","","","categorize-html","498","2640247","0.0-498.0","l4vexvox","","Which video showed <span style=""font-size:30px"">Sandy's</span> attention?","50","","","","","false"
"null","","","html-keyboard-response","499","2640752","0.0-499.0","l4vexvox",""," ","null","","","","",""
"3019.6750000002794","","","instructions","500","2643772","0.0-500.0","l4vexvox","[{""page_index"":0,""viewing_time"":2307.5500000002794},{""page_index"":1,""viewing_time"":382.875},{""page_index"":2,""viewing_time"":329.1400000001304}]","","","","","","",""
"861.6049999999814","","","instructions","501","2644635","0.0-501.0","l4vexvox","[{""page_index"":0,""viewing_time"":233.32500000018626},{""page_index"":1,""viewing_time"":224.43999999994412},{""page_index"":2,""viewing_time"":403.7299999999814}]","","","","","","",""
"","","","call-function","502","2644635","0.0-502.0","l4vexvox","","","","","","","",""
"null","","","html-keyboard-response","503","2646137","0.0-503.0","l4vexvox","","<span style=""color:Black; font-size:50px;"">Video 1</span>","null","","","","",""
"null","","","video-keyboard-response","504","2649246","0.0-504.0","l4vexvox","","","null","","<span style=""color:Black; font-size:50px;"">Sandy","Sandy","subject_12/498149.bmp_pp79_L2_V1_veridical_freeview_isoFalse_fps144.mp4",""
"null","","","html-keyboard-response","505","2650750","0.0-505.0","l4vexvox","","<span style=""color:Black; font-size:50px;"">Video 2</span>","null","","","","",""
"null","","","video-keyboard-response","506","2653829","0.0-506.0","l4vexvox","","","null","","<span style=""color:Black; font-size:50px;"">Casey","Casey","subject_12/498149.bmp_pp61_L2_V1_veridical_freeview_isoFalse_fps144.mp4",""
"","","","call-function","507","2653830","0.0-507.0","l4vexvox","","","","","","","",""
"773.3799999998882","","","categorize-html","508","2656607","0.0-508.0","l4vexvox","","Which video showed <span style=""font-size:30px"">Sandy's</span> attention?","50","","","","","false"
"null","","","html-keyboard-response","509","2657114","0.0-509.0","l4vexvox",""," ","null","","","","",""
"","","","call-function","510","2657114","0.0-510.0","l4vexvox","","","","","","","",""
"null","","","html-keyboard-response","511","2658618","0.0-511.0","l4vexvox","","<span style=""color:Black; font-size:50px;"">Video 1</span>","null","","","","",""
"null","","","video-keyboard-response","512","2661708","0.0-512.0","l4vexvox","","","null","","<span style=""color:Black; font-size:50px;"">Casey","Casey","subject_12/1592620.bmp_pp61_L2_V1_veridical_freeview_isoFalse_fps144.mp4",""
"null","","","html-keyboard-response","513","2663211","0.0-513.0","l4vexvox","","<span style=""color:Black; font-size:50px;"">Video 2</span>","null","","","","",""
"null","","","video-keyboard-response","514","2666278","0.0-514.0","l4vexvox","","","null","","<span style=""color:Black; font-size:50px;"">Sandy","Sandy","subject_12/1592620.bmp_pp79_L2_V1_veridical_freeview_isoFalse_fps144.mp4",""
"","","","call-function","515","2666279","0.0-515.0","l4vexvox","","","","","","","",""
"1149.0150000001304","","","categorize-html","516","2669433","0.0-516.0","l4vexvox","","Which video showed <span style=""font-size:30px"">Sandy's</span> attention?","50","","","","","true"
"null","","","html-keyboard-response","517","2669938","0.0-517.0","l4vexvox",""," ","null","","","","",""
"","","","call-function","518","2669939","0.0-518.0","l4vexvox","","","","","","","",""
"null","","","html-keyboard-response","519","2671440","0.0-519.0","l4vexvox","","<span style=""color:Black; font-size:50px;"">Video 1</span>","null","","","","",""
"null","","","video-keyboard-response","520","2674547","0.0-520.0","l4vexvox","","","null","","<span style=""color:Black; font-size:50px;"">Sandy","Sandy","subject_12/713328.bmp_pp79_L2_V1_veridical_freeview_isoFalse_fps144.mp4",""
"null","","","html-keyboard-response","521","2676050","0.0-521.0","l4vexvox","","<span style=""color:Black; font-size:50px;"">Video 2</span>","null","","","","",""
"null","","","video-keyboard-response","522","2679138","0.0-522.0","l4vexvox","","","null","","<span style=""color:Black; font-size:50px;"">Casey","Casey","subject_12/713328.bmp_pp61_L2_V1_veridical_freeview_isoFalse_fps144.mp4",""
"","","","call-function","523","2679138","0.0-523.0","l4vexvox","","","","","","","",""
"969.6000000000931","","","categorize-html","524","2682112","0.0-524.0","l4vexvox","","Which video showed <span style=""font-size:30px"">Sandy's</span> attention?","49","","","","","true"
"null","","","html-keyboard-response","525","2682619","0.0-525.0","l4vexvox",""," ","null","","","","",""
"","","","call-function","526","2682619","0.0-526.0","l4vexvox","","","","","","","",""
"null","","","html-keyboard-response","527","2684121","0.0-527.0","l4vexvox","","<span style=""color:Black; font-size:50px;"">Video 1</span>","null","","","","",""
"null","","","video-keyboard-response","528","2687182","0.0-528.0","l4vexvox","","","null","","<span style=""color:Black; font-size:50px;"">Casey","Casey","subject_12/1159575.bmp_pp61_L2_V1_veridical_freeview_isoFalse_fps144.mp4",""
"null","","","html-keyboard-response","529","2688689","0.0-529.0","l4vexvox","","<span style=""color:Black; font-size:50px;"">Video 2</span>","null","","","","",""
"null","","","video-keyboard-response","530","2691772","0.0-530.0","l4vexvox","","","null","","<span style=""color:Black; font-size:50px;"">Sandy","Sandy","subject_12/1159575.bmp_pp79_L2_V1_veridical_freeview_isoFalse_fps144.mp4",""
"","","","call-function","531","2691772","0.0-531.0","l4vexvox","","","","","","","",""
"591.25","","","categorize-html","532","2694366","0.0-532.0","l4vexvox","","Which video showed <span style=""font-size:30px"">Sandy's</span> attention?","50","","","","","true"
"null","","","html-keyboard-response","533","2694870","0.0-533.0","l4vexvox",""," ","null","","","","",""
"","","","call-function","534","2694870","0.0-534.0","l4vexvox","","","","","","","",""
"null","","","html-keyboard-response","535","2696374","0.0-535.0","l4vexvox","","<span style=""color:Black; font-size:50px;"">Video 1</span>","null","","","","",""
"null","","","video-keyboard-response","536","2699480","0.0-536.0","l4vexvox","","","null","","<span style=""color:Black; font-size:50px;"">Sandy","Sandy","subject_12/1159329.bmp_pp79_L2_V1_veridical_freeview_isoFalse_fps144.mp4",""
"null","","","html-keyboard-response","537","2700985","0.0-537.0","l4vexvox","","<span style=""color:Black; font-size:50px;"">Video 2</span>","null","","","","",""
"null","","","video-keyboard-response","538","2704084","0.0-538.0","l4vexvox","","","null","","<span style=""color:Black; font-size:50px;"">Casey","Casey","subject_12/1159329.bmp_pp61_L2_V1_veridical_freeview_isoFalse_fps144.mp4",""
"","","","call-function","539","2704084","0.0-539.0","l4vexvox","","","","","","","",""
"527.2849999996834","","","categorize-html","540","2706619","0.0-540.0","l4vexvox","","Which video showed <span style=""font-size:30px"">Sandy's</span> attention?","49","","","","","true"
"null","","","html-keyboard-response","541","2707125","0.0-541.0","l4vexvox",""," ","null","","","","",""
"","","","call-function","542","2707126","0.0-542.0","l4vexvox","","","","","","","",""
"null","","","html-keyboard-response","543","2708627","0.0-543.0","l4vexvox","","<span style=""color:Black; font-size:50px;"">Video 1</span>","null","","","","",""
"null","","","video-keyboard-response","544","2711726","0.0-544.0","l4vexvox","","","null","","<span style=""color:Black; font-size:50px;"">Sandy","Sandy","subject_12/1160049.bmp_pp79_L2_V1_veridical_freeview_isoFalse_fps144.mp4",""
"null","","","html-keyboard-response","545","2713230","0.0-545.0","l4vexvox","","<span style=""color:Black; font-size:50px;"">Video 2</span>","null","","","","",""
"null","","","video-keyboard-response","546","2716318","0.0-546.0","l4vexvox","","","null","","<span style=""color:Black; font-size:50px;"">Casey","Casey","subject_12/1160049.bmp_pp61_L2_V1_veridical_freeview_isoFalse_fps144.mp4",""
"","","","call-function","547","2716318","0.0-547.0","l4vexvox","","","","","","","",""
"2085.5849999999627","","","categorize-html","548","2720410","0.0-548.0","l4vexvox","","Which video showed <span style=""font-size:30px"">Sandy's</span> attention?","49","","","","","true"
"null","","","html-keyboard-response","549","2720914","0.0-549.0","l4vexvox",""," ","null","","","","",""
"","","","call-function","550","2720914","0.0-550.0","l4vexvox","","","","","","","",""
"null","","","html-keyboard-response","551","2722417","0.0-551.0","l4vexvox","","<span style=""color:Black; font-size:50px;"">Video 1</span>","null","","","","",""
"null","","","video-keyboard-response","552","2725495","0.0-552.0","l4vexvox","","","null","","<span style=""color:Black; font-size:50px;"">Casey","Casey","subject_12/498253.bmp_pp61_L2_V1_veridical_freeview_isoFalse_fps144.mp4",""
"null","","","html-keyboard-response","553","2726999","0.0-553.0","l4vexvox","","<span style=""color:Black; font-size:50px;"">Video 2</span>","null","","","","",""
"null","","","video-keyboard-response","554","2730065","0.0-554.0","l4vexvox","","","null","","<span style=""color:Black; font-size:50px;"">Sandy","Sandy","subject_12/498253.bmp_pp79_L2_V1_veridical_freeview_isoFalse_fps144.mp4",""
"","","","call-function","555","2730066","0.0-555.0","l4vexvox","","","","","","","",""
"978.5800000000745","","","categorize-html","556","2733048","0.0-556.0","l4vexvox","","Which video showed <span style=""font-size:30px"">Sandy's</span> attention?","50","","","","","true"
"null","","","html-keyboard-response","557","2733550","0.0-557.0","l4vexvox",""," ","null","","","","",""
"","","","call-function","558","2733550","0.0-558.0","l4vexvox","","","","","","","",""
"null","","","html-keyboard-response","559","2735055","0.0-559.0","l4vexvox","","<span style=""color:Black; font-size:50px;"">Video 1</span>","null","","","","",""
"null","","","video-keyboard-response","560","2738160","0.0-560.0","l4vexvox","","","null","","<span style=""color:Black; font-size:50px;"">Casey","Casey","subject_12/1159897.bmp_pp61_L2_V1_veridical_freeview_isoFalse_fps144.mp4",""
"null","","","html-keyboard-response","561","2739663","0.0-561.0","l4vexvox","","<span style=""color:Black; font-size:50px;"">Video 2</span>","null","","","","",""
"null","","","video-keyboard-response","562","2742724","0.0-562.0","l4vexvox","","","null","","<span style=""color:Black; font-size:50px;"">Sandy","Sandy","subject_12/1159897.bmp_pp79_L2_V1_veridical_freeview_isoFalse_fps144.mp4",""
"","","","call-function","563","2742724","0.0-563.0","l4vexvox","","","","","","","",""
"639.7400000002235","","","categorize-html","564","2745367","0.0-564.0","l4vexvox","","Which video showed <span style=""font-size:30px"">Sandy's</span> attention?","49","","","","","false"
"null","","","html-keyboard-response","565","2745870","0.0-565.0","l4vexvox",""," ","null","","","","",""
"","","","call-function","566","2745870","0.0-566.0","l4vexvox","","","","","","","",""
"null","","","html-keyboard-response","567","2747374","0.0-567.0","l4vexvox","","<span style=""color:Black; font-size:50px;"">Video 1</span>","null","","","","",""
"null","","","video-keyboard-response","568","2750439","0.0-568.0","l4vexvox","","","null","","<span style=""color:Black; font-size:50px;"">Casey","Casey","subject_12/1592362.bmp_pp61_L2_V1_veridical_freeview_isoFalse_fps144.mp4",""
"null","","","html-keyboard-response","569","2751946","0.0-569.0","l4vexvox","","<span style=""color:Black; font-size:50px;"">Video 2</span>","null","","","","",""
"null","","","video-keyboard-response","570","2755031","0.0-570.0","l4vexvox","","","null","","<span style=""color:Black; font-size:50px;"">Sandy","Sandy","subject_12/1592362.bmp_pp79_L2_V1_veridical_freeview_isoFalse_fps144.mp4",""
"","","","call-function","571","2755031","0.0-571.0","l4vexvox","","","","","","","",""
"588.6000000000931","","","categorize-html","572","2757623","0.0-572.0","l4vexvox","","Which video showed <span style=""font-size:30px"">Sandy's</span> attention?","50","","","","","true"
"null","","","html-keyboard-response","573","2758125","0.0-573.0","l4vexvox",""," ","null","","","","",""
"","","","call-function","574","2758126","0.0-574.0","l4vexvox","","","","","","","",""
"null","","","html-keyboard-response","575","2759630","0.0-575.0","l4vexvox","","<span style=""color:Black; font-size:50px;"">Video 1</span>","null","","","","",""
"null","","","video-keyboard-response","576","2762734","0.0-576.0","l4vexvox","","","null","","<span style=""color:Black; font-size:50px;"">Casey","Casey","subject_12/1160227.bmp_pp61_L2_V1_veridical_freeview_isoFalse_fps144.mp4",""
"null","","","html-keyboard-response","577","2764239","0.0-577.0","l4vexvox","","<span style=""color:Black; font-size:50px;"">Video 2</span>","null","","","","",""
"null","","","video-keyboard-response","578","2767337","0.0-578.0","l4vexvox","","","null","","<span style=""color:Black; font-size:50px;"">Sandy","Sandy","subject_12/1160227.bmp_pp79_L2_V1_veridical_freeview_isoFalse_fps144.mp4",""
"","","","call-function","579","2767338","0.0-579.0","l4vexvox","","","","","","","",""
"761.8199999998324","","","categorize-html","580","2770107","0.0-580.0","l4vexvox","","Which video showed <span style=""font-size:30px"">Sandy's</span> attention?","50","","","","","true"
"null","","","html-keyboard-response","581","2770609","0.0-581.0","l4vexvox",""," ","null","","","","",""
"2856.5800000000745","","","instructions","582","2773467","0.0-582.0","l4vexvox","[{""page_index"":0,""viewing_time"":2856.4599999999627}]","","","","","","",""
"1237.410000000149","","","instructions","583","2774705","0.0-583.0","l4vexvox","[{""page_index"":0,""viewing_time"":1237.3050000001676}]","","","","","","",""
"177352.28500000015","{""Q0"":""Pretty fun, felt like a game, it felt kind of automatic especially towards the end, like I would already have my guess after the first video.""}","","survey-text","584","2952063","0.0-584.0","l4vexvox","","","","","","","",""
"147134.11500000022","{""Q0"":""My brain kind of automatically made a traced out path of the white dot that was very easy to visualize so I just compared the two paths, and Sally (i think that was the name?) tended to have a shorter path that was concentrated in the middle/on more prominent objects, she spent more time looking at things whereas Casey zoomed around the entire image including the border""}","","survey-text","585","3099202","0.0-585.0","l4vexvox","","","","","","","",""
"83110.56999999983","{""Q0"":""Honestly the key clicking, I always had a tiny moment of doubt that I was hitting the opposite key or that I got them mixed up""}","","survey-text","586","3182316","0.0-586.0","l4vexvox","","","","","","","",""
"1116.9350000000559","","","instructions","587","3183434","0.0-587.0","l4vexvox","[{""page_index"":0,""viewing_time"":1116.8149999999441}]","","","","","","",""
"133337.1700000004","{""Experimenter_end"":[""Printed ID# l4vexvox on consent form"",""Given subject SONA credit or payment"",""Given the subject debrief form""]}","[0]","survey-multi-select","588","3316775","0.0-588.0","l4vexvox","","","","","","","",""
