"rt","responses","question_order","trial_type","trial_index","time_elapsed","internal_node_id","ID","view_history","stimulus","key_press","value","agent","condition","image","correct"
"88974.98","{""Experimenter"":[""Confirmed subject's identity (ID card)"",""Confirmed normal or corrected-to-normal vision"",""Obtained consent (signature and date)"",""Checked the test room lighting"",""Checked computer screen lighting"",""Checked distance from screen to chin rest (50cm)"",""Cleaned and adjusted chin rest"",""Counterbalanced the order of the tasks"",""Opened the experiment in Firefox"",""Made the experiment full screen"",""Encouraged subject to silence phone, put away distractors, etc.""]}","[0]","survey-multi-select","0","88982","0.0-0.0","emepc1uo","","","","","","","",""
"40911.115000000005","","","instructions","1","129894","0.0-1.0","emepc1uo","[{""page_index"":0,""viewing_time"":40910.96500000001}]","","","","","","",""
"8708.26000000001","{""Age"":13,""Sex"":1,""Gender"":1}","[0,1,2]","survey-likert","2","138604","0.0-2.0","emepc1uo","","","","","","","",""
"3337.6599999999744","","","instructions","3","141943","0.0-3.0","emepc1uo","[{""page_index"":0,""viewing_time"":3337.554999999993}]","","","","","","",""
"15461.86500000002","","","instructions","4","157405","0.0-4.0","emepc1uo","[{""page_index"":0,""viewing_time"":1939.8400000000256},{""page_index"":1,""viewing_time"":7004.094999999972},{""page_index"":2,""viewing_time"":6517.805000000022}]","","","","","","",""
"3681.4099999999744","","","instructions","5","161087","0.0-5.0","emepc1uo","[{""page_index"":0,""viewing_time"":3681.304999999993}]","","","","","","",""
"null","","","video-keyboard-response","6","164163","0.0-6.0","emepc1uo","","","null","","","","",""
"39414.88500000001","","","instructions","7","203578","0.0-7.0","emepc1uo","[{""page_index"":0,""viewing_time"":3919.3000000000175},{""page_index"":1,""viewing_time"":85.47999999998137},{""page_index"":2,""viewing_time"":2057.765000000014},{""page_index"":3,""viewing_time"":7691.929999999993},{""page_index"":4,""viewing_time"":6297.065000000002},{""page_index"":5,""viewing_time"":10629.994999999995},{""page_index"":6,""viewing_time"":8621.170000000013},{""page_index"":7,""viewing_time"":112.0449999999837}]","","","","","","",""
"9478.630000000005","","","instructions","8","213057","0.0-8.0","emepc1uo","[{""page_index"":0,""viewing_time"":9478.390000000014}]","","","","","","",""
"2559.304999999993","","","instructions","9","215617","0.0-9.0","emepc1uo","[{""page_index"":0,""viewing_time"":2559.194999999978}]","","","","","","",""
"","","","call-function","10","215617","0.0-10.0","emepc1uo","","","","","","","",""
"null","","","html-keyboard-response","11","217125","0.0-11.0","emepc1uo","","<span style=""color:Black; font-size:50px;"">Video 1</span>","null","","","","",""
"null","","","video-keyboard-response","12","220216","0.0-12.0","emepc1uo","","","null","","<span style=""color:Black; font-size:50px;"">Casey","Casey","STIM_SET_13/285610.bmp_pp60_L3_V1_veridical_freeview_isoFalse_fps144.mp4",""
"null","","","html-keyboard-response","13","221723","0.0-13.0","emepc1uo","","<span style=""color:Black; font-size:50px;"">Video 2</span>","null","","","","",""
"null","","","video-keyboard-response","14","224808","0.0-14.0","emepc1uo","","","null","","<span style=""color:Black; font-size:50px;"">Sandy","Sandy","STIM_SET_13/285610.bmp_pp73_L3_V1_veridical_freeview_isoFalse_fps144.mp4",""
"","","","call-function","15","224809","0.0-15.0","emepc1uo","","","","","","","",""
"5511.890000000014","","","categorize-html","16","232325","0.0-16.0","emepc1uo","","Which video showed <span style=""font-size:30px"">Sandy's</span> attention?","49","","","","","false"
"null","","","html-keyboard-response","17","232833","0.0-17.0","emepc1uo",""," ","null","","","","",""
"","","","call-function","18","232834","0.0-18.0","emepc1uo","","","","","","","",""
"null","","","html-keyboard-response","19","234336","0.0-19.0","emepc1uo","","<span style=""color:Black; font-size:50px;"">Video 1</span>","null","","","","",""
"null","","","video-keyboard-response","20","237423","0.0-20.0","emepc1uo","","","null","","<span style=""color:Black; font-size:50px;"">Casey","Casey","STIM_SET_13/61537.bmp_pp60_L3_V1_veridical_freeview_isoFalse_fps144.mp4",""
"null","","","html-keyboard-response","21","238930","0.0-21.0","emepc1uo","","<span style=""color:Black; font-size:50px;"">Video 2</span>","null","","","","",""
"null","","","video-keyboard-response","22","242024","0.0-22.0","emepc1uo","","","null","","<span style=""color:Black; font-size:50px;"">Sandy","Sandy","STIM_SET_13/61537.bmp_pp73_L3_V1_veridical_freeview_isoFalse_fps144.mp4",""
"","","","call-function","23","242024","0.0-23.0","emepc1uo","","","","","","","",""
"6856.8249999999825","","","categorize-html","24","250888","0.0-24.0","emepc1uo","","Which video showed <span style=""font-size:30px"">Sandy's</span> attention?","50","","","","","true"
"null","","","html-keyboard-response","25","251390","0.0-25.0","emepc1uo",""," ","null","","","","",""
"","","","call-function","26","251390","0.0-26.0","emepc1uo","","","","","","","",""
"null","","","html-keyboard-response","27","252895","0.0-27.0","emepc1uo","","<span style=""color:Black; font-size:50px;"">Video 1</span>","null","","","","",""
"null","","","video-keyboard-response","28","255977","0.0-28.0","emepc1uo","","","null","","<span style=""color:Black; font-size:50px;"">Sandy","Sandy","STIM_SET_13/713796.bmp_pp73_L3_V1_veridical_freeview_isoFalse_fps144.mp4",""
"null","","","html-keyboard-response","29","257485","0.0-29.0","emepc1uo","","<span style=""color:Black; font-size:50px;"">Video 2</span>","null","","","","",""
"null","","","video-keyboard-response","30","260581","0.0-30.0","emepc1uo","","","null","","<span style=""color:Black; font-size:50px;"">Casey","Casey","STIM_SET_13/713796.bmp_pp60_L3_V1_veridical_freeview_isoFalse_fps144.mp4",""
"","","","call-function","31","260582","0.0-31.0","emepc1uo","","","","","","","",""
"2187.195000000007","","","categorize-html","32","264772","0.0-32.0","emepc1uo","","Which video showed <span style=""font-size:30px"">Sandy's</span> attention?","50","","","","","false"
"null","","","html-keyboard-response","33","265273","0.0-33.0","emepc1uo",""," ","null","","","","",""
"","","","call-function","34","265273","0.0-34.0","emepc1uo","","","","","","","",""
"null","","","html-keyboard-response","35","266775","0.0-35.0","emepc1uo","","<span style=""color:Black; font-size:50px;"">Video 1</span>","null","","","","",""
"null","","","video-keyboard-response","36","269886","0.0-36.0","emepc1uo","","","null","","<span style=""color:Black; font-size:50px;"">Casey","Casey","STIM_SET_13/1592241.bmp_pp60_L3_V1_veridical_freeview_isoFalse_fps144.mp4",""
"null","","","html-keyboard-response","37","271393","0.0-37.0","emepc1uo","","<span style=""color:Black; font-size:50px;"">Video 2</span>","null","","","","",""
"null","","","video-keyboard-response","38","274483","0.0-38.0","emepc1uo","","","null","","<span style=""color:Black; font-size:50px;"">Sandy","Sandy","STIM_SET_13/1592241.bmp_pp73_L3_V1_veridical_freeview_isoFalse_fps144.mp4",""
"","","","call-function","39","274483","0.0-39.0","emepc1uo","","","","","","","",""
"6245.554999999993","","","categorize-html","40","282733","0.0-40.0","emepc1uo","","Which video showed <span style=""font-size:30px"">Sandy's</span> attention?","49","","","","","false"
"null","","","html-keyboard-response","41","283239","0.0-41.0","emepc1uo",""," ","null","","","","",""
"","","","call-function","42","283239","0.0-42.0","emepc1uo","","","","","","","",""
"null","","","html-keyboard-response","43","284745","0.0-43.0","emepc1uo","","<span style=""color:Black; font-size:50px;"">Video 1</span>","null","","","","",""
"null","","","video-keyboard-response","44","287857","0.0-44.0","emepc1uo","","","null","","<span style=""color:Black; font-size:50px;"">Casey","Casey","STIM_SET_13/1159515.bmp_pp60_L3_V1_veridical_freeview_isoFalse_fps144.mp4",""
"null","","","html-keyboard-response","45","289362","0.0-45.0","emepc1uo","","<span style=""color:Black; font-size:50px;"">Video 2</span>","null","","","","",""
"null","","","video-keyboard-response","46","292458","0.0-46.0","emepc1uo","","","null","","<span style=""color:Black; font-size:50px;"">Sandy","Sandy","STIM_SET_13/1159515.bmp_pp73_L3_V1_veridical_freeview_isoFalse_fps144.mp4",""
"","","","call-function","47","292459","0.0-47.0","emepc1uo","","","","","","","",""
"5270.434999999998","","","categorize-html","48","299732","0.0-48.0","emepc1uo","","Which video showed <span style=""font-size:30px"">Sandy's</span> attention?","50","","","","","true"
"null","","","html-keyboard-response","49","300235","0.0-49.0","emepc1uo",""," ","null","","","","",""
"","","","call-function","50","300235","0.0-50.0","emepc1uo","","","","","","","",""
"null","","","html-keyboard-response","51","301739","0.0-51.0","emepc1uo","","<span style=""color:Black; font-size:50px;"">Video 1</span>","null","","","","",""
"null","","","video-keyboard-response","52","304828","0.0-52.0","emepc1uo","","","null","","<span style=""color:Black; font-size:50px;"">Casey","Casey","STIM_SET_13/497926.bmp_pp60_L3_V1_veridical_freeview_isoFalse_fps144.mp4",""
"null","","","html-keyboard-response","53","306335","0.0-53.0","emepc1uo","","<span style=""color:Black; font-size:50px;"">Video 2</span>","null","","","","",""
"null","","","video-keyboard-response","54","309398","0.0-54.0","emepc1uo","","","null","","<span style=""color:Black; font-size:50px;"">Sandy","Sandy","STIM_SET_13/497926.bmp_pp73_L3_V1_veridical_freeview_isoFalse_fps144.mp4",""
"","","","call-function","55","309398","0.0-55.0","emepc1uo","","","","","","","",""
"1130.655000000028","","","categorize-html","56","312536","0.0-56.0","emepc1uo","","Which video showed <span style=""font-size:30px"">Sandy's</span> attention?","50","","","","","true"
"null","","","html-keyboard-response","57","313038","0.0-57.0","emepc1uo",""," ","null","","","","",""
"","","","call-function","58","313039","0.0-58.0","emepc1uo","","","","","","","",""
"null","","","html-keyboard-response","59","314544","0.0-59.0","emepc1uo","","<span style=""color:Black; font-size:50px;"">Video 1</span>","null","","","","",""
"null","","","video-keyboard-response","60","317652","0.0-60.0","emepc1uo","","","null","","<span style=""color:Black; font-size:50px;"">Sandy","Sandy","STIM_SET_13///1160019.bmp_pp73_L3_V1_veridical_freeview_isoFalse_fps144.mp4",""
"null","","","html-keyboard-response","61","319158","0.0-61.0","emepc1uo","","<span style=""color:Black; font-size:50px;"">Video 2</span>","null","","","","",""
"null","","","video-keyboard-response","62","322247","0.0-62.0","emepc1uo","","","null","","<span style=""color:Black; font-size:50px;"">Casey","Casey","STIM_SET_13/1160019.bmp_pp60_L3_V1_veridical_freeview_isoFalse_fps144.mp4",""
"","","","call-function","63","322248","0.0-63.0","emepc1uo","","","","","","","",""
"3553.304999999993","","","categorize-html","64","327807","0.0-64.0","emepc1uo","","Which video showed <span style=""font-size:30px"">Sandy's</span> attention?","49","","","","","true"
"null","","","html-keyboard-response","65","328308","0.0-65.0","emepc1uo",""," ","null","","","","",""
"","","","call-function","66","328309","0.0-66.0","emepc1uo","","","","","","","",""
"null","","","html-keyboard-response","67","329813","0.0-67.0","emepc1uo","","<span style=""color:Black; font-size:50px;"">Video 1</span>","null","","","","",""
"null","","","video-keyboard-response","68","332890","0.0-68.0","emepc1uo","","","null","","<span style=""color:Black; font-size:50px;"">Casey","Casey","STIM_SET_13/1592150.bmp_pp60_L3_V1_veridical_freeview_isoFalse_fps144.mp4",""
"null","","","html-keyboard-response","69","334393","0.0-69.0","emepc1uo","","<span style=""color:Black; font-size:50px;"">Video 2</span>","null","","","","",""
"null","","","video-keyboard-response","70","337491","0.0-70.0","emepc1uo","","","null","","<span style=""color:Black; font-size:50px;"">Sandy","Sandy","STIM_SET_13/1592150.bmp_pp73_L3_V1_veridical_freeview_isoFalse_fps144.mp4",""
"","","","call-function","71","337492","0.0-71.0","emepc1uo","","","","","","","",""
"3245.0250000000233","","","categorize-html","72","342744","0.0-72.0","emepc1uo","","Which video showed <span style=""font-size:30px"">Sandy's</span> attention?","50","","","","","true"
"null","","","html-keyboard-response","73","343251","0.0-73.0","emepc1uo",""," ","null","","","","",""
"","","","call-function","74","343251","0.0-74.0","emepc1uo","","","","","","","",""
"null","","","html-keyboard-response","75","344758","0.0-75.0","emepc1uo","","<span style=""color:Black; font-size:50px;"">Video 1</span>","null","","","","",""
"null","","","video-keyboard-response","76","347905","0.0-76.0","emepc1uo","","","null","","<span style=""color:Black; font-size:50px;"">Casey","Casey","STIM_SET_13/713519.bmp_pp60_L3_V1_veridical_freeview_isoFalse_fps144.mp4",""
"null","","","html-keyboard-response","77","349407","0.0-77.0","emepc1uo","","<span style=""color:Black; font-size:50px;"">Video 2</span>","null","","","","",""
"null","","","video-keyboard-response","78","352528","0.0-78.0","emepc1uo","","","null","","<span style=""color:Black; font-size:50px;"">Sandy","Sandy","STIM_SET_13/713519.bmp_pp73_L3_V1_veridical_freeview_isoFalse_fps144.mp4",""
"","","","call-function","79","352528","0.0-79.0","emepc1uo","","","","","","","",""
"3984.585000000021","","","categorize-html","80","358515","0.0-80.0","emepc1uo","","Which video showed <span style=""font-size:30px"">Sandy's</span> attention?","50","","","","","true"
"null","","","html-keyboard-response","81","359018","0.0-81.0","emepc1uo",""," ","null","","","","",""
"","","","call-function","82","359019","0.0-82.0","emepc1uo","","","","","","","",""
"null","","","html-keyboard-response","83","360521","0.0-83.0","emepc1uo","","<span style=""color:Black; font-size:50px;"">Video 1</span>","null","","","","",""
"null","","","video-keyboard-response","84","363642","0.0-84.0","emepc1uo","","","null","","<span style=""color:Black; font-size:50px;"">Casey","Casey","STIM_SET_13/1592305.bmp_pp60_L3_V1_veridical_freeview_isoFalse_fps144.mp4",""
"null","","","html-keyboard-response","85","365144","0.0-85.0","emepc1uo","","<span style=""color:Black; font-size:50px;"">Video 2</span>","null","","","","",""
"null","","","video-keyboard-response","86","368233","0.0-86.0","emepc1uo","","","null","","<span style=""color:Black; font-size:50px;"">Sandy","Sandy","STIM_SET_13/1592305.bmp_pp73_L3_V1_veridical_freeview_isoFalse_fps144.mp4",""
"","","","call-function","87","368234","0.0-87.0","emepc1uo","","","","","","","",""
"2695.3400000000256","","","categorize-html","88","372936","0.0-88.0","emepc1uo","","Which video showed <span style=""font-size:30px"">Sandy's</span> attention?","49","","","","","false"
"null","","","html-keyboard-response","89","373443","0.0-89.0","emepc1uo",""," ","null","","","","",""
"12606.774999999965","","","instructions","90","386050","0.0-90.0","emepc1uo","[{""page_index"":0,""viewing_time"":9345.619999999995},{""page_index"":1,""viewing_time"":1902.0199999999604},{""page_index"":2,""viewing_time"":1358.9350000000559}]","","","","","","",""
"5071.40499999997","","","instructions","91","391122","0.0-91.0","emepc1uo","[{""page_index"":0,""viewing_time"":1014.2549999999464},{""page_index"":1,""viewing_time"":2500.100000000035},{""page_index"":2,""viewing_time"":1556.945000000007}]","","","","","","",""
"","","","call-function","92","391122","0.0-92.0","emepc1uo","","","","","","","",""
"null","","","html-keyboard-response","93","392624","0.0-93.0","emepc1uo","","<span style=""color:Black; font-size:50px;"">Video 1</span>","null","","","","",""
"null","","","video-keyboard-response","94","395700","0.0-94.0","emepc1uo","","","null","","<span style=""color:Black; font-size:50px;"">Sandy","Sandy","STIM_SET_13/1592027.bmp_pp73_L3_V1_veridical_freeview_isoFalse_fps144.mp4",""
"null","","","html-keyboard-response","95","397206","0.0-95.0","emepc1uo","","<span style=""color:Black; font-size:50px;"">Video 2</span>","null","","","","",""
"null","","","video-keyboard-response","96","400291","0.0-96.0","emepc1uo","","","null","","<span style=""color:Black; font-size:50px;"">Casey","Casey","STIM_SET_13/1592027.bmp_pp60_L3_V1_veridical_freeview_isoFalse_fps144.mp4",""
"","","","call-function","97","400292","0.0-97.0","emepc1uo","","","","","","","",""
"4045.5","","","categorize-html","98","406344","0.0-98.0","emepc1uo","","Which video showed <span style=""font-size:30px"">Sandy's</span> attention?","50","","","","","false"
"null","","","html-keyboard-response","99","406849","0.0-99.0","emepc1uo",""," ","null","","","","",""
"","","","call-function","100","406849","0.0-100.0","emepc1uo","","","","","","","",""
"null","","","html-keyboard-response","101","408352","0.0-101.0","emepc1uo","","<span style=""color:Black; font-size:50px;"">Video 1</span>","null","","","","",""
"null","","","video-keyboard-response","102","411437","0.0-102.0","emepc1uo","","","null","","<span style=""color:Black; font-size:50px;"">Casey","Casey","STIM_SET_13/150384.bmp_pp60_L3_V1_veridical_freeview_isoFalse_fps144.mp4",""
"null","","","html-keyboard-response","103","412942","0.0-103.0","emepc1uo","","<span style=""color:Black; font-size:50px;"">Video 2</span>","null","","","","",""
"null","","","video-keyboard-response","104","416045","0.0-104.0","emepc1uo","","","null","","<span style=""color:Black; font-size:50px;"">Sandy","Sandy","STIM_SET_13/150384.bmp_pp73_L3_V1_veridical_freeview_isoFalse_fps144.mp4",""
"","","","call-function","105","416046","0.0-105.0","emepc1uo","","","","","","","",""
"1667.3850000000093","","","categorize-html","106","419716","0.0-106.0","emepc1uo","","Which video showed <span style=""font-size:30px"">Sandy's</span> attention?","50","","","","","true"
"null","","","html-keyboard-response","107","420219","0.0-107.0","emepc1uo",""," ","null","","","","",""
"","","","call-function","108","420220","0.0-108.0","emepc1uo","","","","","","","",""
"null","","","html-keyboard-response","109","421722","0.0-109.0","emepc1uo","","<span style=""color:Black; font-size:50px;"">Video 1</span>","null","","","","",""
"null","","","video-keyboard-response","110","424824","0.0-110.0","emepc1uo","","","null","","<span style=""color:Black; font-size:50px;"">Sandy","Sandy","STIM_SET_13/1592971.bmp_pp73_L3_V1_veridical_freeview_isoFalse_fps144.mp4",""
"null","","","html-keyboard-response","111","426330","0.0-111.0","emepc1uo","","<span style=""color:Black; font-size:50px;"">Video 2</span>","null","","","","",""
"null","","","video-keyboard-response","112","429428","0.0-112.0","emepc1uo","","","null","","<span style=""color:Black; font-size:50px;"">Casey","Casey","STIM_SET_13/1592971.bmp_pp60_L3_V1_veridical_freeview_isoFalse_fps144.mp4",""
"","","","call-function","113","429428","0.0-113.0","emepc1uo","","","","","","","",""
"2101.085000000021","","","categorize-html","114","433534","0.0-114.0","emepc1uo","","Which video showed <span style=""font-size:30px"">Sandy's</span> attention?","49","","","","","true"
"null","","","html-keyboard-response","115","434038","0.0-115.0","emepc1uo",""," ","null","","","","",""
"","","","call-function","116","434038","0.0-116.0","emepc1uo","","","","","","","",""
"null","","","html-keyboard-response","117","435544","0.0-117.0","emepc1uo","","<span style=""color:Black; font-size:50px;"">Video 1</span>","null","","","","",""
"null","","","video-keyboard-response","118","438627","0.0-118.0","emepc1uo","","","null","","<span style=""color:Black; font-size:50px;"">Casey","Casey","STIM_SET_13/498079.bmp_pp60_L3_V1_veridical_freeview_isoFalse_fps144.mp4",""
"null","","","html-keyboard-response","119","440128","0.0-119.0","emepc1uo","","<span style=""color:Black; font-size:50px;"">Video 2</span>","null","","","","",""
"null","","","video-keyboard-response","120","443229","0.0-120.0","emepc1uo","","","null","","<span style=""color:Black; font-size:50px;"">Sandy","Sandy","STIM_SET_13/498079.bmp_pp73_L3_V1_veridical_freeview_isoFalse_fps144.mp4",""
"","","","call-function","121","443229","0.0-121.0","emepc1uo","","","","","","","",""
"2067.8649999999907","","","categorize-html","122","447301","0.0-122.0","emepc1uo","","Which video showed <span style=""font-size:30px"">Sandy's</span> attention?","49","","","","","false"
"null","","","html-keyboard-response","123","447803","0.0-123.0","emepc1uo",""," ","null","","","","",""
"","","","call-function","124","447804","0.0-124.0","emepc1uo","","","","","","","",""
"null","","","html-keyboard-response","125","449308","0.0-125.0","emepc1uo","","<span style=""color:Black; font-size:50px;"">Video 1</span>","null","","","","",""
"null","","","video-keyboard-response","126","452418","0.0-126.0","emepc1uo","","","null","","<span style=""color:Black; font-size:50px;"">Casey","Casey","STIM_SET_13/1159784.bmp_pp60_L3_V1_veridical_freeview_isoFalse_fps144.mp4",""
"null","","","html-keyboard-response","127","453922","0.0-127.0","emepc1uo","","<span style=""color:Black; font-size:50px;"">Video 2</span>","null","","","","",""
"null","","","video-keyboard-response","128","457022","0.0-128.0","emepc1uo","","","null","","<span style=""color:Black; font-size:50px;"">Sandy","Sandy","STIM_SET_13/1159784.bmp_pp73_L3_V1_veridical_freeview_isoFalse_fps144.mp4",""
"","","","call-function","129","457022","0.0-129.0","emepc1uo","","","","","","","",""
"1394.8699999999953","","","categorize-html","130","460422","0.0-130.0","emepc1uo","","Which video showed <span style=""font-size:30px"">Sandy's</span> attention?","50","","","","","true"
"null","","","html-keyboard-response","131","460925","0.0-131.0","emepc1uo",""," ","null","","","","",""
"","","","call-function","132","460925","0.0-132.0","emepc1uo","","","","","","","",""
"null","","","html-keyboard-response","133","462429","0.0-133.0","emepc1uo","","<span style=""color:Black; font-size:50px;"">Video 1</span>","null","","","","",""
"null","","","video-keyboard-response","134","465504","0.0-134.0","emepc1uo","","","null","","<span style=""color:Black; font-size:50px;"">Sandy","Sandy","STIM_SET_13/498039.bmp_pp73_L3_V1_veridical_freeview_isoFalse_fps144.mp4",""
"null","","","html-keyboard-response","135","467009","0.0-135.0","emepc1uo","","<span style=""color:Black; font-size:50px;"">Video 2</span>","null","","","","",""
"null","","","video-keyboard-response","136","470091","0.0-136.0","emepc1uo","","","null","","<span style=""color:Black; font-size:50px;"">Casey","Casey","STIM_SET_13/498039.bmp_pp60_L3_V1_veridical_freeview_isoFalse_fps144.mp4",""
"","","","call-function","137","470092","0.0-137.0","emepc1uo","","","","","","","",""
"1485.7449999999953","","","categorize-html","138","473582","0.0-138.0","emepc1uo","","Which video showed <span style=""font-size:30px"">Sandy's</span> attention?","49","","","","","true"
"null","","","html-keyboard-response","139","474085","0.0-139.0","emepc1uo",""," ","null","","","","",""
"","","","call-function","140","474085","0.0-140.0","emepc1uo","","","","","","","",""
"null","","","html-keyboard-response","141","475591","0.0-141.0","emepc1uo","","<span style=""color:Black; font-size:50px;"">Video 1</span>","null","","","","",""
"null","","","video-keyboard-response","142","480459","0.0-142.0","emepc1uo","","","null","","<span style=""color:Black; font-size:50px;"">Casey","Casey","STIM_SET_13/498304.bmp_pp60_L3_V1_veridical_freeview_isoFalse_fps144.mp4",""
"null","","","html-keyboard-response","143","481963","0.0-143.0","emepc1uo","","<span style=""color:Black; font-size:50px;"">Video 2</span>","null","","","","",""
"null","","","video-keyboard-response","144","485064","0.0-144.0","emepc1uo","","","null","","<span style=""color:Black; font-size:50px;"">Sandy","Sandy","STIM_SET_13/498304.bmp_pp73_L3_V1_veridical_freeview_isoFalse_fps144.mp4",""
"","","","call-function","145","485065","0.0-145.0","emepc1uo","","","","","","","",""
"1232.75","","","categorize-html","146","488305","0.0-146.0","emepc1uo","","Which video showed <span style=""font-size:30px"">Sandy's</span> attention?","49","","","","","false"
"null","","","html-keyboard-response","147","488810","0.0-147.0","emepc1uo",""," ","null","","","","",""
"","","","call-function","148","488810","0.0-148.0","emepc1uo","","","","","","","",""
"null","","","html-keyboard-response","149","490313","0.0-149.0","emepc1uo","","<span style=""color:Black; font-size:50px;"">Video 1</span>","null","","","","",""
"null","","","video-keyboard-response","150","493583","0.0-150.0","emepc1uo","","","null","","<span style=""color:Black; font-size:50px;"">Casey","Casey","STIM_SET_13/713620.bmp_pp60_L3_V1_veridical_freeview_isoFalse_fps144.mp4",""
"null","","","html-keyboard-response","151","495087","0.0-151.0","emepc1uo","","<span style=""color:Black; font-size:50px;"">Video 2</span>","null","","","","",""
"null","","","video-keyboard-response","152","498173","0.0-152.0","emepc1uo","","","null","","<span style=""color:Black; font-size:50px;"">Sandy","Sandy","STIM_SET_13/713620.bmp_pp73_L3_V1_veridical_freeview_isoFalse_fps144.mp4",""
"","","","call-function","153","498173","0.0-153.0","emepc1uo","","","","","","","",""
"1003.5599999999977","","","categorize-html","154","501180","0.0-154.0","emepc1uo","","Which video showed <span style=""font-size:30px"">Sandy's</span> attention?","50","","","","","true"
"null","","","html-keyboard-response","155","501684","0.0-155.0","emepc1uo",""," ","null","","","","",""
"","","","call-function","156","501684","0.0-156.0","emepc1uo","","","","","","","",""
"null","","","html-keyboard-response","157","503187","0.0-157.0","emepc1uo","","<span style=""color:Black; font-size:50px;"">Video 1</span>","null","","","","",""
"null","","","video-keyboard-response","158","506263","0.0-158.0","emepc1uo","","","null","","<span style=""color:Black; font-size:50px;"">Casey","Casey","STIM_SET_13/713689.bmp_pp60_L3_V1_veridical_freeview_isoFalse_fps144.mp4",""
"null","","","html-keyboard-response","159","507769","0.0-159.0","emepc1uo","","<span style=""color:Black; font-size:50px;"">Video 2</span>","null","","","","",""
"null","","","video-keyboard-response","160","510856","0.0-160.0","emepc1uo","","","null","","<span style=""color:Black; font-size:50px;"">Sandy","Sandy","STIM_SET_13/713689.bmp_pp73_L3_V1_veridical_freeview_isoFalse_fps144.mp4",""
"","","","call-function","161","510857","0.0-161.0","emepc1uo","","","","","","","",""
"1424.5250000000233","","","categorize-html","162","514284","0.0-162.0","emepc1uo","","Which video showed <span style=""font-size:30px"">Sandy's</span> attention?","50","","","","","true"
"null","","","html-keyboard-response","163","514787","0.0-163.0","emepc1uo",""," ","null","","","","",""
"","","","call-function","164","514788","0.0-164.0","emepc1uo","","","","","","","",""
"null","","","html-keyboard-response","165","516291","0.0-165.0","emepc1uo","","<span style=""color:Black; font-size:50px;"">Video 1</span>","null","","","","",""
"null","","","video-keyboard-response","166","519471","0.0-166.0","emepc1uo","","","null","","<span style=""color:Black; font-size:50px;"">Sandy","Sandy","STIM_SET_13/1159675.bmp_pp73_L3_V1_veridical_freeview_isoFalse_fps144.mp4",""
"null","","","html-keyboard-response","167","520977","0.0-167.0","emepc1uo","","<span style=""color:Black; font-size:50px;"">Video 2</span>","null","","","","",""
"null","","","video-keyboard-response","168","524088","0.0-168.0","emepc1uo","","","null","","<span style=""color:Black; font-size:50px;"">Casey","Casey","STIM_SET_13/1159675.bmp_pp60_L3_V1_veridical_freeview_isoFalse_fps144.mp4",""
"","","","call-function","169","524089","0.0-169.0","emepc1uo","","","","","","","",""
"1528.6649999999208","","","categorize-html","170","527620","0.0-170.0","emepc1uo","","Which video showed <span style=""font-size:30px"">Sandy's</span> attention?","49","","","","","true"
"null","","","html-keyboard-response","171","528124","0.0-171.0","emepc1uo",""," ","null","","","","",""
"11021.36499999999","","","instructions","172","539145","0.0-172.0","emepc1uo","[{""page_index"":0,""viewing_time"":9786.035000000033},{""page_index"":1,""viewing_time"":59.28999999992084},{""page_index"":2,""viewing_time"":1175.9300000000512}]","","","","","","",""
"7549.554999999935","","","instructions","173","546695","0.0-173.0","emepc1uo","[{""page_index"":0,""viewing_time"":5078.664999999921},{""page_index"":1,""viewing_time"":1787.844999999972},{""page_index"":2,""viewing_time"":682.9350000000559}]","","","","","","",""
"","","","call-function","174","546695","0.0-174.0","emepc1uo","","","","","","","",""
"null","","","html-keyboard-response","175","548199","0.0-175.0","emepc1uo","","<span style=""color:Black; font-size:50px;"">Video 1</span>","null","","","","",""
"null","","","video-keyboard-response","176","551290","0.0-176.0","emepc1uo","","","null","","<span style=""color:Black; font-size:50px;"">Sandy","Sandy","STIM_SET_13/1159482.bmp_pp73_L3_V1_veridical_freeview_isoFalse_fps144.mp4",""
"null","","","html-keyboard-response","177","552796","0.0-177.0","emepc1uo","","<span style=""color:Black; font-size:50px;"">Video 2</span>","null","","","","",""
"null","","","video-keyboard-response","178","555886","0.0-178.0","emepc1uo","","","null","","<span style=""color:Black; font-size:50px;"">Casey","Casey","STIM_SET_13/1159482.bmp_pp60_L3_V1_veridical_freeview_isoFalse_fps144.mp4",""
"","","","call-function","179","555886","0.0-179.0","emepc1uo","","","","","","","",""
"3371.329999999958","","","categorize-html","180","561265","0.0-180.0","emepc1uo","","Which video showed <span style=""font-size:30px"">Sandy's</span> attention?","49","","","","","true"
"null","","","html-keyboard-response","181","561767","0.0-181.0","emepc1uo",""," ","null","","","","",""
"","","","call-function","182","561767","0.0-182.0","emepc1uo","","","","","","","",""
"null","","","html-keyboard-response","183","563273","0.0-183.0","emepc1uo","","<span style=""color:Black; font-size:50px;"">Video 1</span>","null","","","","",""
"null","","","video-keyboard-response","184","566362","0.0-184.0","emepc1uo","","","null","","<span style=""color:Black; font-size:50px;"">Casey","Casey","STIM_SET_13/1593102.bmp_pp60_L3_V1_veridical_freeview_isoFalse_fps144.mp4",""
"null","","","html-keyboard-response","185","567865","0.0-185.0","emepc1uo","","<span style=""color:Black; font-size:50px;"">Video 2</span>","null","","","","",""
"null","","","video-keyboard-response","186","570950","0.0-186.0","emepc1uo","","","null","","<span style=""color:Black; font-size:50px;"">Sandy","Sandy","STIM_SET_13/1593102.bmp_pp73_L3_V1_veridical_freeview_isoFalse_fps144.mp4",""
"","","","call-function","187","570951","0.0-187.0","emepc1uo","","","","","","","",""
"1130.5350000000326","","","categorize-html","188","574085","0.0-188.0","emepc1uo","","Which video showed <span style=""font-size:30px"">Sandy's</span> attention?","50","","","","","true"
"null","","","html-keyboard-response","189","574592","0.0-189.0","emepc1uo",""," ","null","","","","",""
"","","","call-function","190","574592","0.0-190.0","emepc1uo","","","","","","","",""
"null","","","html-keyboard-response","191","576097","0.0-191.0","emepc1uo","","<span style=""color:Black; font-size:50px;"">Video 1</span>","null","","","","",""
"null","","","video-keyboard-response","192","579211","0.0-192.0","emepc1uo","","","null","","<span style=""color:Black; font-size:50px;"">Sandy","Sandy","STIM_SET_13/1592378.bmp_pp73_L3_V1_veridical_freeview_isoFalse_fps144.mp4",""
"null","","","html-keyboard-response","193","580714","0.0-193.0","emepc1uo","","<span style=""color:Black; font-size:50px;"">Video 2</span>","null","","","","",""
"null","","","video-keyboard-response","194","583828","0.0-194.0","emepc1uo","","","null","","<span style=""color:Black; font-size:50px;"">Casey","Casey","STIM_SET_13/1592378.bmp_pp60_L3_V1_veridical_freeview_isoFalse_fps144.mp4",""
"","","","call-function","195","583829","0.0-195.0","emepc1uo","","","","","","","",""
"1444.6799999999348","","","categorize-html","196","587280","0.0-196.0","emepc1uo","","Which video showed <span style=""font-size:30px"">Sandy's</span> attention?","49","","","","","true"
"null","","","html-keyboard-response","197","587782","0.0-197.0","emepc1uo",""," ","null","","","","",""
"","","","call-function","198","587783","0.0-198.0","emepc1uo","","","","","","","",""
"null","","","html-keyboard-response","199","589287","0.0-199.0","emepc1uo","","<span style=""color:Black; font-size:50px;"">Video 1</span>","null","","","","",""
"null","","","video-keyboard-response","200","592389","0.0-200.0","emepc1uo","","","null","","<span style=""color:Black; font-size:50px;"">Casey","Casey","STIM_SET_13/1159446.bmp_pp60_L3_V1_veridical_freeview_isoFalse_fps144.mp4",""
"null","","","html-keyboard-response","201","593891","0.0-201.0","emepc1uo","","<span style=""color:Black; font-size:50px;"">Video 2</span>","null","","","","",""
"null","","","video-keyboard-response","202","596989","0.0-202.0","emepc1uo","","","null","","<span style=""color:Black; font-size:50px;"">Sandy","Sandy","STIM_SET_13/1159446.bmp_pp73_L3_V1_veridical_freeview_isoFalse_fps144.mp4",""
"","","","call-function","203","596990","0.0-203.0","emepc1uo","","","","","","","",""
"1251.6699999999255","","","categorize-html","204","600244","0.0-204.0","emepc1uo","","Which video showed <span style=""font-size:30px"">Sandy's</span> attention?","49","","","","","false"
"null","","","html-keyboard-response","205","600749","0.0-205.0","emepc1uo",""," ","null","","","","",""
"","","","call-function","206","600750","0.0-206.0","emepc1uo","","","","","","","",""
"null","","","html-keyboard-response","207","602252","0.0-207.0","emepc1uo","","<span style=""color:Black; font-size:50px;"">Video 1</span>","null","","","","",""
"null","","","video-keyboard-response","208","605363","0.0-208.0","emepc1uo","","","null","","<span style=""color:Black; font-size:50px;"">Sandy","Sandy","STIM_SET_13/1592727.bmp_pp73_L3_V1_veridical_freeview_isoFalse_fps144.mp4",""
"null","","","html-keyboard-response","209","606868","0.0-209.0","emepc1uo","","<span style=""color:Black; font-size:50px;"">Video 2</span>","null","","","","",""
"null","","","video-keyboard-response","210","609969","0.0-210.0","emepc1uo","","","null","","<span style=""color:Black; font-size:50px;"">Casey","Casey","STIM_SET_13/1592727.bmp_pp60_L3_V1_veridical_freeview_isoFalse_fps144.mp4",""
"","","","call-function","211","609970","0.0-211.0","emepc1uo","","","","","","","",""
"1375.765000000014","","","categorize-html","212","613348","0.0-212.0","emepc1uo","","Which video showed <span style=""font-size:30px"">Sandy's</span> attention?","49","","","","","true"
"null","","","html-keyboard-response","213","613855","0.0-213.0","emepc1uo",""," ","null","","","","",""
"","","","call-function","214","613855","0.0-214.0","emepc1uo","","","","","","","",""
"null","","","html-keyboard-response","215","615361","0.0-215.0","emepc1uo","","<span style=""color:Black; font-size:50px;"">Video 1</span>","null","","","","",""
"null","","","video-keyboard-response","216","618439","0.0-216.0","emepc1uo","","","null","","<span style=""color:Black; font-size:50px;"">Casey","Casey","STIM_SET_13/1159777.bmp_pp60_L3_V1_veridical_freeview_isoFalse_fps144.mp4",""
"null","","","html-keyboard-response","217","619945","0.0-217.0","emepc1uo","","<span style=""color:Black; font-size:50px;"">Video 2</span>","null","","","","",""
"null","","","video-keyboard-response","218","623021","0.0-218.0","emepc1uo","","","null","","<span style=""color:Black; font-size:50px;"">Sandy","Sandy","STIM_SET_13/1159777.bmp_pp73_L3_V1_veridical_freeview_isoFalse_fps144.mp4",""
"","","","call-function","219","623021","0.0-219.0","emepc1uo","","","","","","","",""
"2796.2550000000047","","","categorize-html","220","627824","0.0-220.0","emepc1uo","","Which video showed <span style=""font-size:30px"">Sandy's</span> attention?","50","","","","","true"
"null","","","html-keyboard-response","221","628327","0.0-221.0","emepc1uo",""," ","null","","","","",""
"","","","call-function","222","628327","0.0-222.0","emepc1uo","","","","","","","",""
"null","","","html-keyboard-response","223","629832","0.0-223.0","emepc1uo","","<span style=""color:Black; font-size:50px;"">Video 1</span>","null","","","","",""
"null","","","video-keyboard-response","224","632918","0.0-224.0","emepc1uo","","","null","","<span style=""color:Black; font-size:50px;"">Casey","Casey","STIM_SET_13/1591858.bmp_pp60_L3_V1_veridical_freeview_isoFalse_fps144.mp4",""
"null","","","html-keyboard-response","225","634424","0.0-225.0","emepc1uo","","<span style=""color:Black; font-size:50px;"">Video 2</span>","null","","","","",""
"null","","","video-keyboard-response","226","637503","0.0-226.0","emepc1uo","","","null","","<span style=""color:Black; font-size:50px;"">Sandy","Sandy","STIM_SET_13/1591858.bmp_pp73_L3_V1_veridical_freeview_isoFalse_fps144.mp4",""
"","","","call-function","227","637503","0.0-227.0","emepc1uo","","","","","","","",""
"1810.4199999999255","","","categorize-html","228","641318","0.0-228.0","emepc1uo","","Which video showed <span style=""font-size:30px"">Sandy's</span> attention?","50","","","","","true"
"null","","","html-keyboard-response","229","641824","0.0-229.0","emepc1uo",""," ","null","","","","",""
"","","","call-function","230","641825","0.0-230.0","emepc1uo","","","","","","","",""
"null","","","html-keyboard-response","231","643326","0.0-231.0","emepc1uo","","<span style=""color:Black; font-size:50px;"">Video 1</span>","null","","","","",""
"null","","","video-keyboard-response","232","646428","0.0-232.0","emepc1uo","","","null","","<span style=""color:Black; font-size:50px;"">Sandy","Sandy","STIM_SET_13/1592303.bmp_pp73_L3_V1_veridical_freeview_isoFalse_fps144.mp4",""
"null","","","html-keyboard-response","233","647930","0.0-233.0","emepc1uo","","<span style=""color:Black; font-size:50px;"">Video 2</span>","null","","","","",""
"null","","","video-keyboard-response","234","651046","0.0-234.0","emepc1uo","","","null","","<span style=""color:Black; font-size:50px;"">Casey","Casey","STIM_SET_13/1592303.bmp_pp60_L3_V1_veridical_freeview_isoFalse_fps144.mp4",""
"","","","call-function","235","651046","0.0-235.0","emepc1uo","","","","","","","",""
"1123.4150000000373","","","categorize-html","236","654173","0.0-236.0","emepc1uo","","Which video showed <span style=""font-size:30px"">Sandy's</span> attention?","50","","","","","false"
"null","","","html-keyboard-response","237","654679","0.0-237.0","emepc1uo",""," ","null","","","","",""
"","","","call-function","238","654679","0.0-238.0","emepc1uo","","","","","","","",""
"null","","","html-keyboard-response","239","656186","0.0-239.0","emepc1uo","","<span style=""color:Black; font-size:50px;"">Video 1</span>","null","","","","",""
"null","","","video-keyboard-response","240","659364","0.0-240.0","emepc1uo","","","null","","<span style=""color:Black; font-size:50px;"">Sandy","Sandy","STIM_SET_13/1592397.bmp_pp73_L3_V1_veridical_freeview_isoFalse_fps144.mp4",""
"null","","","html-keyboard-response","241","660867","0.0-241.0","emepc1uo","","<span style=""color:Black; font-size:50px;"">Video 2</span>","null","","","","",""
"null","","","video-keyboard-response","242","663965","0.0-242.0","emepc1uo","","","null","","<span style=""color:Black; font-size:50px;"">Casey","Casey","STIM_SET_13/1592397.bmp_pp60_L3_V1_veridical_freeview_isoFalse_fps144.mp4",""
"","","","call-function","243","663966","0.0-243.0","emepc1uo","","","","","","","",""
"3643.984999999986","","","categorize-html","244","669616","0.0-244.0","emepc1uo","","Which video showed <span style=""font-size:30px"">Sandy's</span> attention?","50","","","","","false"
"null","","","html-keyboard-response","245","670123","0.0-245.0","emepc1uo",""," ","null","","","","",""
"","","","call-function","246","670123","0.0-246.0","emepc1uo","","","","","","","",""
"null","","","html-keyboard-response","247","671625","0.0-247.0","emepc1uo","","<span style=""color:Black; font-size:50px;"">Video 1</span>","null","","","","",""
"null","","","video-keyboard-response","248","674740","0.0-248.0","emepc1uo","","","null","","<span style=""color:Black; font-size:50px;"">Sandy","Sandy","STIM_SET_13/1593084.bmp_pp73_L3_V1_veridical_freeview_isoFalse_fps144.mp4",""
"null","","","html-keyboard-response","249","676245","0.0-249.0","emepc1uo","","<span style=""color:Black; font-size:50px;"">Video 2</span>","null","","","","",""
"null","","","video-keyboard-response","250","679350","0.0-250.0","emepc1uo","","","null","","<span style=""color:Black; font-size:50px;"">Casey","Casey","STIM_SET_13/1593084.bmp_pp60_L3_V1_veridical_freeview_isoFalse_fps144.mp4",""
"","","","call-function","251","679350","0.0-251.0","emepc1uo","","","","","","","",""
"2819.0400000000373","","","categorize-html","252","684177","0.0-252.0","emepc1uo","","Which video showed <span style=""font-size:30px"">Sandy's</span> attention?","49","","","","","true"
"null","","","html-keyboard-response","253","684680","0.0-253.0","emepc1uo",""," ","null","","","","",""
"16484.75","","","instructions","254","701165","0.0-254.0","emepc1uo","[{""page_index"":0,""viewing_time"":13885.660000000033},{""page_index"":1,""viewing_time"":2038.8349999999627},{""page_index"":2,""viewing_time"":560.140000000014}]","","","","","","",""
"1869.5749999999534","","","instructions","255","703035","0.0-255.0","emepc1uo","[{""page_index"":0,""viewing_time"":610.5250000000233},{""page_index"":1,""viewing_time"":607.9050000000279},{""page_index"":2,""viewing_time"":651.0349999999162}]","","","","","","",""
"","","","call-function","256","703036","0.0-256.0","emepc1uo","","","","","","","",""
"null","","","html-keyboard-response","257","704542","0.0-257.0","emepc1uo","","<span style=""color:Black; font-size:50px;"">Video 1</span>","null","","","","",""
"null","","","video-keyboard-response","258","707626","0.0-258.0","emepc1uo","","","null","","<span style=""color:Black; font-size:50px;"">Casey","Casey","STIM_SET_13/713684.bmp_pp60_L3_V1_veridical_freeview_isoFalse_fps144.mp4",""
"null","","","html-keyboard-response","259","709128","0.0-259.0","emepc1uo","","<span style=""color:Black; font-size:50px;"">Video 2</span>","null","","","","",""
"null","","","video-keyboard-response","260","712194","0.0-260.0","emepc1uo","","","null","","<span style=""color:Black; font-size:50px;"">Sandy","Sandy","STIM_SET_13/713684.bmp_pp73_L3_V1_veridical_freeview_isoFalse_fps144.mp4",""
"","","","call-function","261","712194","0.0-261.0","emepc1uo","","","","","","","",""
"1943.3549999999814","","","categorize-html","262","716141","0.0-262.0","emepc1uo","","Which video showed <span style=""font-size:30px"">Sandy's</span> attention?","50","","","","","true"
"null","","","html-keyboard-response","263","716648","0.0-263.0","emepc1uo",""," ","null","","","","",""
"","","","call-function","264","716648","0.0-264.0","emepc1uo","","","","","","","",""
"null","","","html-keyboard-response","265","718153","0.0-265.0","emepc1uo","","<span style=""color:Black; font-size:50px;"">Video 1</span>","null","","","","",""
"null","","","video-keyboard-response","266","721237","0.0-266.0","emepc1uo","","","null","","<span style=""color:Black; font-size:50px;"">Casey","Casey","STIM_SET_13/1592201.bmp_pp60_L3_V1_veridical_freeview_isoFalse_fps144.mp4",""
"null","","","html-keyboard-response","267","722744","0.0-267.0","emepc1uo","","<span style=""color:Black; font-size:50px;"">Video 2</span>","null","","","","",""
"null","","","video-keyboard-response","268","725821","0.0-268.0","emepc1uo","","","null","","<span style=""color:Black; font-size:50px;"">Sandy","Sandy","STIM_SET_13/1592201.bmp_pp73_L3_V1_veridical_freeview_isoFalse_fps144.mp4",""
"","","","call-function","269","725821","0.0-269.0","emepc1uo","","","","","","","",""
"2828.6199999999953","","","categorize-html","270","730656","0.0-270.0","emepc1uo","","Which video showed <span style=""font-size:30px"">Sandy's</span> attention?","50","","","","","true"
"null","","","html-keyboard-response","271","731159","0.0-271.0","emepc1uo",""," ","null","","","","",""
"","","","call-function","272","731159","0.0-272.0","emepc1uo","","","","","","","",""
"null","","","html-keyboard-response","273","732662","0.0-273.0","emepc1uo","","<span style=""color:Black; font-size:50px;"">Video 1</span>","null","","","","",""
"null","","","video-keyboard-response","274","735764","0.0-274.0","emepc1uo","","","null","","<span style=""color:Black; font-size:50px;"">Sandy","Sandy","STIM_SET_13/150496.bmp_pp73_L3_V1_veridical_freeview_isoFalse_fps144.mp4",""
"null","","","html-keyboard-response","275","737265","0.0-275.0","emepc1uo","","<span style=""color:Black; font-size:50px;"">Video 2</span>","null","","","","",""
"null","","","video-keyboard-response","276","740390","0.0-276.0","emepc1uo","","","null","","<span style=""color:Black; font-size:50px;"">Casey","Casey","STIM_SET_13/150496.bmp_pp60_L3_V1_veridical_freeview_isoFalse_fps144.mp4",""
"","","","call-function","277","740390","0.0-277.0","emepc1uo","","","","","","","",""
"1291.295000000042","","","categorize-html","278","743684","0.0-278.0","emepc1uo","","Which video showed <span style=""font-size:30px"">Sandy's</span> attention?","49","","","","","true"
"null","","","html-keyboard-response","279","744187","0.0-279.0","emepc1uo",""," ","null","","","","",""
"","","","call-function","280","744188","0.0-280.0","emepc1uo","","","","","","","",""
"null","","","html-keyboard-response","281","745689","0.0-281.0","emepc1uo","","<span style=""color:Black; font-size:50px;"">Video 1</span>","null","","","","",""
"null","","","video-keyboard-response","282","748792","0.0-282.0","emepc1uo","","","null","","<span style=""color:Black; font-size:50px;"">Casey","Casey","STIM_SET_13/150290.bmp_pp60_L3_V1_veridical_freeview_isoFalse_fps144.mp4",""
"null","","","html-keyboard-response","283","750296","0.0-283.0","emepc1uo","","<span style=""color:Black; font-size:50px;"">Video 2</span>","null","","","","",""
"null","","","video-keyboard-response","284","753387","0.0-284.0","emepc1uo","","","null","","<span style=""color:Black; font-size:50px;"">Sandy","Sandy","STIM_SET_13/150290.bmp_pp73_L3_V1_veridical_freeview_isoFalse_fps144.mp4",""
"","","","call-function","285","753388","0.0-285.0","emepc1uo","","","","","","","",""
"1413.9949999999953","","","categorize-html","286","756809","0.0-286.0","emepc1uo","","Which video showed <span style=""font-size:30px"">Sandy's</span> attention?","50","","","","","true"
"null","","","html-keyboard-response","287","757311","0.0-287.0","emepc1uo",""," ","null","","","","",""
"","","","call-function","288","757311","0.0-288.0","emepc1uo","","","","","","","",""
"null","","","html-keyboard-response","289","758813","0.0-289.0","emepc1uo","","<span style=""color:Black; font-size:50px;"">Video 1</span>","null","","","","",""
"null","","","video-keyboard-response","290","761916","0.0-290.0","emepc1uo","","","null","","<span style=""color:Black; font-size:50px;"">Sandy","Sandy","STIM_SET_13/1592804.bmp_pp73_L3_V1_veridical_freeview_isoFalse_fps144.mp4",""
"null","","","html-keyboard-response","291","763423","0.0-291.0","emepc1uo","","<span style=""color:Black; font-size:50px;"">Video 2</span>","null","","","","",""
"null","","","video-keyboard-response","292","766534","0.0-292.0","emepc1uo","","","null","","<span style=""color:Black; font-size:50px;"">Casey","Casey","STIM_SET_13/1592804.bmp_pp60_L3_V1_veridical_freeview_isoFalse_fps144.mp4",""
"","","","call-function","293","766535","0.0-293.0","emepc1uo","","","","","","","",""
"1722.9799999999814","","","categorize-html","294","770262","0.0-294.0","emepc1uo","","Which video showed <span style=""font-size:30px"">Sandy's</span> attention?","49","","","","","true"
"null","","","html-keyboard-response","295","770766","0.0-295.0","emepc1uo",""," ","null","","","","",""
"","","","call-function","296","770767","0.0-296.0","emepc1uo","","","","","","","",""
"null","","","html-keyboard-response","297","772268","0.0-297.0","emepc1uo","","<span style=""color:Black; font-size:50px;"">Video 1</span>","null","","","","",""
"null","","","video-keyboard-response","298","775358","0.0-298.0","emepc1uo","","","null","","<span style=""color:Black; font-size:50px;"">Sandy","Sandy","STIM_SET_13/1159621.bmp_pp73_L3_V1_veridical_freeview_isoFalse_fps144.mp4",""
"null","","","html-keyboard-response","299","776865","0.0-299.0","emepc1uo","","<span style=""color:Black; font-size:50px;"">Video 2</span>","null","","","","",""
"null","","","video-keyboard-response","300","779951","0.0-300.0","emepc1uo","","","null","","<span style=""color:Black; font-size:50px;"">Casey","Casey","STIM_SET_13/1159621.bmp_pp60_L3_V1_veridical_freeview_isoFalse_fps144.mp4",""
"","","","call-function","301","779952","0.0-301.0","emepc1uo","","","","","","","",""
"1402.0349999999162","","","categorize-html","302","783357","0.0-302.0","emepc1uo","","Which video showed <span style=""font-size:30px"">Sandy's</span> attention?","49","","","","","true"
"null","","","html-keyboard-response","303","783858","0.0-303.0","emepc1uo",""," ","null","","","","",""
"","","","call-function","304","783859","0.0-304.0","emepc1uo","","","","","","","",""
"null","","","html-keyboard-response","305","785365","0.0-305.0","emepc1uo","","<span style=""color:Black; font-size:50px;"">Video 1</span>","null","","","","",""
"null","","","video-keyboard-response","306","788443","0.0-306.0","emepc1uo","","","null","","<span style=""color:Black; font-size:50px;"">Casey","Casey","STIM_SET_13/713718.bmp_pp60_L3_V1_veridical_freeview_isoFalse_fps144.mp4",""
"null","","","html-keyboard-response","307","789947","0.0-307.0","emepc1uo","","<span style=""color:Black; font-size:50px;"">Video 2</span>","null","","","","",""
"null","","","video-keyboard-response","308","793031","0.0-308.0","emepc1uo","","","null","","<span style=""color:Black; font-size:50px;"">Sandy","Sandy","STIM_SET_13/713718.bmp_pp73_L3_V1_veridical_freeview_isoFalse_fps144.mp4",""
"","","","call-function","309","793032","0.0-309.0","emepc1uo","","","","","","","",""
"2098.3950000000186","","","categorize-html","310","797137","0.0-310.0","emepc1uo","","Which video showed <span style=""font-size:30px"">Sandy's</span> attention?","50","","","","","true"
"null","","","html-keyboard-response","311","797640","0.0-311.0","emepc1uo",""," ","null","","","","",""
"","","","call-function","312","797640","0.0-312.0","emepc1uo","","","","","","","",""
"null","","","html-keyboard-response","313","799144","0.0-313.0","emepc1uo","","<span style=""color:Black; font-size:50px;"">Video 1</span>","null","","","","",""
"null","","","video-keyboard-response","314","802262","0.0-314.0","emepc1uo","","","null","","<span style=""color:Black; font-size:50px;"">Sandy","Sandy","STIM_SET_13/1592129.bmp_pp73_L3_V1_veridical_freeview_isoFalse_fps144.mp4",""
"null","","","html-keyboard-response","315","803768","0.0-315.0","emepc1uo","","<span style=""color:Black; font-size:50px;"">Video 2</span>","null","","","","",""
"null","","","video-keyboard-response","316","806884","0.0-316.0","emepc1uo","","","null","","<span style=""color:Black; font-size:50px;"">Casey","Casey","STIM_SET_13/1592129.bmp_pp60_L3_V1_veridical_freeview_isoFalse_fps144.mp4",""
"","","","call-function","317","806884","0.0-317.0","emepc1uo","","","","","","","",""
"957.5999999999767","","","categorize-html","318","809844","0.0-318.0","emepc1uo","","Which video showed <span style=""font-size:30px"">Sandy's</span> attention?","49","","","","","true"
"null","","","html-keyboard-response","319","810349","0.0-319.0","emepc1uo",""," ","null","","","","",""
"","","","call-function","320","810349","0.0-320.0","emepc1uo","","","","","","","",""
"null","","","html-keyboard-response","321","811852","0.0-321.0","emepc1uo","","<span style=""color:Black; font-size:50px;"">Video 1</span>","null","","","","",""
"null","","","video-keyboard-response","322","814960","0.0-322.0","emepc1uo","","","null","","<span style=""color:Black; font-size:50px;"">Casey","Casey","STIM_SET_13/150296.bmp_pp60_L3_V1_veridical_freeview_isoFalse_fps144.mp4",""
"null","","","html-keyboard-response","323","816463","0.0-323.0","emepc1uo","","<span style=""color:Black; font-size:50px;"">Video 2</span>","null","","","","",""
"null","","","video-keyboard-response","324","819560","0.0-324.0","emepc1uo","","","null","","<span style=""color:Black; font-size:50px;"">Sandy","Sandy","STIM_SET_13/150296.bmp_pp73_L3_V1_veridical_freeview_isoFalse_fps144.mp4",""
"","","","call-function","325","819561","0.0-325.0","emepc1uo","","","","","","","",""
"2384.9199999999255","","","categorize-html","326","823952","0.0-326.0","emepc1uo","","Which video showed <span style=""font-size:30px"">Sandy's</span> attention?","49","","","","","false"
"null","","","html-keyboard-response","327","824456","0.0-327.0","emepc1uo",""," ","null","","","","",""
"","","","call-function","328","824456","0.0-328.0","emepc1uo","","","","","","","",""
"null","","","html-keyboard-response","329","825958","0.0-329.0","emepc1uo","","<span style=""color:Black; font-size:50px;"">Video 1</span>","null","","","","",""
"null","","","video-keyboard-response","330","829079","0.0-330.0","emepc1uo","","","null","","<span style=""color:Black; font-size:50px;"">Casey","Casey","STIM_SET_13/1159592.bmp_pp60_L3_V1_veridical_freeview_isoFalse_fps144.mp4",""
"null","","","html-keyboard-response","331","830582","0.0-331.0","emepc1uo","","<span style=""color:Black; font-size:50px;"">Video 2</span>","null","","","","",""
"null","","","video-keyboard-response","332","833692","0.0-332.0","emepc1uo","","","null","","<span style=""color:Black; font-size:50px;"">Sandy","Sandy","STIM_SET_13/1159592.bmp_pp73_L3_V1_veridical_freeview_isoFalse_fps144.mp4",""
"","","","call-function","333","833692","0.0-333.0","emepc1uo","","","","","","","",""
"829.7849999999162","","","categorize-html","334","836525","0.0-334.0","emepc1uo","","Which video showed <span style=""font-size:30px"">Sandy's</span> attention?","49","","","","","false"
"null","","","html-keyboard-response","335","837031","0.0-335.0","emepc1uo",""," ","null","","","","",""
"13313.93499999994","","","instructions","336","850346","0.0-336.0","emepc1uo","[{""page_index"":0,""viewing_time"":11675.79999999993},{""page_index"":1,""viewing_time"":1005.0500000000466},{""page_index"":2,""viewing_time"":632.9699999999721}]","","","","","","",""
"2017.8500000000931","","","instructions","337","852364","0.0-337.0","emepc1uo","[{""page_index"":0,""viewing_time"":474.70000000006985},{""page_index"":1,""viewing_time"":727.8649999999907},{""page_index"":2,""viewing_time"":815.1699999999255}]","","","","","","",""
"","","","call-function","338","852364","0.0-338.0","emepc1uo","","","","","","","",""
"null","","","html-keyboard-response","339","853870","0.0-339.0","emepc1uo","","<span style=""color:Black; font-size:50px;"">Video 1</span>","null","","","","",""
"null","","","video-keyboard-response","340","856963","0.0-340.0","emepc1uo","","","null","","<span style=""color:Black; font-size:50px;"">Sandy","Sandy","STIM_SET_13/1591994.bmp_pp73_L3_V1_veridical_freeview_isoFalse_fps144.mp4",""
"null","","","html-keyboard-response","341","858468","0.0-341.0","emepc1uo","","<span style=""color:Black; font-size:50px;"">Video 2</span>","null","","","","",""
"null","","","video-keyboard-response","342","861547","0.0-342.0","emepc1uo","","","null","","<span style=""color:Black; font-size:50px;"">Casey","Casey","STIM_SET_13/1591994.bmp_pp60_L3_V1_veridical_freeview_isoFalse_fps144.mp4",""
"","","","call-function","343","861548","0.0-343.0","emepc1uo","","","","","","","",""
"2310.149999999907","","","categorize-html","344","865863","0.0-344.0","emepc1uo","","Which video showed <span style=""font-size:30px"">Sandy's</span> attention?","50","","","","","false"
"null","","","html-keyboard-response","345","866369","0.0-345.0","emepc1uo",""," ","null","","","","",""
"","","","call-function","346","866370","0.0-346.0","emepc1uo","","","","","","","",""
"null","","","html-keyboard-response","347","867873","0.0-347.0","emepc1uo","","<span style=""color:Black; font-size:50px;"">Video 1</span>","null","","","","",""
"null","","","video-keyboard-response","348","870951","0.0-348.0","emepc1uo","","","null","","<span style=""color:Black; font-size:50px;"">Sandy","Sandy","STIM_SET_13/1592817.bmp_pp73_L3_V1_veridical_freeview_isoFalse_fps144.mp4",""
"null","","","html-keyboard-response","349","872453","0.0-349.0","emepc1uo","","<span style=""color:Black; font-size:50px;"">Video 2</span>","null","","","","",""
"null","","","video-keyboard-response","350","875535","0.0-350.0","emepc1uo","","","null","","<span style=""color:Black; font-size:50px;"">Casey","Casey","STIM_SET_13/1592817.bmp_pp60_L3_V1_veridical_freeview_isoFalse_fps144.mp4",""
"","","","call-function","351","875536","0.0-351.0","emepc1uo","","","","","","","",""
"658.1450000000186","","","categorize-html","352","878201","0.0-352.0","emepc1uo","","Which video showed <span style=""font-size:30px"">Sandy's</span> attention?","49","","","","","true"
"null","","","html-keyboard-response","353","878703","0.0-353.0","emepc1uo",""," ","null","","","","",""
"","","","call-function","354","878703","0.0-354.0","emepc1uo","","","","","","","",""
"null","","","html-keyboard-response","355","880210","0.0-355.0","emepc1uo","","<span style=""color:Black; font-size:50px;"">Video 1</span>","null","","","","",""
"null","","","video-keyboard-response","356","883336","0.0-356.0","emepc1uo","","","null","","<span style=""color:Black; font-size:50px;"">Sandy","Sandy","STIM_SET_13/1159470.bmp_pp73_L3_V1_veridical_freeview_isoFalse_fps144.mp4",""
"null","","","html-keyboard-response","357","884841","0.0-357.0","emepc1uo","","<span style=""color:Black; font-size:50px;"">Video 2</span>","null","","","","",""
"null","","","video-keyboard-response","358","887959","0.0-358.0","emepc1uo","","","null","","<span style=""color:Black; font-size:50px;"">Casey","Casey","STIM_SET_13/1159470.bmp_pp60_L3_V1_veridical_freeview_isoFalse_fps144.mp4",""
"","","","call-function","359","887960","0.0-359.0","emepc1uo","","","","","","","",""
"1529.9899999999907","","","categorize-html","360","891494","0.0-360.0","emepc1uo","","Which video showed <span style=""font-size:30px"">Sandy's</span> attention?","49","","","","","true"
"null","","","html-keyboard-response","361","891996","0.0-361.0","emepc1uo",""," ","null","","","","",""
"","","","call-function","362","891996","0.0-362.0","emepc1uo","","","","","","","",""
"null","","","html-keyboard-response","363","893501","0.0-363.0","emepc1uo","","<span style=""color:Black; font-size:50px;"">Video 1</span>","null","","","","",""
"null","","","video-keyboard-response","364","896611","0.0-364.0","emepc1uo","","","null","","<span style=""color:Black; font-size:50px;"">Sandy","Sandy","STIM_SET_13/498058.bmp_pp73_L3_V1_veridical_freeview_isoFalse_fps144.mp4",""
"null","","","html-keyboard-response","365","898114","0.0-365.0","emepc1uo","","<span style=""color:Black; font-size:50px;"">Video 2</span>","null","","","","",""
"null","","","video-keyboard-response","366","901226","0.0-366.0","emepc1uo","","","null","","<span style=""color:Black; font-size:50px;"">Casey","Casey","STIM_SET_13/498058.bmp_pp60_L3_V1_veridical_freeview_isoFalse_fps144.mp4",""
"","","","call-function","367","901226","0.0-367.0","emepc1uo","","","","","","","",""
"4831.635000000009","","","categorize-html","368","908062","0.0-368.0","emepc1uo","","Which video showed <span style=""font-size:30px"">Sandy's</span> attention?","50","","","","","false"
"null","","","html-keyboard-response","369","908567","0.0-369.0","emepc1uo",""," ","null","","","","",""
"","","","call-function","370","908567","0.0-370.0","emepc1uo","","","","","","","",""
"null","","","html-keyboard-response","371","910069","0.0-371.0","emepc1uo","","<span style=""color:Black; font-size:50px;"">Video 1</span>","null","","","","",""
"null","","","video-keyboard-response","372","913179","0.0-372.0","emepc1uo","","","null","","<span style=""color:Black; font-size:50px;"">Casey","Casey","STIM_SET_13/498024.bmp_pp60_L3_V1_veridical_freeview_isoFalse_fps144.mp4",""
"null","","","html-keyboard-response","373","914685","0.0-373.0","emepc1uo","","<span style=""color:Black; font-size:50px;"">Video 2</span>","null","","","","",""
"null","","","video-keyboard-response","374","917798","0.0-374.0","emepc1uo","","","null","","<span style=""color:Black; font-size:50px;"">Sandy","Sandy","STIM_SET_13/498024.bmp_pp73_L3_V1_veridical_freeview_isoFalse_fps144.mp4",""
"","","","call-function","375","917798","0.0-375.0","emepc1uo","","","","","","","",""
"1147.594999999972","","","categorize-html","376","920952","0.0-376.0","emepc1uo","","Which video showed <span style=""font-size:30px"">Sandy's</span> attention?","49","","","","","false"
"null","","","html-keyboard-response","377","921457","0.0-377.0","emepc1uo",""," ","null","","","","",""
"","","","call-function","378","921458","0.0-378.0","emepc1uo","","","","","","","",""
"null","","","html-keyboard-response","379","922964","0.0-379.0","emepc1uo","","<span style=""color:Black; font-size:50px;"">Video 1</span>","null","","","","",""
"null","","","video-keyboard-response","380","926054","0.0-380.0","emepc1uo","","","null","","<span style=""color:Black; font-size:50px;"">Casey","Casey","STIM_SET_13/1593112.bmp_pp60_L3_V1_veridical_freeview_isoFalse_fps144.mp4",""
"null","","","html-keyboard-response","381","927561","0.0-381.0","emepc1uo","","<span style=""color:Black; font-size:50px;"">Video 2</span>","null","","","","",""
"null","","","video-keyboard-response","382","930644","0.0-382.0","emepc1uo","","","null","","<span style=""color:Black; font-size:50px;"">Sandy","Sandy","STIM_SET_13/1593112.bmp_pp73_L3_V1_veridical_freeview_isoFalse_fps144.mp4",""
"","","","call-function","383","930644","0.0-383.0","emepc1uo","","","","","","","",""
"1077.4350000000559","","","categorize-html","384","933728","0.0-384.0","emepc1uo","","Which video showed <span style=""font-size:30px"">Sandy's</span> attention?","49","","","","","false"
"null","","","html-keyboard-response","385","934233","0.0-385.0","emepc1uo",""," ","null","","","","",""
"","","","call-function","386","934233","0.0-386.0","emepc1uo","","","","","","","",""
"null","","","html-keyboard-response","387","935740","0.0-387.0","emepc1uo","","<span style=""color:Black; font-size:50px;"">Video 1</span>","null","","","","",""
"null","","","video-keyboard-response","388","938916","0.0-388.0","emepc1uo","","","null","","<span style=""color:Black; font-size:50px;"">Casey","Casey","STIM_SET_13/1593063.bmp_pp60_L3_V1_veridical_freeview_isoFalse_fps144.mp4",""
"null","","","html-keyboard-response","389","940422","0.0-389.0","emepc1uo","","<span style=""color:Black; font-size:50px;"">Video 2</span>","null","","","","",""
"null","","","video-keyboard-response","390","943515","0.0-390.0","emepc1uo","","","null","","<span style=""color:Black; font-size:50px;"">Sandy","Sandy","STIM_SET_13/1593063.bmp_pp73_L3_V1_veridical_freeview_isoFalse_fps144.mp4",""
"","","","call-function","391","943515","0.0-391.0","emepc1uo","","","","","","","",""
"1734.6350000000093","","","categorize-html","392","947255","0.0-392.0","emepc1uo","","Which video showed <span style=""font-size:30px"">Sandy's</span> attention?","49","","","","","false"
"null","","","html-keyboard-response","393","947759","0.0-393.0","emepc1uo",""," ","null","","","","",""
"","","","call-function","394","947760","0.0-394.0","emepc1uo","","","","","","","",""
"null","","","html-keyboard-response","395","949262","0.0-395.0","emepc1uo","","<span style=""color:Black; font-size:50px;"">Video 1</span>","null","","","","",""
"null","","","video-keyboard-response","396","952385","0.0-396.0","emepc1uo","","","null","","<span style=""color:Black; font-size:50px;"">Casey","Casey","STIM_SET_13/1159293.bmp_pp60_L3_V1_veridical_freeview_isoFalse_fps144.mp4",""
"null","","","html-keyboard-response","397","953886","0.0-397.0","emepc1uo","","<span style=""color:Black; font-size:50px;"">Video 2</span>","null","","","","",""
"null","","","video-keyboard-response","398","956990","0.0-398.0","emepc1uo","","","null","","<span style=""color:Black; font-size:50px;"">Sandy","Sandy","STIM_SET_13/1159293.bmp_pp73_L3_V1_veridical_freeview_isoFalse_fps144.mp4",""
"","","","call-function","399","956990","0.0-399.0","emepc1uo","","","","","","","",""
"475.86999999999534","","","categorize-html","400","959469","0.0-400.0","emepc1uo","","Which video showed <span style=""font-size:30px"">Sandy's</span> attention?","50","","","","","true"
"null","","","html-keyboard-response","401","959973","0.0-401.0","emepc1uo",""," ","null","","","","",""
"","","","call-function","402","959974","0.0-402.0","emepc1uo","","","","","","","",""
"null","","","html-keyboard-response","403","961476","0.0-403.0","emepc1uo","","<span style=""color:Black; font-size:50px;"">Video 1</span>","null","","","","",""
"null","","","video-keyboard-response","404","964573","0.0-404.0","emepc1uo","","","null","","<span style=""color:Black; font-size:50px;"">Casey","Casey","STIM_SET_13/1592693.bmp_pp60_L3_V1_veridical_freeview_isoFalse_fps144.mp4",""
"null","","","html-keyboard-response","405","966080","0.0-405.0","emepc1uo","","<span style=""color:Black; font-size:50px;"">Video 2</span>","null","","","","",""
"null","","","video-keyboard-response","406","969173","0.0-406.0","emepc1uo","","","null","","<span style=""color:Black; font-size:50px;"">Sandy","Sandy","STIM_SET_13/1592693.bmp_pp73_L3_V1_veridical_freeview_isoFalse_fps144.mp4",""
"","","","call-function","407","969173","0.0-407.0","emepc1uo","","","","","","","",""
"1196.4550000000745","","","categorize-html","408","972377","0.0-408.0","emepc1uo","","Which video showed <span style=""font-size:30px"">Sandy's</span> attention?","50","","","","","true"
"null","","","html-keyboard-response","409","972882","0.0-409.0","emepc1uo",""," ","null","","","","",""
"","","","call-function","410","972882","0.0-410.0","emepc1uo","","","","","","","",""
"null","","","html-keyboard-response","411","974385","0.0-411.0","emepc1uo","","<span style=""color:Black; font-size:50px;"">Video 1</span>","null","","","","",""
"null","","","video-keyboard-response","412","977518","0.0-412.0","emepc1uo","","","null","","<span style=""color:Black; font-size:50px;"">Casey","Casey","STIM_SET_13/498261.bmp_pp60_L3_V1_veridical_freeview_isoFalse_fps144.mp4",""
"null","","","html-keyboard-response","413","979021","0.0-413.0","emepc1uo","","<span style=""color:Black; font-size:50px;"">Video 2</span>","null","","","","",""
"null","","","video-keyboard-response","414","982134","0.0-414.0","emepc1uo","","","null","","<span style=""color:Black; font-size:50px;"">Sandy","Sandy","STIM_SET_13/498261.bmp_pp73_L3_V1_veridical_freeview_isoFalse_fps144.mp4",""
"","","","call-function","415","982134","0.0-415.0","emepc1uo","","","","","","","",""
"1195.4799999999814","","","categorize-html","416","985335","0.0-416.0","emepc1uo","","Which video showed <span style=""font-size:30px"">Sandy's</span> attention?","50","","","","","true"
"null","","","html-keyboard-response","417","985841","0.0-417.0","emepc1uo",""," ","null","","","","",""
"18607.640000000014","","","instructions","418","1004450","0.0-418.0","emepc1uo","[{""page_index"":0,""viewing_time"":16663.70000000007},{""page_index"":1,""viewing_time"":1612.9199999999255},{""page_index"":2,""viewing_time"":330.90500000002794}]","","","","","","",""
"2027.6750000000466","","","instructions","419","1006478","0.0-419.0","emepc1uo","[{""page_index"":0,""viewing_time"":212.96000000007916},{""page_index"":1,""viewing_time"":1289.6300000000047},{""page_index"":2,""viewing_time"":524.9699999999721}]","","","","","","",""
"","","","call-function","420","1006478","0.0-420.0","emepc1uo","","","","","","","",""
"null","","","html-keyboard-response","421","1007982","0.0-421.0","emepc1uo","","<span style=""color:Black; font-size:50px;"">Video 1</span>","null","","","","",""
"null","","","video-keyboard-response","422","1011074","0.0-422.0","emepc1uo","","","null","","<span style=""color:Black; font-size:50px;"">Casey","Casey","STIM_SET_13/1591920.bmp_pp60_L3_V1_veridical_freeview_isoFalse_fps144.mp4",""
"null","","","html-keyboard-response","423","1012576","0.0-423.0","emepc1uo","","<span style=""color:Black; font-size:50px;"">Video 2</span>","null","","","","",""
"null","","","video-keyboard-response","424","1015709","0.0-424.0","emepc1uo","","","null","","<span style=""color:Black; font-size:50px;"">Sandy","Sandy","STIM_SET_13/1591920.bmp_pp73_L3_V1_veridical_freeview_isoFalse_fps144.mp4",""
"","","","call-function","425","1015709","0.0-425.0","emepc1uo","","","","","","","",""
"3212.3950000000186","","","categorize-html","426","1020927","0.0-426.0","emepc1uo","","Which video showed <span style=""font-size:30px"">Sandy's</span> attention?","50","","","","","true"
"null","","","html-keyboard-response","427","1021431","0.0-427.0","emepc1uo",""," ","null","","","","",""
"","","","call-function","428","1021432","0.0-428.0","emepc1uo","","","","","","","",""
"null","","","html-keyboard-response","429","1022938","0.0-429.0","emepc1uo","","<span style=""color:Black; font-size:50px;"">Video 1</span>","null","","","","",""
"null","","","video-keyboard-response","430","1026008","0.0-430.0","emepc1uo","","","null","","<span style=""color:Black; font-size:50px;"">Casey","Casey","STIM_SET_13/1159379.bmp_pp60_L3_V1_veridical_freeview_isoFalse_fps144.mp4",""
"null","","","html-keyboard-response","431","1027515","0.0-431.0","emepc1uo","","<span style=""color:Black; font-size:50px;"">Video 2</span>","null","","","","",""
"null","","","video-keyboard-response","432","1030604","0.0-432.0","emepc1uo","","","null","","<span style=""color:Black; font-size:50px;"">Sandy","Sandy","STIM_SET_13/1159379.bmp_pp73_L3_V1_veridical_freeview_isoFalse_fps144.mp4",""
"","","","call-function","433","1030605","0.0-433.0","emepc1uo","","","","","","","",""
"1909.4399999999441","","","categorize-html","434","1034521","0.0-434.0","emepc1uo","","Which video showed <span style=""font-size:30px"">Sandy's</span> attention?","50","","","","","true"
"null","","","html-keyboard-response","435","1035028","0.0-435.0","emepc1uo",""," ","null","","","","",""
"","","","call-function","436","1035028","0.0-436.0","emepc1uo","","","","","","","",""
"null","","","html-keyboard-response","437","1036531","0.0-437.0","emepc1uo","","<span style=""color:Black; font-size:50px;"">Video 1</span>","null","","","","",""
"null","","","video-keyboard-response","438","1039657","0.0-438.0","emepc1uo","","","null","","<span style=""color:Black; font-size:50px;"">Casey","Casey","STIM_SET_13/713666.bmp_pp60_L3_V1_veridical_freeview_isoFalse_fps144.mp4",""
"null","","","html-keyboard-response","439","1041160","0.0-439.0","emepc1uo","","<span style=""color:Black; font-size:50px;"">Video 2</span>","null","","","","",""
"null","","","video-keyboard-response","440","1044263","0.0-440.0","emepc1uo","","","null","","<span style=""color:Black; font-size:50px;"">Sandy","Sandy","STIM_SET_13/713666.bmp_pp73_L3_V1_veridical_freeview_isoFalse_fps144.mp4",""
"","","","call-function","441","1044263","0.0-441.0","emepc1uo","","","","","","","",""
"1154.640000000014","","","categorize-html","442","1047423","0.0-442.0","emepc1uo","","Which video showed <span style=""font-size:30px"">Sandy's</span> attention?","49","","","","","false"
"null","","","html-keyboard-response","443","1047930","0.0-443.0","emepc1uo",""," ","null","","","","",""
"","","","call-function","444","1047930","0.0-444.0","emepc1uo","","","","","","","",""
"null","","","html-keyboard-response","445","1049434","0.0-445.0","emepc1uo","","<span style=""color:Black; font-size:50px;"">Video 1</span>","null","","","","",""
"null","","","video-keyboard-response","446","1052601","0.0-446.0","emepc1uo","","","null","","<span style=""color:Black; font-size:50px;"">Casey","Casey","STIM_SET_13/286034.bmp_pp60_L3_V1_veridical_freeview_isoFalse_fps144.mp4",""
"null","","","html-keyboard-response","447","1054104","0.0-447.0","emepc1uo","","<span style=""color:Black; font-size:50px;"">Video 2</span>","null","","","","",""
"null","","","video-keyboard-response","448","1057228","0.0-448.0","emepc1uo","","","null","","<span style=""color:Black; font-size:50px;"">Sandy","Sandy","STIM_SET_13/286034.bmp_pp73_L3_V1_veridical_freeview_isoFalse_fps144.mp4",""
"","","","call-function","449","1057228","0.0-449.0","emepc1uo","","","","","","","",""
"1213.6149999999907","","","categorize-html","450","1060450","0.0-450.0","emepc1uo","","Which video showed <span style=""font-size:30px"">Sandy's</span> attention?","50","","","","","true"
"null","","","html-keyboard-response","451","1060955","0.0-451.0","emepc1uo",""," ","null","","","","",""
"","","","call-function","452","1060956","0.0-452.0","emepc1uo","","","","","","","",""
"null","","","html-keyboard-response","453","1062462","0.0-453.0","emepc1uo","","<span style=""color:Black; font-size:50px;"">Video 1</span>","null","","","","",""
"null","","","video-keyboard-response","454","1065567","0.0-454.0","emepc1uo","","","null","","<span style=""color:Black; font-size:50px;"">Sandy","Sandy","STIM_SET_13/1593058.bmp_pp73_L3_V1_veridical_freeview_isoFalse_fps144.mp4",""
"null","","","html-keyboard-response","455","1067071","0.0-455.0","emepc1uo","","<span style=""color:Black; font-size:50px;"">Video 2</span>","null","","","","",""
"null","","","video-keyboard-response","456","1070171","0.0-456.0","emepc1uo","","","null","","<span style=""color:Black; font-size:50px;"">Casey","Casey","STIM_SET_13/1593058.bmp_pp60_L3_V1_veridical_freeview_isoFalse_fps144.mp4",""
"","","","call-function","457","1070172","0.0-457.0","emepc1uo","","","","","","","",""
"4174.445000000065","","","categorize-html","458","1076352","0.0-458.0","emepc1uo","","Which video showed <span style=""font-size:30px"">Sandy's</span> attention?","49","","","","","true"
"null","","","html-keyboard-response","459","1076858","0.0-459.0","emepc1uo",""," ","null","","","","",""
"","","","call-function","460","1076858","0.0-460.0","emepc1uo","","","","","","","",""
"null","","","html-keyboard-response","461","1078362","0.0-461.0","emepc1uo","","<span style=""color:Black; font-size:50px;"">Video 1</span>","null","","","","",""
"null","","","video-keyboard-response","462","1081442","0.0-462.0","emepc1uo","","","null","","<span style=""color:Black; font-size:50px;"">Casey","Casey","STIM_SET_13/1159829.bmp_pp60_L3_V1_veridical_freeview_isoFalse_fps144.mp4",""
"null","","","html-keyboard-response","463","1082948","0.0-463.0","emepc1uo","","<span style=""color:Black; font-size:50px;"">Video 2</span>","null","","","","",""
"null","","","video-keyboard-response","464","1086034","0.0-464.0","emepc1uo","","","null","","<span style=""color:Black; font-size:50px;"">Sandy","Sandy","STIM_SET_13/1159829.bmp_pp73_L3_V1_veridical_freeview_isoFalse_fps144.mp4",""
"","","","call-function","465","1086034","0.0-465.0","emepc1uo","","","","","","","",""
"1583.6350000000093","","","categorize-html","466","1089622","0.0-466.0","emepc1uo","","Which video showed <span style=""font-size:30px"">Sandy's</span> attention?","50","","","","","true"
"null","","","html-keyboard-response","467","1090128","0.0-467.0","emepc1uo",""," ","null","","","","",""
"","","","call-function","468","1090128","0.0-468.0","emepc1uo","","","","","","","",""
"null","","","html-keyboard-response","469","1091634","0.0-469.0","emepc1uo","","<span style=""color:Black; font-size:50px;"">Video 1</span>","null","","","","",""
"null","","","video-keyboard-response","470","1094719","0.0-470.0","emepc1uo","","","null","","<span style=""color:Black; font-size:50px;"">Sandy","Sandy","STIM_SET_13/713403.bmp_pp73_L3_V1_veridical_freeview_isoFalse_fps144.mp4",""
"null","","","html-keyboard-response","471","1096226","0.0-471.0","emepc1uo","","<span style=""color:Black; font-size:50px;"">Video 2</span>","null","","","","",""
"null","","","video-keyboard-response","472","1099329","0.0-472.0","emepc1uo","","","null","","<span style=""color:Black; font-size:50px;"">Casey","Casey","STIM_SET_13/713403.bmp_pp60_L3_V1_veridical_freeview_isoFalse_fps144.mp4",""
"","","","call-function","473","1099330","0.0-473.0","emepc1uo","","","","","","","",""
"1280.2450000001118","","","categorize-html","474","1102615","0.0-474.0","emepc1uo","","Which video showed <span style=""font-size:30px"">Sandy's</span> attention?","49","","","","","true"
"null","","","html-keyboard-response","475","1103118","0.0-475.0","emepc1uo",""," ","null","","","","",""
"","","","call-function","476","1103119","0.0-476.0","emepc1uo","","","","","","","",""
"null","","","html-keyboard-response","477","1104624","0.0-477.0","emepc1uo","","<span style=""color:Black; font-size:50px;"">Video 1</span>","null","","","","",""
"null","","","video-keyboard-response","478","1107724","0.0-478.0","emepc1uo","","","null","","<span style=""color:Black; font-size:50px;"">Sandy","Sandy","STIM_SET_13/1592350.bmp_pp73_L3_V1_veridical_freeview_isoFalse_fps144.mp4",""
"null","","","html-keyboard-response","479","1109226","0.0-479.0","emepc1uo","","<span style=""color:Black; font-size:50px;"">Video 2</span>","null","","","","",""
"null","","","video-keyboard-response","480","1112341","0.0-480.0","emepc1uo","","","null","","<span style=""color:Black; font-size:50px;"">Casey","Casey","STIM_SET_13/1592350.bmp_pp60_L3_V1_veridical_freeview_isoFalse_fps144.mp4",""
"","","","call-function","481","1112342","0.0-481.0","emepc1uo","","","","","","","",""
"1060.0349999999162","","","categorize-html","482","1115406","0.0-482.0","emepc1uo","","Which video showed <span style=""font-size:30px"">Sandy's</span> attention?","50","","","","","false"
"null","","","html-keyboard-response","483","1115913","0.0-483.0","emepc1uo",""," ","null","","","","",""
"","","","call-function","484","1115913","0.0-484.0","emepc1uo","","","","","","","",""
"null","","","html-keyboard-response","485","1117417","0.0-485.0","emepc1uo","","<span style=""color:Black; font-size:50px;"">Video 1</span>","null","","","","",""
"null","","","video-keyboard-response","486","1120552","0.0-486.0","emepc1uo","","","null","","<span style=""color:Black; font-size:50px;"">Sandy","Sandy","STIM_SET_13/1592289.bmp_pp73_L3_V1_veridical_freeview_isoFalse_fps144.mp4",""
"null","","","html-keyboard-response","487","1122058","0.0-487.0","emepc1uo","","<span style=""color:Black; font-size:50px;"">Video 2</span>","null","","","","",""
"null","","","video-keyboard-response","488","1125178","0.0-488.0","emepc1uo","","","null","","<span style=""color:Black; font-size:50px;"">Casey","Casey","STIM_SET_13/1592289.bmp_pp60_L3_V1_veridical_freeview_isoFalse_fps144.mp4",""
"","","","call-function","489","1125179","0.0-489.0","emepc1uo","","","","","","","",""
"1909.9899999999907","","","categorize-html","490","1129097","0.0-490.0","emepc1uo","","Which video showed <span style=""font-size:30px"">Sandy's</span> attention?","49","","","","","true"
"null","","","html-keyboard-response","491","1129600","0.0-491.0","emepc1uo",""," ","null","","","","",""
"","","","call-function","492","1129600","0.0-492.0","emepc1uo","","","","","","","",""
"null","","","html-keyboard-response","493","1131104","0.0-493.0","emepc1uo","","<span style=""color:Black; font-size:50px;"">Video 1</span>","null","","","","",""
"null","","","video-keyboard-response","494","1134217","0.0-494.0","emepc1uo","","","null","","<span style=""color:Black; font-size:50px;"">Sandy","Sandy","STIM_SET_13/285751.bmp_pp73_L3_V1_veridical_freeview_isoFalse_fps144.mp4",""
"null","","","html-keyboard-response","495","1135720","0.0-495.0","emepc1uo","","<span style=""color:Black; font-size:50px;"">Video 2</span>","null","","","","",""
"null","","","video-keyboard-response","496","1138826","0.0-496.0","emepc1uo","","","null","","<span style=""color:Black; font-size:50px;"">Casey","Casey","STIM_SET_13/285751.bmp_pp60_L3_V1_veridical_freeview_isoFalse_fps144.mp4",""
"","","","call-function","497","1138826","0.0-497.0","emepc1uo","","","","","","","",""
"1079.7749999999069","","","categorize-html","498","1141911","0.0-498.0","emepc1uo","","Which video showed <span style=""font-size:30px"">Sandy's</span> attention?","49","","","","","true"
"null","","","html-keyboard-response","499","1142415","0.0-499.0","emepc1uo",""," ","null","","","","",""
"7221.260000000009","","","instructions","500","1149637","0.0-500.0","emepc1uo","[{""page_index"":0,""viewing_time"":5260.23499999987},{""page_index"":1,""viewing_time"":1351.9300000001676},{""page_index"":2,""viewing_time"":608.8899999998976}]","","","","","","",""
"1889.7749999999069","","","instructions","501","1151527","0.0-501.0","emepc1uo","[{""page_index"":0,""viewing_time"":300.6049999999814},{""page_index"":1,""viewing_time"":903.3850000000093},{""page_index"":2,""viewing_time"":685.6699999999255}]","","","","","","",""
"","","","call-function","502","1151527","0.0-502.0","emepc1uo","","","","","","","",""
"null","","","html-keyboard-response","503","1153028","0.0-503.0","emepc1uo","","<span style=""color:Black; font-size:50px;"">Video 1</span>","null","","","","",""
"null","","","video-keyboard-response","504","1156106","0.0-504.0","emepc1uo","","","null","","<span style=""color:Black; font-size:50px;"">Sandy","Sandy","STIM_SET_13/1592951.bmp_pp73_L3_V1_veridical_freeview_isoFalse_fps144.mp4",""
"null","","","html-keyboard-response","505","1157611","0.0-505.0","emepc1uo","","<span style=""color:Black; font-size:50px;"">Video 2</span>","null","","","","",""
"null","","","video-keyboard-response","506","1160692","0.0-506.0","emepc1uo","","","null","","<span style=""color:Black; font-size:50px;"">Casey","Casey","STIM_SET_13/1592951.bmp_pp60_L3_V1_veridical_freeview_isoFalse_fps144.mp4",""
"","","","call-function","507","1160692","0.0-507.0","emepc1uo","","","","","","","",""
"1045.8249999999534","","","categorize-html","508","1163740","0.0-508.0","emepc1uo","","Which video showed <span style=""font-size:30px"">Sandy's</span> attention?","49","","","","","true"
"null","","","html-keyboard-response","509","1164244","0.0-509.0","emepc1uo",""," ","null","","","","",""
"","","","call-function","510","1164244","0.0-510.0","emepc1uo","","","","","","","",""
"null","","","html-keyboard-response","511","1165746","0.0-511.0","emepc1uo","","<span style=""color:Black; font-size:50px;"">Video 1</span>","null","","","","",""
"null","","","video-keyboard-response","512","1168826","0.0-512.0","emepc1uo","","","null","","<span style=""color:Black; font-size:50px;"">Sandy","Sandy","STIM_SET_13/713640.bmp_pp73_L3_V1_veridical_freeview_isoFalse_fps144.mp4",""
"null","","","html-keyboard-response","513","1170330","0.0-513.0","emepc1uo","","<span style=""color:Black; font-size:50px;"">Video 2</span>","null","","","","",""
"null","","","video-keyboard-response","514","1173409","0.0-514.0","emepc1uo","","","null","","<span style=""color:Black; font-size:50px;"">Casey","Casey","STIM_SET_13/713640.bmp_pp60_L3_V1_veridical_freeview_isoFalse_fps144.mp4",""
"","","","call-function","515","1173409","0.0-515.0","emepc1uo","","","","","","","",""
"968.9749999998603","","","categorize-html","516","1176382","0.0-516.0","emepc1uo","","Which video showed <span style=""font-size:30px"">Sandy's</span> attention?","49","","","","","true"
"null","","","html-keyboard-response","517","1176889","0.0-517.0","emepc1uo",""," ","null","","","","",""
"","","","call-function","518","1176890","0.0-518.0","emepc1uo","","","","","","","",""
"null","","","html-keyboard-response","519","1178391","0.0-519.0","emepc1uo","","<span style=""color:Black; font-size:50px;"">Video 1</span>","null","","","","",""
"null","","","video-keyboard-response","520","1181502","0.0-520.0","emepc1uo","","","null","","<span style=""color:Black; font-size:50px;"">Casey","Casey","STIM_SET_13/1592921.bmp_pp60_L3_V1_veridical_freeview_isoFalse_fps144.mp4",""
"null","","","html-keyboard-response","521","1183006","0.0-521.0","emepc1uo","","<span style=""color:Black; font-size:50px;"">Video 2</span>","null","","","","",""
"null","","","video-keyboard-response","522","1186126","0.0-522.0","emepc1uo","","","null","","<span style=""color:Black; font-size:50px;"">Sandy","Sandy","STIM_SET_13/1592921.bmp_pp73_L3_V1_veridical_freeview_isoFalse_fps144.mp4",""
"","","","call-function","523","1186127","0.0-523.0","emepc1uo","","","","","","","",""
"2419.119999999879","","","categorize-html","524","1190552","0.0-524.0","emepc1uo","","Which video showed <span style=""font-size:30px"">Sandy's</span> attention?","50","","","","","true"
"null","","","html-keyboard-response","525","1191055","0.0-525.0","emepc1uo",""," ","null","","","","",""
"","","","call-function","526","1191055","0.0-526.0","emepc1uo","","","","","","","",""
"null","","","html-keyboard-response","527","1192562","0.0-527.0","emepc1uo","","<span style=""color:Black; font-size:50px;"">Video 1</span>","null","","","","",""
"null","","","video-keyboard-response","528","1195686","0.0-528.0","emepc1uo","","","null","","<span style=""color:Black; font-size:50px;"">Sandy","Sandy","STIM_SET_13/285994.bmp_pp73_L3_V1_veridical_freeview_isoFalse_fps144.mp4",""
"null","","","html-keyboard-response","529","1197191","0.0-529.0","emepc1uo","","<span style=""color:Black; font-size:50px;"">Video 2</span>","null","","","","",""
"null","","","video-keyboard-response","530","1200311","0.0-530.0","emepc1uo","","","null","","<span style=""color:Black; font-size:50px;"">Casey","Casey","STIM_SET_13/285994.bmp_pp60_L3_V1_veridical_freeview_isoFalse_fps144.mp4",""
"","","","call-function","531","1200311","0.0-531.0","emepc1uo","","","","","","","",""
"2755.590000000084","","","categorize-html","532","1205072","0.0-532.0","emepc1uo","","Which video showed <span style=""font-size:30px"">Sandy's</span> attention?","49","","","","","true"
"null","","","html-keyboard-response","533","1205575","0.0-533.0","emepc1uo",""," ","null","","","","",""
"","","","call-function","534","1205575","0.0-534.0","emepc1uo","","","","","","","",""
"null","","","html-keyboard-response","535","1207080","0.0-535.0","emepc1uo","","<span style=""color:Black; font-size:50px;"">Video 1</span>","null","","","","",""
"null","","","video-keyboard-response","536","1210188","0.0-536.0","emepc1uo","","","null","","<span style=""color:Black; font-size:50px;"">Sandy","Sandy","STIM_SET_13/1159956.bmp_pp73_L3_V1_veridical_freeview_isoFalse_fps144.mp4",""
"null","","","html-keyboard-response","537","1211691","0.0-537.0","emepc1uo","","<span style=""color:Black; font-size:50px;"">Video 2</span>","null","","","","",""
"null","","","video-keyboard-response","538","1214800","0.0-538.0","emepc1uo","","","null","","<span style=""color:Black; font-size:50px;"">Casey","Casey","STIM_SET_13/1159956.bmp_pp60_L3_V1_veridical_freeview_isoFalse_fps144.mp4",""
"","","","call-function","539","1214800","0.0-539.0","emepc1uo","","","","","","","",""
"946.0249999999069","","","categorize-html","540","1217750","0.0-540.0","emepc1uo","","Which video showed <span style=""font-size:30px"">Sandy's</span> attention?","49","","","","","true"
"null","","","html-keyboard-response","541","1218255","0.0-541.0","emepc1uo",""," ","null","","","","",""
"","","","call-function","542","1218255","0.0-542.0","emepc1uo","","","","","","","",""
"null","","","html-keyboard-response","543","1219759","0.0-543.0","emepc1uo","","<span style=""color:Black; font-size:50px;"">Video 1</span>","null","","","","",""
"null","","","video-keyboard-response","544","1224260","0.0-544.0","emepc1uo","","","null","","<span style=""color:Black; font-size:50px;"">Sandy","Sandy","STIM_SET_13/1592519.bmp_pp73_L3_V1_veridical_freeview_isoFalse_fps144.mp4",""
"null","","","html-keyboard-response","545","1225766","0.0-545.0","emepc1uo","","<span style=""color:Black; font-size:50px;"">Video 2</span>","null","","","","",""
"null","","","video-keyboard-response","546","1228858","0.0-546.0","emepc1uo","","","null","","<span style=""color:Black; font-size:50px;"">Casey","Casey","STIM_SET_13/1592519.bmp_pp60_L3_V1_veridical_freeview_isoFalse_fps144.mp4",""
"","","","call-function","547","1228858","0.0-547.0","emepc1uo","","","","","","","",""
"2384.059999999823","","","categorize-html","548","1233247","0.0-548.0","emepc1uo","","Which video showed <span style=""font-size:30px"">Sandy's</span> attention?","50","","","","","false"
"null","","","html-keyboard-response","549","1233753","0.0-549.0","emepc1uo",""," ","null","","","","",""
"","","","call-function","550","1233754","0.0-550.0","emepc1uo","","","","","","","",""
"null","","","html-keyboard-response","551","1235259","0.0-551.0","emepc1uo","","<span style=""color:Black; font-size:50px;"">Video 1</span>","null","","","","",""
"null","","","video-keyboard-response","552","1238342","0.0-552.0","emepc1uo","","","null","","<span style=""color:Black; font-size:50px;"">Sandy","Sandy","STIM_SET_13/498151.bmp_pp73_L3_V1_veridical_freeview_isoFalse_fps144.mp4",""
"null","","","html-keyboard-response","553","1239844","0.0-553.0","emepc1uo","","<span style=""color:Black; font-size:50px;"">Video 2</span>","null","","","","",""
"null","","","video-keyboard-response","554","1242923","0.0-554.0","emepc1uo","","","null","","<span style=""color:Black; font-size:50px;"">Casey","Casey","STIM_SET_13/498151.bmp_pp60_L3_V1_veridical_freeview_isoFalse_fps144.mp4",""
"","","","call-function","555","1242923","0.0-555.0","emepc1uo","","","","","","","",""
"1783.0149999998976","","","categorize-html","556","1246709","0.0-556.0","emepc1uo","","Which video showed <span style=""font-size:30px"">Sandy's</span> attention?","49","","","","","true"
"null","","","html-keyboard-response","557","1247212","0.0-557.0","emepc1uo",""," ","null","","","","",""
"","","","call-function","558","1247212","0.0-558.0","emepc1uo","","","","","","","",""
"null","","","html-keyboard-response","559","1248716","0.0-559.0","emepc1uo","","<span style=""color:Black; font-size:50px;"">Video 1</span>","null","","","","",""
"null","","","video-keyboard-response","560","1251822","0.0-560.0","emepc1uo","","","null","","<span style=""color:Black; font-size:50px;"">Casey","Casey","STIM_SET_13/1592581.bmp_pp60_L3_V1_veridical_freeview_isoFalse_fps144.mp4",""
"null","","","html-keyboard-response","561","1253328","0.0-561.0","emepc1uo","","<span style=""color:Black; font-size:50px;"">Video 2</span>","null","","","","",""
"null","","","video-keyboard-response","562","1256441","0.0-562.0","emepc1uo","","","null","","<span style=""color:Black; font-size:50px;"">Sandy","Sandy","STIM_SET_13/1592581.bmp_pp73_L3_V1_veridical_freeview_isoFalse_fps144.mp4",""
"","","","call-function","563","1256441","0.0-563.0","emepc1uo","","","","","","","",""
"2696.8000000000466","","","categorize-html","564","1261145","0.0-564.0","emepc1uo","","Which video showed <span style=""font-size:30px"">Sandy's</span> attention?","50","","","","","true"
"null","","","html-keyboard-response","565","1261648","0.0-565.0","emepc1uo",""," ","null","","","","",""
"","","","call-function","566","1261649","0.0-566.0","emepc1uo","","","","","","","",""
"null","","","html-keyboard-response","567","1263156","0.0-567.0","emepc1uo","","<span style=""color:Black; font-size:50px;"">Video 1</span>","null","","","","",""
"null","","","video-keyboard-response","568","1266246","0.0-568.0","emepc1uo","","","null","","<span style=""color:Black; font-size:50px;"">Casey","Casey","STIM_SET_13/1592619.bmp_pp60_L3_V1_veridical_freeview_isoFalse_fps144.mp4",""
"null","","","html-keyboard-response","569","1267752","0.0-569.0","emepc1uo","","<span style=""color:Black; font-size:50px;"">Video 2</span>","null","","","","",""
"null","","","video-keyboard-response","570","1270837","0.0-570.0","emepc1uo","","","null","","<span style=""color:Black; font-size:50px;"">Sandy","Sandy","STIM_SET_13/1592619.bmp_pp73_L3_V1_veridical_freeview_isoFalse_fps144.mp4",""
"","","","call-function","571","1270837","0.0-571.0","emepc1uo","","","","","","","",""
"1236.9749999998603","","","categorize-html","572","1274078","0.0-572.0","emepc1uo","","Which video showed <span style=""font-size:30px"">Sandy's</span> attention?","50","","","","","true"
"null","","","html-keyboard-response","573","1274585","0.0-573.0","emepc1uo",""," ","null","","","","",""
"","","","call-function","574","1274586","0.0-574.0","emepc1uo","","","","","","","",""
"null","","","html-keyboard-response","575","1276090","0.0-575.0","emepc1uo","","<span style=""color:Black; font-size:50px;"">Video 1</span>","null","","","","",""
"null","","","video-keyboard-response","576","1279199","0.0-576.0","emepc1uo","","","null","","<span style=""color:Black; font-size:50px;"">Sandy","Sandy","STIM_SET_13/713089.bmp_pp73_L3_V1_veridical_freeview_isoFalse_fps144.mp4",""
"null","","","html-keyboard-response","577","1280703","0.0-577.0","emepc1uo","","<span style=""color:Black; font-size:50px;"">Video 2</span>","null","","","","",""
"null","","","video-keyboard-response","578","1283806","0.0-578.0","emepc1uo","","","null","","<span style=""color:Black; font-size:50px;"">Casey","Casey","STIM_SET_13/713089.bmp_pp60_L3_V1_veridical_freeview_isoFalse_fps144.mp4",""
"","","","call-function","579","1283807","0.0-579.0","emepc1uo","","","","","","","",""
"2266.965000000084","","","categorize-html","580","1288077","0.0-580.0","emepc1uo","","Which video showed <span style=""font-size:30px"">Sandy's</span> attention?","50","","","","","false"
"null","","","html-keyboard-response","581","1288581","0.0-581.0","emepc1uo",""," ","null","","","","",""
"3458.4150000000373","","","instructions","582","1292040","0.0-582.0","emepc1uo","[{""page_index"":0,""viewing_time"":3458.2949999999255}]","","","","","","",""
"1519.7249999998603","","","instructions","583","1293560","0.0-583.0","emepc1uo","[{""page_index"":0,""viewing_time"":1519.6099999998696}]","","","","","","",""
"62843.2350000001","{""Q0"":""it was actuaplly interesting. I felt like I ama human pattern classifier. My back hurt from sitting in this position. ""}","","survey-text","584","1356409","0.0-584.0","emepc1uo","","","","","","","",""
"35948.705000000075","{""Q0"":""one person had a wider radius when they looked, look at more periphal parts and move they eyes faster. ""}","","survey-text","585","1392362","0.0-585.0","emepc1uo","","","","","","","",""
"16228.324999999953","{""Q0"":""sometime the videos were almost identical""}","","survey-text","586","1408594","0.0-586.0","emepc1uo","","","","","","","",""
"1845.6899999999441","","","instructions","587","1410441","0.0-587.0","emepc1uo","[{""page_index"":0,""viewing_time"":1845.214999999851}]","","","","","","",""
"26941.74500000011","{""Experimenter_end"":[""Printed ID# emepc1uo on consent form"",""Given subject SONA credit or payment"",""Given the subject debrief form""]}","[0]","survey-multi-select","588","1437385","0.0-588.0","emepc1uo","","","","","","","",""
