"rt","responses","question_order","trial_type","trial_index","time_elapsed","internal_node_id","ID","view_history","stimulus","key_press","value","agent","condition","image","correct"
"15415.18","{""Experimenter"":[""Confirmed subject's identity (ID card)"",""Confirmed normal or corrected-to-normal vision"",""Obtained consent (signature and date)"",""Checked the test room lighting"",""Checked computer screen lighting"",""Checked distance from screen to chin rest (50cm)"",""Cleaned and adjusted chin rest"",""Counterbalanced the order of the tasks"",""Opened the experiment in Firefox"",""Made the experiment full screen"",""Encouraged subject to silence phone, put away distractors, etc.""]}","[0]","survey-multi-select","0","15422","0.0-0.0","u977e3wb","","","","","","","",""
"27337.545","","","instructions","1","42761","0.0-1.0","u977e3wb","[{""page_index"":0,""viewing_time"":27336.994999999995}]","","","","","","",""
"6412.2750000000015","{""Age"":3,""Sex"":1,""Gender"":1}","[0,1,2]","survey-likert","2","49176","0.0-2.0","u977e3wb","","","","","","","",""
"2848.459999999999","","","instructions","3","52026","0.0-3.0","u977e3wb","[{""page_index"":0,""viewing_time"":2848.355000000003}]","","","","","","",""
"10250.154999999999","","","instructions","4","62276","0.0-4.0","u977e3wb","[{""page_index"":0,""viewing_time"":894.7350000000006},{""page_index"":1,""viewing_time"":3144.0799999999945},{""page_index"":2,""viewing_time"":6211.209999999999}]","","","","","","",""
"1816.5350000000035","","","instructions","5","64093","0.0-5.0","u977e3wb","[{""page_index"":0,""viewing_time"":1816.4300000000003}]","","","","","","",""
"null","","","video-keyboard-response","6","67172","0.0-6.0","u977e3wb","","","null","","","","",""
"31804.545","","","instructions","7","98977","0.0-7.0","u977e3wb","[{""page_index"":0,""viewing_time"":3036.439999999988},{""page_index"":1,""viewing_time"":2223.970000000001},{""page_index"":2,""viewing_time"":940.0299999999988},{""page_index"":3,""viewing_time"":3950.3899999999994},{""page_index"":4,""viewing_time"":4486.045000000013},{""page_index"":3,""viewing_time"":3734.5949999999866},{""page_index"":4,""viewing_time"":1408.9100000000035},{""page_index"":5,""viewing_time"":5684.184999999998},{""page_index"":6,""viewing_time"":4253.020000000004},{""page_index"":7,""viewing_time"":2086.8350000000064}]","","","","","","",""
"40039.68500000001","","","instructions","8","139017","0.0-8.0","u977e3wb","[{""page_index"":0,""viewing_time"":40039.43500000001}]","","","","","","",""
"3681.709999999992","","","instructions","9","142699","0.0-9.0","u977e3wb","[{""page_index"":0,""viewing_time"":3681.600000000006}]","","","","","","",""
"","","","call-function","10","142700","0.0-10.0","u977e3wb","","","","","","","",""
"null","","","html-keyboard-response","11","144206","0.0-11.0","u977e3wb","","<span style=""color:Black; font-size:50px;"">Video 1</span>","null","","","","",""
"null","","","video-keyboard-response","12","147266","0.0-12.0","u977e3wb","","","null","","<span style=""color:Black; font-size:50px;"">Sandy","Sandy","LEARNING_STIM_14/107909.bmp_pp82_L2_V1_veridical_freeview_isoFalse_fps144.mp4",""
"null","","","html-keyboard-response","13","148772","0.0-13.0","u977e3wb","","<span style=""color:Black; font-size:50px;"">Video 2</span>","null","","","","",""
"null","","","video-keyboard-response","14","151838","0.0-14.0","u977e3wb","","","null","","<span style=""color:Black; font-size:50px;"">Casey","Casey","LEARNING_STIM_14/107909.bmp_pp94_L2_V1_veridical_freeview_isoFalse_fps144.mp4",""
"","","","call-function","15","151838","0.0-15.0","u977e3wb","","","","","","","",""
"3836.4400000000023","","","categorize-html","16","157682","0.0-16.0","u977e3wb","","Which video showed <span style=""font-size:30px"">Sandy's</span> attention?","49","","","","","true"
"null","","","html-keyboard-response","17","158186","0.0-17.0","u977e3wb",""," ","null","","","","",""
"","","","call-function","18","158186","0.0-18.0","u977e3wb","","","","","","","",""
"null","","","html-keyboard-response","19","159689","0.0-19.0","u977e3wb","","<span style=""color:Black; font-size:50px;"">Video 1</span>","null","","","","",""
"null","","","video-keyboard-response","20","162749","0.0-20.0","u977e3wb","","","null","","<span style=""color:Black; font-size:50px;"">Sandy","Sandy","LEARNING_STIM_14/1159775.bmp_pp82_L2_V1_veridical_freeview_isoFalse_fps144.mp4",""
"null","","","html-keyboard-response","21","164251","0.0-21.0","u977e3wb","","<span style=""color:Black; font-size:50px;"">Video 2</span>","null","","","","",""
"null","","","video-keyboard-response","22","167327","0.0-22.0","u977e3wb","","","null","","<span style=""color:Black; font-size:50px;"">Casey","Casey","LEARNING_STIM_14/1159775.bmp_pp94_L2_V1_veridical_freeview_isoFalse_fps144.mp4",""
"","","","call-function","23","167328","0.0-23.0","u977e3wb","","","","","","","",""
"921.3449999999721","","","categorize-html","24","170251","0.0-24.0","u977e3wb","","Which video showed <span style=""font-size:30px"">Sandy's</span> attention?","49","","","","","true"
"null","","","html-keyboard-response","25","170754","0.0-25.0","u977e3wb",""," ","null","","","","",""
"","","","call-function","26","170755","0.0-26.0","u977e3wb","","","","","","","",""
"null","","","html-keyboard-response","27","172257","0.0-27.0","u977e3wb","","<span style=""color:Black; font-size:50px;"">Video 1</span>","null","","","","",""
"null","","","video-keyboard-response","28","175373","0.0-28.0","u977e3wb","","","null","","<span style=""color:Black; font-size:50px;"">Sandy","Sandy","LEARNING_STIM_14/1592401.bmp_pp82_L2_V1_veridical_freeview_isoFalse_fps144.mp4",""
"null","","","html-keyboard-response","29","176876","0.0-29.0","u977e3wb","","<span style=""color:Black; font-size:50px;"">Video 2</span>","null","","","","",""
"null","","","video-keyboard-response","30","179966","0.0-30.0","u977e3wb","","","null","","<span style=""color:Black; font-size:50px;"">Casey","Casey","LEARNING_STIM_14/1592401.bmp_pp94_L2_V1_veridical_freeview_isoFalse_fps144.mp4",""
"","","","call-function","31","179966","0.0-31.0","u977e3wb","","","","","","","",""
"827.2799999999988","","","categorize-html","32","182796","0.0-32.0","u977e3wb","","Which video showed <span style=""font-size:30px"">Sandy's</span> attention?","50","","","","","false"
"null","","","html-keyboard-response","33","183300","0.0-33.0","u977e3wb",""," ","null","","","","",""
"","","","call-function","34","183300","0.0-34.0","u977e3wb","","","","","","","",""
"null","","","html-keyboard-response","35","184803","0.0-35.0","u977e3wb","","<span style=""color:Black; font-size:50px;"">Video 1</span>","null","","","","",""
"null","","","video-keyboard-response","36","187887","0.0-36.0","u977e3wb","","","null","","<span style=""color:Black; font-size:50px;"">Casey","Casey","LEARNING_STIM_14/286001.bmp_pp94_L2_V1_veridical_freeview_isoFalse_fps144.mp4",""
"null","","","html-keyboard-response","37","189389","0.0-37.0","u977e3wb","","<span style=""color:Black; font-size:50px;"">Video 2</span>","null","","","","",""
"null","","","video-keyboard-response","38","192490","0.0-38.0","u977e3wb","","","null","","<span style=""color:Black; font-size:50px;"">Sandy","Sandy","LEARNING_STIM_14/286001.bmp_pp82_L2_V1_veridical_freeview_isoFalse_fps144.mp4",""
"","","","call-function","39","192490","0.0-39.0","u977e3wb","","","","","","","",""
"759.375","","","categorize-html","40","195253","0.0-40.0","u977e3wb","","Which video showed <span style=""font-size:30px"">Sandy's</span> attention?","49","","","","","false"
"null","","","html-keyboard-response","41","195760","0.0-41.0","u977e3wb",""," ","null","","","","",""
"","","","call-function","42","195761","0.0-42.0","u977e3wb","","","","","","","",""
"null","","","html-keyboard-response","43","197263","0.0-43.0","u977e3wb","","<span style=""color:Black; font-size:50px;"">Video 1</span>","null","","","","",""
"null","","","video-keyboard-response","44","200360","0.0-44.0","u977e3wb","","","null","","<span style=""color:Black; font-size:50px;"">Casey","Casey","LEARNING_STIM_14/1592044.bmp_pp94_L2_V1_veridical_freeview_isoFalse_fps144.mp4",""
"null","","","html-keyboard-response","45","201862","0.0-45.0","u977e3wb","","<span style=""color:Black; font-size:50px;"">Video 2</span>","null","","","","",""
"null","","","video-keyboard-response","46","204964","0.0-46.0","u977e3wb","","","null","","<span style=""color:Black; font-size:50px;"">Sandy","Sandy","LEARNING_STIM_14/1592044.bmp_pp82_L2_V1_veridical_freeview_isoFalse_fps144.mp4",""
"","","","call-function","47","204964","0.0-47.0","u977e3wb","","","","","","","",""
"620.9899999999907","","","categorize-html","48","207589","0.0-48.0","u977e3wb","","Which video showed <span style=""font-size:30px"">Sandy's</span> attention?","49","","","","","false"
"null","","","html-keyboard-response","49","208093","0.0-49.0","u977e3wb",""," ","null","","","","",""
"","","","call-function","50","208093","0.0-50.0","u977e3wb","","","","","","","",""
"null","","","html-keyboard-response","51","209596","0.0-51.0","u977e3wb","","<span style=""color:Black; font-size:50px;"">Video 1</span>","null","","","","",""
"null","","","video-keyboard-response","52","212657","0.0-52.0","u977e3wb","","","null","","<span style=""color:Black; font-size:50px;"">Sandy","Sandy","LEARNING_STIM_14/1592499.bmp_pp82_L2_V1_veridical_freeview_isoFalse_fps144.mp4",""
"null","","","html-keyboard-response","53","214162","0.0-53.0","u977e3wb","","<span style=""color:Black; font-size:50px;"">Video 2</span>","null","","","","",""
"null","","","video-keyboard-response","54","217224","0.0-54.0","u977e3wb","","","null","","<span style=""color:Black; font-size:50px;"">Casey","Casey","LEARNING_STIM_14/1592499.bmp_pp94_L2_V1_veridical_freeview_isoFalse_fps144.mp4",""
"","","","call-function","55","217225","0.0-55.0","u977e3wb","","","","","","","",""
"536.6149999999907","","","categorize-html","56","219764","0.0-56.0","u977e3wb","","Which video showed <span style=""font-size:30px"">Sandy's</span> attention?","49","","","","","true"
"null","","","html-keyboard-response","57","220266","0.0-57.0","u977e3wb",""," ","null","","","","",""
"","","","call-function","58","220266","0.0-58.0","u977e3wb","","","","","","","",""
"null","","","html-keyboard-response","59","221769","0.0-59.0","u977e3wb","","<span style=""color:Black; font-size:50px;"">Video 1</span>","null","","","","",""
"null","","","video-keyboard-response","60","224866","0.0-60.0","u977e3wb","","","null","","<span style=""color:Black; font-size:50px;"">Sandy","Sandy","LEARNING_STIM_14/107955.bmp_pp82_L2_V1_veridical_freeview_isoFalse_fps144.mp4",""
"null","","","html-keyboard-response","61","226369","0.0-61.0","u977e3wb","","<span style=""color:Black; font-size:50px;"">Video 2</span>","null","","","","",""
"null","","","video-keyboard-response","62","229430","0.0-62.0","u977e3wb","","","null","","<span style=""color:Black; font-size:50px;"">Casey","Casey","LEARNING_STIM_14/107955.bmp_pp94_L2_V1_veridical_freeview_isoFalse_fps144.mp4",""
"","","","call-function","63","229430","0.0-63.0","u977e3wb","","","","","","","",""
"1059.2450000000244","","","categorize-html","64","232493","0.0-64.0","u977e3wb","","Which video showed <span style=""font-size:30px"">Sandy's</span> attention?","50","","","","","false"
"null","","","html-keyboard-response","65","232998","0.0-65.0","u977e3wb",""," ","null","","","","",""
"","","","call-function","66","232998","0.0-66.0","u977e3wb","","","","","","","",""
"null","","","html-keyboard-response","67","234501","0.0-67.0","u977e3wb","","<span style=""color:Black; font-size:50px;"">Video 1</span>","null","","","","",""
"null","","","video-keyboard-response","68","237577","0.0-68.0","u977e3wb","","","null","","<span style=""color:Black; font-size:50px;"">Sandy","Sandy","LEARNING_STIM_14/1592193.bmp_pp82_L2_V1_veridical_freeview_isoFalse_fps144.mp4",""
"null","","","html-keyboard-response","69","239081","0.0-69.0","u977e3wb","","<span style=""color:Black; font-size:50px;"">Video 2</span>","null","","","","",""
"null","","","video-keyboard-response","70","242173","0.0-70.0","u977e3wb","","","null","","<span style=""color:Black; font-size:50px;"">Casey","Casey","LEARNING_STIM_14/1592193.bmp_pp94_L2_V1_veridical_freeview_isoFalse_fps144.mp4",""
"","","","call-function","71","242173","0.0-71.0","u977e3wb","","","","","","","",""
"1052.2149999999965","","","categorize-html","72","245232","0.0-72.0","u977e3wb","","Which video showed <span style=""font-size:30px"">Sandy's</span> attention?","49","","","","","true"
"null","","","html-keyboard-response","73","245739","0.0-73.0","u977e3wb",""," ","null","","","","",""
"","","","call-function","74","245739","0.0-74.0","u977e3wb","","","","","","","",""
"null","","","html-keyboard-response","75","247241","0.0-75.0","u977e3wb","","<span style=""color:Black; font-size:50px;"">Video 1</span>","null","","","","",""
"null","","","video-keyboard-response","76","250351","0.0-76.0","u977e3wb","","","null","","<span style=""color:Black; font-size:50px;"">Sandy","Sandy","LEARNING_STIM_14/1160155.bmp_pp82_L2_V1_veridical_freeview_isoFalse_fps144.mp4",""
"null","","","html-keyboard-response","77","251855","0.0-77.0","u977e3wb","","<span style=""color:Black; font-size:50px;"">Video 2</span>","null","","","","",""
"null","","","video-keyboard-response","78","254955","0.0-78.0","u977e3wb","","","null","","<span style=""color:Black; font-size:50px;"">Casey","Casey","LEARNING_STIM_14/1160155.bmp_pp94_L2_V1_veridical_freeview_isoFalse_fps144.mp4",""
"","","","call-function","79","254956","0.0-79.0","u977e3wb","","","","","","","",""
"677.6549999999988","","","categorize-html","80","257640","0.0-80.0","u977e3wb","","Which video showed <span style=""font-size:30px"">Sandy's</span> attention?","49","","","","","true"
"null","","","html-keyboard-response","81","258146","0.0-81.0","u977e3wb",""," ","null","","","","",""
"","","","call-function","82","258147","0.0-82.0","u977e3wb","","","","","","","",""
"null","","","html-keyboard-response","83","259649","0.0-83.0","u977e3wb","","<span style=""color:Black; font-size:50px;"">Video 1</span>","null","","","","",""
"null","","","video-keyboard-response","84","262742","0.0-84.0","u977e3wb","","","null","","<span style=""color:Black; font-size:50px;"">Casey","Casey","LEARNING_STIM_14/1159434.bmp_pp94_L2_V1_veridical_freeview_isoFalse_fps144.mp4",""
"null","","","html-keyboard-response","85","264245","0.0-85.0","u977e3wb","","<span style=""color:Black; font-size:50px;"">Video 2</span>","null","","","","",""
"null","","","video-keyboard-response","86","267338","0.0-86.0","u977e3wb","","","null","","<span style=""color:Black; font-size:50px;"">Sandy","Sandy","LEARNING_STIM_14/1159434.bmp_pp82_L2_V1_veridical_freeview_isoFalse_fps144.mp4",""
"","","","call-function","87","267338","0.0-87.0","u977e3wb","","","","","","","",""
"471.0800000000163","","","categorize-html","88","269813","0.0-88.0","u977e3wb","","Which video showed <span style=""font-size:30px"">Sandy's</span> attention?","49","","","","","false"
"null","","","html-keyboard-response","89","270318","0.0-89.0","u977e3wb",""," ","null","","","","",""
"151802.49500000005","","","instructions","90","422121","0.0-90.0","u977e3wb","[{""page_index"":0,""viewing_time"":150142.71500000003},{""page_index"":1,""viewing_time"":847.8499999999767},{""page_index"":2,""viewing_time"":811.8000000000466}]","","","","","","",""
"4005.1149999999907","","","instructions","91","426127","0.0-91.0","u977e3wb","[{""page_index"":0,""viewing_time"":1989.679999999993},{""page_index"":1,""viewing_time"":1953.2449999999953},{""page_index"":2,""viewing_time"":61.960000000020955}]","","","","","","",""
"","","","call-function","92","426128","0.0-92.0","u977e3wb","","","","","","","",""
"null","","","html-keyboard-response","93","427631","0.0-93.0","u977e3wb","","<span style=""color:Black; font-size:50px;"">Video 1</span>","null","","","","",""
"null","","","video-keyboard-response","94","430701","0.0-94.0","u977e3wb","","","null","","<span style=""color:Black; font-size:50px;"">Casey","Casey","LEARNING_STIM_14/1592083.bmp_pp94_L2_V1_veridical_freeview_isoFalse_fps144.mp4",""
"null","","","html-keyboard-response","95","432204","0.0-95.0","u977e3wb","","<span style=""color:Black; font-size:50px;"">Video 2</span>","null","","","","",""
"null","","","video-keyboard-response","96","435273","0.0-96.0","u977e3wb","","","null","","<span style=""color:Black; font-size:50px;"">Sandy","Sandy","LEARNING_STIM_14/1592083.bmp_pp82_L2_V1_veridical_freeview_isoFalse_fps144.mp4",""
"","","","call-function","97","435273","0.0-97.0","u977e3wb","","","","","","","",""
"1463.7399999999907","","","categorize-html","98","438744","0.0-98.0","u977e3wb","","Which video showed <span style=""font-size:30px"">Sandy's</span> attention?","49","","","","","false"
"null","","","html-keyboard-response","99","439249","0.0-99.0","u977e3wb",""," ","null","","","","",""
"","","","call-function","100","439249","0.0-100.0","u977e3wb","","","","","","","",""
"null","","","html-keyboard-response","101","440755","0.0-101.0","u977e3wb","","<span style=""color:Black; font-size:50px;"">Video 1</span>","null","","","","",""
"null","","","video-keyboard-response","102","443831","0.0-102.0","u977e3wb","","","null","","<span style=""color:Black; font-size:50px;"">Casey","Casey","LEARNING_STIM_14/1592394.bmp_pp94_L2_V1_veridical_freeview_isoFalse_fps144.mp4",""
"null","","","html-keyboard-response","103","445334","0.0-103.0","u977e3wb","","<span style=""color:Black; font-size:50px;"">Video 2</span>","null","","","","",""
"null","","","video-keyboard-response","104","448409","0.0-104.0","u977e3wb","","","null","","<span style=""color:Black; font-size:50px;"">Sandy","Sandy","LEARNING_STIM_14/1592394.bmp_pp82_L2_V1_veridical_freeview_isoFalse_fps144.mp4",""
"","","","call-function","105","448409","0.0-105.0","u977e3wb","","","","","","","",""
"1095.9500000000116","","","categorize-html","106","451512","0.0-106.0","u977e3wb","","Which video showed <span style=""font-size:30px"">Sandy's</span> attention?","50","","","","","true"
"null","","","html-keyboard-response","107","452015","0.0-107.0","u977e3wb",""," ","null","","","","",""
"","","","call-function","108","452015","0.0-108.0","u977e3wb","","","","","","","",""
"null","","","html-keyboard-response","109","453517","0.0-109.0","u977e3wb","","<span style=""color:Black; font-size:50px;"">Video 1</span>","null","","","","",""
"null","","","video-keyboard-response","110","456585","0.0-110.0","u977e3wb","","","null","","<span style=""color:Black; font-size:50px;"">Casey","Casey","LEARNING_STIM_14/1591961.bmp_pp94_L2_V1_veridical_freeview_isoFalse_fps144.mp4",""
"null","","","html-keyboard-response","111","458089","0.0-111.0","u977e3wb","","<span style=""color:Black; font-size:50px;"">Video 2</span>","null","","","","",""
"null","","","video-keyboard-response","112","461180","0.0-112.0","u977e3wb","","","null","","<span style=""color:Black; font-size:50px;"">Sandy","Sandy","LEARNING_STIM_14/1591961.bmp_pp82_L2_V1_veridical_freeview_isoFalse_fps144.mp4",""
"","","","call-function","113","461181","0.0-113.0","u977e3wb","","","","","","","",""
"1661.1350000000093","","","categorize-html","114","464847","0.0-114.0","u977e3wb","","Which video showed <span style=""font-size:30px"">Sandy's</span> attention?","50","","","","","true"
"null","","","html-keyboard-response","115","465351","0.0-115.0","u977e3wb",""," ","null","","","","",""
"","","","call-function","116","465351","0.0-116.0","u977e3wb","","","","","","","",""
"null","","","html-keyboard-response","117","466853","0.0-117.0","u977e3wb","","<span style=""color:Black; font-size:50px;"">Video 1</span>","null","","","","",""
"null","","","video-keyboard-response","118","469951","0.0-118.0","u977e3wb","","","null","","<span style=""color:Black; font-size:50px;"">Sandy","Sandy","LEARNING_STIM_14/1160180.bmp_pp82_L2_V1_veridical_freeview_isoFalse_fps144.mp4",""
"null","","","html-keyboard-response","119","471457","0.0-119.0","u977e3wb","","<span style=""color:Black; font-size:50px;"">Video 2</span>","null","","","","",""
"null","","","video-keyboard-response","120","474538","0.0-120.0","u977e3wb","","","null","","<span style=""color:Black; font-size:50px;"">Casey","Casey","LEARNING_STIM_14/1160180.bmp_pp94_L2_V1_veridical_freeview_isoFalse_fps144.mp4",""
"","","","call-function","121","474539","0.0-121.0","u977e3wb","","","","","","","",""
"1415.085000000021","","","categorize-html","122","477957","0.0-122.0","u977e3wb","","Which video showed <span style=""font-size:30px"">Sandy's</span> attention?","49","","","","","true"
"null","","","html-keyboard-response","123","478462","0.0-123.0","u977e3wb",""," ","null","","","","",""
"","","","call-function","124","478462","0.0-124.0","u977e3wb","","","","","","","",""
"null","","","html-keyboard-response","125","479963","0.0-125.0","u977e3wb","","<span style=""color:Black; font-size:50px;"">Video 1</span>","null","","","","",""
"null","","","video-keyboard-response","126","483060","0.0-126.0","u977e3wb","","","null","","<span style=""color:Black; font-size:50px;"">Sandy","Sandy","LEARNING_STIM_14/1592352.bmp_pp82_L2_V1_veridical_freeview_isoFalse_fps144.mp4",""
"null","","","html-keyboard-response","127","484563","0.0-127.0","u977e3wb","","<span style=""color:Black; font-size:50px;"">Video 2</span>","null","","","","",""
"null","","","video-keyboard-response","128","487658","0.0-128.0","u977e3wb","","","null","","<span style=""color:Black; font-size:50px;"">Casey","Casey","LEARNING_STIM_14/1592352.bmp_pp94_L2_V1_veridical_freeview_isoFalse_fps144.mp4",""
"","","","call-function","129","487658","0.0-129.0","u977e3wb","","","","","","","",""
"391.25","","","categorize-html","130","490054","0.0-130.0","u977e3wb","","Which video showed <span style=""font-size:30px"">Sandy's</span> attention?","50","","","","","false"
"null","","","html-keyboard-response","131","490558","0.0-131.0","u977e3wb",""," ","null","","","","",""
"","","","call-function","132","490558","0.0-132.0","u977e3wb","","","","","","","",""
"null","","","html-keyboard-response","133","492060","0.0-133.0","u977e3wb","","<span style=""color:Black; font-size:50px;"">Video 1</span>","null","","","","",""
"null","","","video-keyboard-response","134","495165","0.0-134.0","u977e3wb","","","null","","<span style=""color:Black; font-size:50px;"">Sandy","Sandy","LEARNING_STIM_14/1591805.bmp_pp82_L2_V1_veridical_freeview_isoFalse_fps144.mp4",""
"null","","","html-keyboard-response","135","496669","0.0-135.0","u977e3wb","","<span style=""color:Black; font-size:50px;"">Video 2</span>","null","","","","",""
"null","","","video-keyboard-response","136","499745","0.0-136.0","u977e3wb","","","null","","<span style=""color:Black; font-size:50px;"">Casey","Casey","LEARNING_STIM_14/1591805.bmp_pp94_L2_V1_veridical_freeview_isoFalse_fps144.mp4",""
"","","","call-function","137","499745","0.0-137.0","u977e3wb","","","","","","","",""
"488.54999999998836","","","categorize-html","138","502236","0.0-138.0","u977e3wb","","Which video showed <span style=""font-size:30px"">Sandy's</span> attention?","49","","","","","true"
"null","","","html-keyboard-response","139","502740","0.0-139.0","u977e3wb",""," ","null","","","","",""
"","","","call-function","140","502740","0.0-140.0","u977e3wb","","","","","","","",""
"null","","","html-keyboard-response","141","504245","0.0-141.0","u977e3wb","","<span style=""color:Black; font-size:50px;"">Video 1</span>","null","","","","",""
"null","","","video-keyboard-response","142","507314","0.0-142.0","u977e3wb","","","null","","<span style=""color:Black; font-size:50px;"">Sandy","Sandy","LEARNING_STIM_14/1159897.bmp_pp82_L2_V1_veridical_freeview_isoFalse_fps144.mp4",""
"null","","","html-keyboard-response","143","508817","0.0-143.0","u977e3wb","","<span style=""color:Black; font-size:50px;"">Video 2</span>","null","","","","",""
"null","","","video-keyboard-response","144","511886","0.0-144.0","u977e3wb","","","null","","<span style=""color:Black; font-size:50px;"">Casey","Casey","LEARNING_STIM_14/1159897.bmp_pp94_L2_V1_veridical_freeview_isoFalse_fps144.mp4",""
"","","","call-function","145","511886","0.0-145.0","u977e3wb","","","","","","","",""
"867.609999999986","","","categorize-html","146","514758","0.0-146.0","u977e3wb","","Which video showed <span style=""font-size:30px"">Sandy's</span> attention?","50","","","","","false"
"null","","","html-keyboard-response","147","515261","0.0-147.0","u977e3wb",""," ","null","","","","",""
"","","","call-function","148","515262","0.0-148.0","u977e3wb","","","","","","","",""
"null","","","html-keyboard-response","149","516766","0.0-149.0","u977e3wb","","<span style=""color:Black; font-size:50px;"">Video 1</span>","null","","","","",""
"null","","","video-keyboard-response","150","519835","0.0-150.0","u977e3wb","","","null","","<span style=""color:Black; font-size:50px;"">Casey","Casey","LEARNING_STIM_14/1160227.bmp_pp94_L2_V1_veridical_freeview_isoFalse_fps144.mp4",""
"null","","","html-keyboard-response","151","521337","0.0-151.0","u977e3wb","","<span style=""color:Black; font-size:50px;"">Video 2</span>","null","","","","",""
"null","","","video-keyboard-response","152","524432","0.0-152.0","u977e3wb","","","null","","<span style=""color:Black; font-size:50px;"">Sandy","Sandy","LEARNING_STIM_14/1160227.bmp_pp82_L2_V1_veridical_freeview_isoFalse_fps144.mp4",""
"","","","call-function","153","524432","0.0-153.0","u977e3wb","","","","","","","",""
"665.109999999986","","","categorize-html","154","527105","0.0-154.0","u977e3wb","","Which video showed <span style=""font-size:30px"">Sandy's</span> attention?","49","","","","","false"
"null","","","html-keyboard-response","155","527608","0.0-155.0","u977e3wb",""," ","null","","","","",""
"","","","call-function","156","527608","0.0-156.0","u977e3wb","","","","","","","",""
"null","","","html-keyboard-response","157","529113","0.0-157.0","u977e3wb","","<span style=""color:Black; font-size:50px;"">Video 1</span>","null","","","","",""
"null","","","video-keyboard-response","158","532203","0.0-158.0","u977e3wb","","","null","","<span style=""color:Black; font-size:50px;"">Sandy","Sandy","LEARNING_STIM_14/498281.bmp_pp82_L2_V1_veridical_freeview_isoFalse_fps144.mp4",""
"null","","","html-keyboard-response","159","533705","0.0-159.0","u977e3wb","","<span style=""color:Black; font-size:50px;"">Video 2</span>","null","","","","",""
"null","","","video-keyboard-response","160","536799","0.0-160.0","u977e3wb","","","null","","<span style=""color:Black; font-size:50px;"">Casey","Casey","LEARNING_STIM_14/498281.bmp_pp94_L2_V1_veridical_freeview_isoFalse_fps144.mp4",""
"","","","call-function","161","536799","0.0-161.0","u977e3wb","","","","","","","",""
"490.96000000007916","","","categorize-html","162","539295","0.0-162.0","u977e3wb","","Which video showed <span style=""font-size:30px"">Sandy's</span> attention?","50","","","","","false"
"null","","","html-keyboard-response","163","539797","0.0-163.0","u977e3wb",""," ","null","","","","",""
"","","","call-function","164","539797","0.0-164.0","u977e3wb","","","","","","","",""
"null","","","html-keyboard-response","165","541304","0.0-165.0","u977e3wb","","<span style=""color:Black; font-size:50px;"">Video 1</span>","null","","","","",""
"null","","","video-keyboard-response","166","544405","0.0-166.0","u977e3wb","","","null","","<span style=""color:Black; font-size:50px;"">Casey","Casey","LEARNING_STIM_14/1159847.bmp_pp94_L2_V1_veridical_freeview_isoFalse_fps144.mp4",""
"null","","","html-keyboard-response","167","545909","0.0-167.0","u977e3wb","","<span style=""color:Black; font-size:50px;"">Video 2</span>","null","","","","",""
"null","","","video-keyboard-response","168","549007","0.0-168.0","u977e3wb","","","null","","<span style=""color:Black; font-size:50px;"">Sandy","Sandy","LEARNING_STIM_14/1159847.bmp_pp82_L2_V1_veridical_freeview_isoFalse_fps144.mp4",""
"","","","call-function","169","549007","0.0-169.0","u977e3wb","","","","","","","",""
"458.9000000000233","","","categorize-html","170","551472","0.0-170.0","u977e3wb","","Which video showed <span style=""font-size:30px"">Sandy's</span> attention?","49","","","","","false"
"null","","","html-keyboard-response","171","551975","0.0-171.0","u977e3wb",""," ","null","","","","",""
"8657.650000000023","","","instructions","172","560633","0.0-172.0","u977e3wb","[{""page_index"":0,""viewing_time"":6693.6900000000605},{""page_index"":1,""viewing_time"":743.0749999999534},{""page_index"":2,""viewing_time"":1220.6850000000559}]","","","","","","",""
"5181.820000000065","","","instructions","173","565815","0.0-173.0","u977e3wb","[{""page_index"":0,""viewing_time"":4195.405000000028},{""page_index"":1,""viewing_time"":868.015000000014},{""page_index"":2,""viewing_time"":118.28999999992084}]","","","","","","",""
"","","","call-function","174","565815","0.0-174.0","u977e3wb","","","","","","","",""
"null","","","html-keyboard-response","175","567318","0.0-175.0","u977e3wb","","<span style=""color:Black; font-size:50px;"">Video 1</span>","null","","","","",""
"null","","","video-keyboard-response","176","570386","0.0-176.0","u977e3wb","","","null","","<span style=""color:Black; font-size:50px;"">Sandy","Sandy","LEARNING_STIM_14/1593006.bmp_pp82_L2_V1_veridical_freeview_isoFalse_fps144.mp4",""
"null","","","html-keyboard-response","177","571890","0.0-177.0","u977e3wb","","<span style=""color:Black; font-size:50px;"">Video 2</span>","null","","","","",""
"null","","","video-keyboard-response","178","574951","0.0-178.0","u977e3wb","","","null","","<span style=""color:Black; font-size:50px;"">Casey","Casey","LEARNING_STIM_14/1593006.bmp_pp94_L2_V1_veridical_freeview_isoFalse_fps144.mp4",""
"","","","call-function","179","574952","0.0-179.0","u977e3wb","","","","","","","",""
"994.015000000014","","","categorize-html","180","577952","0.0-180.0","u977e3wb","","Which video showed <span style=""font-size:30px"">Sandy's</span> attention?","49","","","","","true"
"null","","","html-keyboard-response","181","578458","0.0-181.0","u977e3wb",""," ","null","","","","",""
"","","","call-function","182","578459","0.0-182.0","u977e3wb","","","","","","","",""
"null","","","html-keyboard-response","183","579964","0.0-183.0","u977e3wb","","<span style=""color:Black; font-size:50px;"">Video 1</span>","null","","","","",""
"null","","","video-keyboard-response","184","583029","0.0-184.0","u977e3wb","","","null","","<span style=""color:Black; font-size:50px;"">Sandy","Sandy","LEARNING_STIM_14/498272.bmp_pp82_L2_V1_veridical_freeview_isoFalse_fps144.mp4",""
"null","","","html-keyboard-response","185","584532","0.0-185.0","u977e3wb","","<span style=""color:Black; font-size:50px;"">Video 2</span>","null","","","","",""
"null","","","video-keyboard-response","186","587608","0.0-186.0","u977e3wb","","","null","","<span style=""color:Black; font-size:50px;"">Casey","Casey","LEARNING_STIM_14/498272.bmp_pp94_L2_V1_veridical_freeview_isoFalse_fps144.mp4",""
"","","","call-function","187","587609","0.0-187.0","u977e3wb","","","","","","","",""
"617.2299999999814","","","categorize-html","188","590230","0.0-188.0","u977e3wb","","Which video showed <span style=""font-size:30px"">Sandy's</span> attention?","49","","","","","true"
"null","","","html-keyboard-response","189","590733","0.0-189.0","u977e3wb",""," ","null","","","","",""
"","","","call-function","190","590734","0.0-190.0","u977e3wb","","","","","","","",""
"null","","","html-keyboard-response","191","592236","0.0-191.0","u977e3wb","","<span style=""color:Black; font-size:50px;"">Video 1</span>","null","","","","",""
"null","","","video-keyboard-response","192","595341","0.0-192.0","u977e3wb","","","null","","<span style=""color:Black; font-size:50px;"">Sandy","Sandy","LEARNING_STIM_14/1160127.bmp_pp82_L2_V1_veridical_freeview_isoFalse_fps144.mp4",""
"null","","","html-keyboard-response","193","596847","0.0-193.0","u977e3wb","","<span style=""color:Black; font-size:50px;"">Video 2</span>","null","","","","",""
"null","","","video-keyboard-response","194","599935","0.0-194.0","u977e3wb","","","null","","<span style=""color:Black; font-size:50px;"">Casey","Casey","LEARNING_STIM_14/1160127.bmp_pp94_L2_V1_veridical_freeview_isoFalse_fps144.mp4",""
"","","","call-function","195","599936","0.0-195.0","u977e3wb","","","","","","","",""
"834.0700000000652","","","categorize-html","196","602778","0.0-196.0","u977e3wb","","Which video showed <span style=""font-size:30px"">Sandy's</span> attention?","50","","","","","false"
"null","","","html-keyboard-response","197","603284","0.0-197.0","u977e3wb",""," ","null","","","","",""
"","","","call-function","198","603285","0.0-198.0","u977e3wb","","","","","","","",""
"null","","","html-keyboard-response","199","604790","0.0-199.0","u977e3wb","","<span style=""color:Black; font-size:50px;"">Video 1</span>","null","","","","",""
"null","","","video-keyboard-response","200","607895","0.0-200.0","u977e3wb","","","null","","<span style=""color:Black; font-size:50px;"">Casey","Casey","LEARNING_STIM_14/498153.bmp_pp94_L2_V1_veridical_freeview_isoFalse_fps144.mp4",""
"null","","","html-keyboard-response","201","609398","0.0-201.0","u977e3wb","","<span style=""color:Black; font-size:50px;"">Video 2</span>","null","","","","",""
"null","","","video-keyboard-response","202","612492","0.0-202.0","u977e3wb","","","null","","<span style=""color:Black; font-size:50px;"">Sandy","Sandy","LEARNING_STIM_14/498153.bmp_pp82_L2_V1_veridical_freeview_isoFalse_fps144.mp4",""
"","","","call-function","203","612492","0.0-203.0","u977e3wb","","","","","","","",""
"669.6499999999069","","","categorize-html","204","615166","0.0-204.0","u977e3wb","","Which video showed <span style=""font-size:30px"">Sandy's</span> attention?","49","","","","","false"
"null","","","html-keyboard-response","205","615667","0.0-205.0","u977e3wb",""," ","null","","","","",""
"","","","call-function","206","615667","0.0-206.0","u977e3wb","","","","","","","",""
"null","","","html-keyboard-response","207","617173","0.0-207.0","u977e3wb","","<span style=""color:Black; font-size:50px;"">Video 1</span>","null","","","","",""
"null","","","video-keyboard-response","208","620263","0.0-208.0","u977e3wb","","","null","","<span style=""color:Black; font-size:50px;"">Sandy","Sandy","LEARNING_STIM_14/1159889.bmp_pp82_L2_V1_veridical_freeview_isoFalse_fps144.mp4",""
"null","","","html-keyboard-response","209","621766","0.0-209.0","u977e3wb","","<span style=""color:Black; font-size:50px;"">Video 2</span>","null","","","","",""
"null","","","video-keyboard-response","210","624848","0.0-210.0","u977e3wb","","","null","","<span style=""color:Black; font-size:50px;"">Casey","Casey","LEARNING_STIM_14/1159889.bmp_pp94_L2_V1_veridical_freeview_isoFalse_fps144.mp4",""
"","","","call-function","211","624849","0.0-211.0","u977e3wb","","","","","","","",""
"545.1650000000373","","","categorize-html","212","627399","0.0-212.0","u977e3wb","","Which video showed <span style=""font-size:30px"">Sandy's</span> attention?","49","","","","","true"
"null","","","html-keyboard-response","213","627905","0.0-213.0","u977e3wb",""," ","null","","","","",""
"","","","call-function","214","627905","0.0-214.0","u977e3wb","","","","","","","",""
"null","","","html-keyboard-response","215","629408","0.0-215.0","u977e3wb","","<span style=""color:Black; font-size:50px;"">Video 1</span>","null","","","","",""
"null","","","video-keyboard-response","216","632510","0.0-216.0","u977e3wb","","","null","","<span style=""color:Black; font-size:50px;"">Sandy","Sandy","LEARNING_STIM_14/1160093.bmp_pp82_L2_V1_veridical_freeview_isoFalse_fps144.mp4",""
"null","","","html-keyboard-response","217","634016","0.0-217.0","u977e3wb","","<span style=""color:Black; font-size:50px;"">Video 2</span>","null","","","","",""
"null","","","video-keyboard-response","218","637085","0.0-218.0","u977e3wb","","","null","","<span style=""color:Black; font-size:50px;"">Casey","Casey","LEARNING_STIM_14/1160093.bmp_pp94_L2_V1_veridical_freeview_isoFalse_fps144.mp4",""
"","","","call-function","219","637085","0.0-219.0","u977e3wb","","","","","","","",""
"1332.454999999958","","","categorize-html","220","640421","0.0-220.0","u977e3wb","","Which video showed <span style=""font-size:30px"">Sandy's</span> attention?","49","","","","","true"
"null","","","html-keyboard-response","221","640927","0.0-221.0","u977e3wb",""," ","null","","","","",""
"","","","call-function","222","640927","0.0-222.0","u977e3wb","","","","","","","",""
"null","","","html-keyboard-response","223","642433","0.0-223.0","u977e3wb","","<span style=""color:Black; font-size:50px;"">Video 1</span>","null","","","","",""
"null","","","video-keyboard-response","224","645499","0.0-224.0","u977e3wb","","","null","","<span style=""color:Black; font-size:50px;"">Casey","Casey","LEARNING_STIM_14/1159813.bmp_pp94_L2_V1_veridical_freeview_isoFalse_fps144.mp4",""
"null","","","html-keyboard-response","225","647004","0.0-225.0","u977e3wb","","<span style=""color:Black; font-size:50px;"">Video 2</span>","null","","","","",""
"null","","","video-keyboard-response","226","650079","0.0-226.0","u977e3wb","","","null","","<span style=""color:Black; font-size:50px;"">Sandy","Sandy","LEARNING_STIM_14/1159813.bmp_pp82_L2_V1_veridical_freeview_isoFalse_fps144.mp4",""
"","","","call-function","227","650079","0.0-227.0","u977e3wb","","","","","","","",""
"842.8000000000466","","","categorize-html","228","652927","0.0-228.0","u977e3wb","","Which video showed <span style=""font-size:30px"">Sandy's</span> attention?","49","","","","","false"
"null","","","html-keyboard-response","229","653430","0.0-229.0","u977e3wb",""," ","null","","","","",""
"","","","call-function","230","653431","0.0-230.0","u977e3wb","","","","","","","",""
"null","","","html-keyboard-response","231","654935","0.0-231.0","u977e3wb","","<span style=""color:Black; font-size:50px;"">Video 1</span>","null","","","","",""
"null","","","video-keyboard-response","232","658006","0.0-232.0","u977e3wb","","","null","","<span style=""color:Black; font-size:50px;"">Casey","Casey","LEARNING_STIM_14/1159904.bmp_pp94_L2_V1_veridical_freeview_isoFalse_fps144.mp4",""
"null","","","html-keyboard-response","233","659508","0.0-233.0","u977e3wb","","<span style=""color:Black; font-size:50px;"">Video 2</span>","null","","","","",""
"null","","","video-keyboard-response","234","662605","0.0-234.0","u977e3wb","","","null","","<span style=""color:Black; font-size:50px;"">Sandy","Sandy","LEARNING_STIM_14/1159904.bmp_pp82_L2_V1_veridical_freeview_isoFalse_fps144.mp4",""
"","","","call-function","235","662605","0.0-235.0","u977e3wb","","","","","","","",""
"764.6699999999255","","","categorize-html","236","665376","0.0-236.0","u977e3wb","","Which video showed <span style=""font-size:30px"">Sandy's</span> attention?","50","","","","","true"
"null","","","html-keyboard-response","237","665878","0.0-237.0","u977e3wb",""," ","null","","","","",""
"","","","call-function","238","665879","0.0-238.0","u977e3wb","","","","","","","",""
"null","","","html-keyboard-response","239","667385","0.0-239.0","u977e3wb","","<span style=""color:Black; font-size:50px;"">Video 1</span>","null","","","","",""
"null","","","video-keyboard-response","240","670475","0.0-240.0","u977e3wb","","","null","","<span style=""color:Black; font-size:50px;"">Casey","Casey","LEARNING_STIM_14/713807.bmp_pp94_L2_V1_veridical_freeview_isoFalse_fps144.mp4",""
"null","","","html-keyboard-response","241","671979","0.0-241.0","u977e3wb","","<span style=""color:Black; font-size:50px;"">Video 2</span>","null","","","","",""
"null","","","video-keyboard-response","242","675074","0.0-242.0","u977e3wb","","","null","","<span style=""color:Black; font-size:50px;"">Sandy","Sandy","LEARNING_STIM_14/713807.bmp_pp82_L2_V1_veridical_freeview_isoFalse_fps144.mp4",""
"","","","call-function","243","675074","0.0-243.0","u977e3wb","","","","","","","",""
"927.9350000000559","","","categorize-html","244","678007","0.0-244.0","u977e3wb","","Which video showed <span style=""font-size:30px"">Sandy's</span> attention?","49","","","","","false"
"null","","","html-keyboard-response","245","678510","0.0-245.0","u977e3wb",""," ","null","","","","",""
"","","","call-function","246","678510","0.0-246.0","u977e3wb","","","","","","","",""
"null","","","html-keyboard-response","247","680013","0.0-247.0","u977e3wb","","<span style=""color:Black; font-size:50px;"">Video 1</span>","null","","","","",""
"null","","","video-keyboard-response","248","683114","0.0-248.0","u977e3wb","","","null","","<span style=""color:Black; font-size:50px;"">Casey","Casey","LEARNING_STIM_14/61574.bmp_pp94_L2_V1_veridical_freeview_isoFalse_fps144.mp4",""
"null","","","html-keyboard-response","249","684616","0.0-249.0","u977e3wb","","<span style=""color:Black; font-size:50px;"">Video 2</span>","null","","","","",""
"null","","","video-keyboard-response","250","687738","0.0-250.0","u977e3wb","","","null","","<span style=""color:Black; font-size:50px;"">Sandy","Sandy","LEARNING_STIM_14/61574.bmp_pp82_L2_V1_veridical_freeview_isoFalse_fps144.mp4",""
"","","","call-function","251","687738","0.0-251.0","u977e3wb","","","","","","","",""
"496.0700000000652","","","categorize-html","252","690238","0.0-252.0","u977e3wb","","Which video showed <span style=""font-size:30px"">Sandy's</span> attention?","50","","","","","true"
"null","","","html-keyboard-response","253","690742","0.0-253.0","u977e3wb",""," ","null","","","","",""
"171717.24","","","instructions","254","862460","0.0-254.0","u977e3wb","[{""page_index"":0,""viewing_time"":169962.255},{""page_index"":1,""viewing_time"":893.6599999999162},{""page_index"":2,""viewing_time"":861.2150000000838}]","","","","","","",""
"7327.439999999944","","","instructions","255","869788","0.0-255.0","u977e3wb","[{""page_index"":0,""viewing_time"":2478.765000000014},{""page_index"":1,""viewing_time"":3096},{""page_index"":2,""viewing_time"":1752.5599999999395}]","","","","","","",""
"","","","call-function","256","869788","0.0-256.0","u977e3wb","","","","","","","",""
"null","","","html-keyboard-response","257","871295","0.0-257.0","u977e3wb","","<span style=""color:Black; font-size:50px;"">Video 1</span>","null","","","","",""
"null","","","video-keyboard-response","258","874374","0.0-258.0","u977e3wb","","","null","","<span style=""color:Black; font-size:50px;"">Casey","Casey","LEARNING_STIM_14/498372.bmp_pp94_L2_V1_veridical_freeview_isoFalse_fps144.mp4",""
"null","","","html-keyboard-response","259","875875","0.0-259.0","u977e3wb","","<span style=""color:Black; font-size:50px;"">Video 2</span>","null","","","","",""
"null","","","video-keyboard-response","260","878935","0.0-260.0","u977e3wb","","","null","","<span style=""color:Black; font-size:50px;"">Sandy","Sandy","LEARNING_STIM_14/498372.bmp_pp82_L2_V1_veridical_freeview_isoFalse_fps144.mp4",""
"","","","call-function","261","878935","0.0-261.0","u977e3wb","","","","","","","",""
"602.2749999999069","","","categorize-html","262","881540","0.0-262.0","u977e3wb","","Which video showed <span style=""font-size:30px"">Sandy's</span> attention?","49","","","","","false"
"null","","","html-keyboard-response","263","882045","0.0-263.0","u977e3wb",""," ","null","","","","",""
"","","","call-function","264","882045","0.0-264.0","u977e3wb","","","","","","","",""
"null","","","html-keyboard-response","265","883548","0.0-265.0","u977e3wb","","<span style=""color:Black; font-size:50px;"">Video 1</span>","null","","","","",""
"null","","","video-keyboard-response","266","886607","0.0-266.0","u977e3wb","","","null","","<span style=""color:Black; font-size:50px;"">Sandy","Sandy","LEARNING_STIM_14/107964.bmp_pp82_L2_V1_veridical_freeview_isoFalse_fps144.mp4",""
"null","","","html-keyboard-response","267","888110","0.0-267.0","u977e3wb","","<span style=""color:Black; font-size:50px;"">Video 2</span>","null","","","","",""
"null","","","video-keyboard-response","268","891184","0.0-268.0","u977e3wb","","","null","","<span style=""color:Black; font-size:50px;"">Casey","Casey","LEARNING_STIM_14/107964.bmp_pp94_L2_V1_veridical_freeview_isoFalse_fps144.mp4",""
"","","","call-function","269","891185","0.0-269.0","u977e3wb","","","","","","","",""
"561.640000000014","","","categorize-html","270","893749","0.0-270.0","u977e3wb","","Which video showed <span style=""font-size:30px"">Sandy's</span> attention?","49","","","","","true"
"null","","","html-keyboard-response","271","894256","0.0-271.0","u977e3wb",""," ","null","","","","",""
"","","","call-function","272","894256","0.0-272.0","u977e3wb","","","","","","","",""
"null","","","html-keyboard-response","273","895762","0.0-273.0","u977e3wb","","<span style=""color:Black; font-size:50px;"">Video 1</span>","null","","","","",""
"null","","","video-keyboard-response","274","898859","0.0-274.0","u977e3wb","","","null","","<span style=""color:Black; font-size:50px;"">Casey","Casey","LEARNING_STIM_14/1592620.bmp_pp94_L2_V1_veridical_freeview_isoFalse_fps144.mp4",""
"null","","","html-keyboard-response","275","900365","0.0-275.0","u977e3wb","","<span style=""color:Black; font-size:50px;"">Video 2</span>","null","","","","",""
"null","","","video-keyboard-response","276","903469","0.0-276.0","u977e3wb","","","null","","<span style=""color:Black; font-size:50px;"">Sandy","Sandy","LEARNING_STIM_14/1592620.bmp_pp82_L2_V1_veridical_freeview_isoFalse_fps144.mp4",""
"","","","call-function","277","903469","0.0-277.0","u977e3wb","","","","","","","",""
"660.8099999999395","","","categorize-html","278","906135","0.0-278.0","u977e3wb","","Which video showed <span style=""font-size:30px"">Sandy's</span> attention?","50","","","","","true"
"null","","","html-keyboard-response","279","906637","0.0-279.0","u977e3wb",""," ","null","","","","",""
"","","","call-function","280","906637","0.0-280.0","u977e3wb","","","","","","","",""
"null","","","html-keyboard-response","281","908142","0.0-281.0","u977e3wb","","<span style=""color:Black; font-size:50px;"">Video 1</span>","null","","","","",""
"null","","","video-keyboard-response","282","911240","0.0-282.0","u977e3wb","","","null","","<span style=""color:Black; font-size:50px;"">Sandy","Sandy","LEARNING_STIM_14/498226.bmp_pp82_L2_V1_veridical_freeview_isoFalse_fps144.mp4",""
"null","","","html-keyboard-response","283","912746","0.0-283.0","u977e3wb","","<span style=""color:Black; font-size:50px;"">Video 2</span>","null","","","","",""
"null","","","video-keyboard-response","284","915844","0.0-284.0","u977e3wb","","","null","","<span style=""color:Black; font-size:50px;"">Casey","Casey","LEARNING_STIM_14/498226.bmp_pp94_L2_V1_veridical_freeview_isoFalse_fps144.mp4",""
"","","","call-function","285","915844","0.0-285.0","u977e3wb","","","","","","","",""
"614.0200000000186","","","categorize-html","286","918463","0.0-286.0","u977e3wb","","Which video showed <span style=""font-size:30px"">Sandy's</span> attention?","49","","","","","true"
"null","","","html-keyboard-response","287","918969","0.0-287.0","u977e3wb",""," ","null","","","","",""
"","","","call-function","288","918969","0.0-288.0","u977e3wb","","","","","","","",""
"null","","","html-keyboard-response","289","920475","0.0-289.0","u977e3wb","","<span style=""color:Black; font-size:50px;"">Video 1</span>","null","","","","",""
"null","","","video-keyboard-response","290","923564","0.0-290.0","u977e3wb","","","null","","<span style=""color:Black; font-size:50px;"">Sandy","Sandy","LEARNING_STIM_14/150458.bmp_pp82_L2_V1_veridical_freeview_isoFalse_fps144.mp4",""
"null","","","html-keyboard-response","291","925067","0.0-291.0","u977e3wb","","<span style=""color:Black; font-size:50px;"">Video 2</span>","null","","","","",""
"null","","","video-keyboard-response","292","928167","0.0-292.0","u977e3wb","","","null","","<span style=""color:Black; font-size:50px;"">Casey","Casey","LEARNING_STIM_14/150458.bmp_pp94_L2_V1_veridical_freeview_isoFalse_fps144.mp4",""
"","","","call-function","293","928168","0.0-293.0","u977e3wb","","","","","","","",""
"578.6999999999534","","","categorize-html","294","930754","0.0-294.0","u977e3wb","","Which video showed <span style=""font-size:30px"">Sandy's</span> attention?","50","","","","","false"
"null","","","html-keyboard-response","295","931258","0.0-295.0","u977e3wb",""," ","null","","","","",""
"","","","call-function","296","931258","0.0-296.0","u977e3wb","","","","","","","",""
"null","","","html-keyboard-response","297","932765","0.0-297.0","u977e3wb","","<span style=""color:Black; font-size:50px;"">Video 1</span>","null","","","","",""
"null","","","video-keyboard-response","298","935857","0.0-298.0","u977e3wb","","","null","","<span style=""color:Black; font-size:50px;"">Sandy","Sandy","LEARNING_STIM_14/1592567.bmp_pp82_L2_V1_veridical_freeview_isoFalse_fps144.mp4",""
"null","","","html-keyboard-response","299","937359","0.0-299.0","u977e3wb","","<span style=""color:Black; font-size:50px;"">Video 2</span>","null","","","","",""
"null","","","video-keyboard-response","300","940434","0.0-300.0","u977e3wb","","","null","","<span style=""color:Black; font-size:50px;"">Casey","Casey","LEARNING_STIM_14/1592567.bmp_pp94_L2_V1_veridical_freeview_isoFalse_fps144.mp4",""
"","","","call-function","301","940434","0.0-301.0","u977e3wb","","","","","","","",""
"751.5450000000419","","","categorize-html","302","943190","0.0-302.0","u977e3wb","","Which video showed <span style=""font-size:30px"">Sandy's</span> attention?","49","","","","","true"
"null","","","html-keyboard-response","303","943694","0.0-303.0","u977e3wb",""," ","null","","","","",""
"","","","call-function","304","943695","0.0-304.0","u977e3wb","","","","","","","",""
"null","","","html-keyboard-response","305","945198","0.0-305.0","u977e3wb","","<span style=""color:Black; font-size:50px;"">Video 1</span>","null","","","","",""
"null","","","video-keyboard-response","306","948259","0.0-306.0","u977e3wb","","","null","","<span style=""color:Black; font-size:50px;"">Sandy","Sandy","LEARNING_STIM_14/1591859.bmp_pp82_L2_V1_veridical_freeview_isoFalse_fps144.mp4",""
"null","","","html-keyboard-response","307","949762","0.0-307.0","u977e3wb","","<span style=""color:Black; font-size:50px;"">Video 2</span>","null","","","","",""
"null","","","video-keyboard-response","308","952830","0.0-308.0","u977e3wb","","","null","","<span style=""color:Black; font-size:50px;"">Casey","Casey","LEARNING_STIM_14/1591859.bmp_pp94_L2_V1_veridical_freeview_isoFalse_fps144.mp4",""
"","","","call-function","309","952830","0.0-309.0","u977e3wb","","","","","","","",""
"444.4650000000838","","","categorize-html","310","955280","0.0-310.0","u977e3wb","","Which video showed <span style=""font-size:30px"">Sandy's</span> attention?","49","","","","","true"
"null","","","html-keyboard-response","311","955787","0.0-311.0","u977e3wb",""," ","null","","","","",""
"","","","call-function","312","955788","0.0-312.0","u977e3wb","","","","","","","",""
"null","","","html-keyboard-response","313","957289","0.0-313.0","u977e3wb","","<span style=""color:Black; font-size:50px;"">Video 1</span>","null","","","","",""
"null","","","video-keyboard-response","314","960363","0.0-314.0","u977e3wb","","","null","","<span style=""color:Black; font-size:50px;"">Casey","Casey","LEARNING_STIM_14/713112.bmp_pp94_L2_V1_veridical_freeview_isoFalse_fps144.mp4",""
"null","","","html-keyboard-response","315","961865","0.0-315.0","u977e3wb","","<span style=""color:Black; font-size:50px;"">Video 2</span>","null","","","","",""
"null","","","video-keyboard-response","316","964958","0.0-316.0","u977e3wb","","","null","","<span style=""color:Black; font-size:50px;"">Sandy","Sandy","LEARNING_STIM_14/713112.bmp_pp82_L2_V1_veridical_freeview_isoFalse_fps144.mp4",""
"","","","call-function","317","964958","0.0-317.0","u977e3wb","","","","","","","",""
"308.0449999999255","","","categorize-html","318","967269","0.0-318.0","u977e3wb","","Which video showed <span style=""font-size:30px"">Sandy's</span> attention?","49","","","","","false"
"null","","","html-keyboard-response","319","967773","0.0-319.0","u977e3wb",""," ","null","","","","",""
"","","","call-function","320","967773","0.0-320.0","u977e3wb","","","","","","","",""
"null","","","html-keyboard-response","321","969277","0.0-321.0","u977e3wb","","<span style=""color:Black; font-size:50px;"">Video 1</span>","null","","","","",""
"null","","","video-keyboard-response","322","972376","0.0-322.0","u977e3wb","","","null","","<span style=""color:Black; font-size:50px;"">Casey","Casey","LEARNING_STIM_14/713749.bmp_pp94_L2_V1_veridical_freeview_isoFalse_fps144.mp4",""
"null","","","html-keyboard-response","323","973883","0.0-323.0","u977e3wb","","<span style=""color:Black; font-size:50px;"">Video 2</span>","null","","","","",""
"null","","","video-keyboard-response","324","976972","0.0-324.0","u977e3wb","","","null","","<span style=""color:Black; font-size:50px;"">Sandy","Sandy","LEARNING_STIM_14/713749.bmp_pp82_L2_V1_veridical_freeview_isoFalse_fps144.mp4",""
"","","","call-function","325","976973","0.0-325.0","u977e3wb","","","","","","","",""
"557.7550000000047","","","categorize-html","326","979535","0.0-326.0","u977e3wb","","Which video showed <span style=""font-size:30px"">Sandy's</span> attention?","49","","","","","false"
"null","","","html-keyboard-response","327","980040","0.0-327.0","u977e3wb",""," ","null","","","","",""
"","","","call-function","328","980040","0.0-328.0","u977e3wb","","","","","","","",""
"null","","","html-keyboard-response","329","981542","0.0-329.0","u977e3wb","","<span style=""color:Black; font-size:50px;"">Video 1</span>","null","","","","",""
"null","","","video-keyboard-response","330","984637","0.0-330.0","u977e3wb","","","null","","<span style=""color:Black; font-size:50px;"">Casey","Casey","LEARNING_STIM_14/498111.bmp_pp94_L2_V1_veridical_freeview_isoFalse_fps144.mp4",""
"null","","","html-keyboard-response","331","986143","0.0-331.0","u977e3wb","","<span style=""color:Black; font-size:50px;"">Video 2</span>","null","","","","",""
"null","","","video-keyboard-response","332","989237","0.0-332.0","u977e3wb","","","null","","<span style=""color:Black; font-size:50px;"">Sandy","Sandy","LEARNING_STIM_14/498111.bmp_pp82_L2_V1_veridical_freeview_isoFalse_fps144.mp4",""
"","","","call-function","333","989237","0.0-333.0","u977e3wb","","","","","","","",""
"469.45000000006985","","","categorize-html","334","991712","0.0-334.0","u977e3wb","","Which video showed <span style=""font-size:30px"">Sandy's</span> attention?","49","","","","","false"
"null","","","html-keyboard-response","335","992216","0.0-335.0","u977e3wb",""," ","null","","","","",""
"3657.210000000079","","","instructions","336","995874","0.0-336.0","u977e3wb","[{""page_index"":0,""viewing_time"":3007.920000000042},{""page_index"":1,""viewing_time"":272.73499999998603},{""page_index"":2,""viewing_time"":376.44000000006054}]","","","","","","",""
"1178.0599999999395","","","instructions","337","997052","0.0-337.0","u977e3wb","[{""page_index"":0,""viewing_time"":356.1549999999115},{""page_index"":1,""viewing_time"":415.86000000010245},{""page_index"":2,""viewing_time"":405.93499999993946}]","","","","","","",""
"","","","call-function","338","997052","0.0-338.0","u977e3wb","","","","","","","",""
"null","","","html-keyboard-response","339","998556","0.0-339.0","u977e3wb","","<span style=""color:Black; font-size:50px;"">Video 1</span>","null","","","","",""
"null","","","video-keyboard-response","340","1001659","0.0-340.0","u977e3wb","","","null","","<span style=""color:Black; font-size:50px;"">Sandy","Sandy","LEARNING_STIM_14/1592254.bmp_pp82_L2_V1_veridical_freeview_isoFalse_fps144.mp4",""
"null","","","html-keyboard-response","341","1003160","0.0-341.0","u977e3wb","","<span style=""color:Black; font-size:50px;"">Video 2</span>","null","","","","",""
"null","","","video-keyboard-response","342","1006226","0.0-342.0","u977e3wb","","","null","","<span style=""color:Black; font-size:50px;"">Casey","Casey","LEARNING_STIM_14/1592254.bmp_pp94_L2_V1_veridical_freeview_isoFalse_fps144.mp4",""
"","","","call-function","343","1006226","0.0-343.0","u977e3wb","","","","","","","",""
"711.9699999999721","","","categorize-html","344","1008944","0.0-344.0","u977e3wb","","Which video showed <span style=""font-size:30px"">Sandy's</span> attention?","49","","","","","true"
"null","","","html-keyboard-response","345","1009450","0.0-345.0","u977e3wb",""," ","null","","","","",""
"","","","call-function","346","1009451","0.0-346.0","u977e3wb","","","","","","","",""
"null","","","html-keyboard-response","347","1010953","0.0-347.0","u977e3wb","","<span style=""color:Black; font-size:50px;"">Video 1</span>","null","","","","",""
"null","","","video-keyboard-response","348","1014020","0.0-348.0","u977e3wb","","","null","","<span style=""color:Black; font-size:50px;"">Casey","Casey","LEARNING_STIM_14/285993.bmp_pp94_L2_V1_veridical_freeview_isoFalse_fps144.mp4",""
"null","","","html-keyboard-response","349","1015526","0.0-349.0","u977e3wb","","<span style=""color:Black; font-size:50px;"">Video 2</span>","null","","","","",""
"null","","","video-keyboard-response","350","1018603","0.0-350.0","u977e3wb","","","null","","<span style=""color:Black; font-size:50px;"">Sandy","Sandy","LEARNING_STIM_14/285993.bmp_pp82_L2_V1_veridical_freeview_isoFalse_fps144.mp4",""
"","","","call-function","351","1018603","0.0-351.0","u977e3wb","","","","","","","",""
"398.9000000000233","","","categorize-html","352","1021009","0.0-352.0","u977e3wb","","Which video showed <span style=""font-size:30px"">Sandy's</span> attention?","49","","","","","false"
"null","","","html-keyboard-response","353","1021513","0.0-353.0","u977e3wb",""," ","null","","","","",""
"","","","call-function","354","1021513","0.0-354.0","u977e3wb","","","","","","","",""
"null","","","html-keyboard-response","355","1023017","0.0-355.0","u977e3wb","","<span style=""color:Black; font-size:50px;"">Video 1</span>","null","","","","",""
"null","","","video-keyboard-response","356","1026081","0.0-356.0","u977e3wb","","","null","","<span style=""color:Black; font-size:50px;"">Casey","Casey","LEARNING_STIM_14/1159392.bmp_pp94_L2_V1_veridical_freeview_isoFalse_fps144.mp4",""
"null","","","html-keyboard-response","357","1027585","0.0-357.0","u977e3wb","","<span style=""color:Black; font-size:50px;"">Video 2</span>","null","","","","",""
"null","","","video-keyboard-response","358","1030680","0.0-358.0","u977e3wb","","","null","","<span style=""color:Black; font-size:50px;"">Sandy","Sandy","LEARNING_STIM_14/1159392.bmp_pp82_L2_V1_veridical_freeview_isoFalse_fps144.mp4",""
"","","","call-function","359","1030680","0.0-359.0","u977e3wb","","","","","","","",""
"881.9799999999814","","","categorize-html","360","1033568","0.0-360.0","u977e3wb","","Which video showed <span style=""font-size:30px"">Sandy's</span> attention?","50","","","","","true"
"null","","","html-keyboard-response","361","1034071","0.0-361.0","u977e3wb",""," ","null","","","","",""
"","","","call-function","362","1034071","0.0-362.0","u977e3wb","","","","","","","",""
"null","","","html-keyboard-response","363","1035577","0.0-363.0","u977e3wb","","<span style=""color:Black; font-size:50px;"">Video 1</span>","null","","","","",""
"null","","","video-keyboard-response","364","1038658","0.0-364.0","u977e3wb","","","null","","<span style=""color:Black; font-size:50px;"">Casey","Casey","LEARNING_STIM_14/1592362.bmp_pp94_L2_V1_veridical_freeview_isoFalse_fps144.mp4",""
"null","","","html-keyboard-response","365","1040165","0.0-365.0","u977e3wb","","<span style=""color:Black; font-size:50px;"">Video 2</span>","null","","","","",""
"null","","","video-keyboard-response","366","1043261","0.0-366.0","u977e3wb","","","null","","<span style=""color:Black; font-size:50px;"">Sandy","Sandy","LEARNING_STIM_14/1592362.bmp_pp82_L2_V1_veridical_freeview_isoFalse_fps144.mp4",""
"","","","call-function","367","1043261","0.0-367.0","u977e3wb","","","","","","","",""
"661.1500000000233","","","categorize-html","368","1045928","0.0-368.0","u977e3wb","","Which video showed <span style=""font-size:30px"">Sandy's</span> attention?","50","","","","","true"
"null","","","html-keyboard-response","369","1046435","0.0-369.0","u977e3wb",""," ","null","","","","",""
"","","","call-function","370","1046435","0.0-370.0","u977e3wb","","","","","","","",""
"null","","","html-keyboard-response","371","1047938","0.0-371.0","u977e3wb","","<span style=""color:Black; font-size:50px;"">Video 1</span>","null","","","","",""
"null","","","video-keyboard-response","372","1051039","0.0-372.0","u977e3wb","","","null","","<span style=""color:Black; font-size:50px;"">Sandy","Sandy","LEARNING_STIM_14/285859.bmp_pp82_L2_V1_veridical_freeview_isoFalse_fps144.mp4",""
"null","","","html-keyboard-response","373","1052543","0.0-373.0","u977e3wb","","<span style=""color:Black; font-size:50px;"">Video 2</span>","null","","","","",""
"null","","","video-keyboard-response","374","1055637","0.0-374.0","u977e3wb","","","null","","<span style=""color:Black; font-size:50px;"">Casey","Casey","LEARNING_STIM_14/285859.bmp_pp94_L2_V1_veridical_freeview_isoFalse_fps144.mp4",""
"","","","call-function","375","1055638","0.0-375.0","u977e3wb","","","","","","","",""
"684.7600000000093","","","categorize-html","376","1058329","0.0-376.0","u977e3wb","","Which video showed <span style=""font-size:30px"">Sandy's</span> attention?","50","","","","","false"
"null","","","html-keyboard-response","377","1058835","0.0-377.0","u977e3wb",""," ","null","","","","",""
"","","","call-function","378","1058835","0.0-378.0","u977e3wb","","","","","","","",""
"null","","","html-keyboard-response","379","1060339","0.0-379.0","u977e3wb","","<span style=""color:Black; font-size:50px;"">Video 1</span>","null","","","","",""
"null","","","video-keyboard-response","380","1063427","0.0-380.0","u977e3wb","","","null","","<span style=""color:Black; font-size:50px;"">Casey","Casey","LEARNING_STIM_14/1160204.bmp_pp94_L2_V1_veridical_freeview_isoFalse_fps144.mp4",""
"null","","","html-keyboard-response","381","1064932","0.0-381.0","u977e3wb","","<span style=""color:Black; font-size:50px;"">Video 2</span>","null","","","","",""
"null","","","video-keyboard-response","382","1068028","0.0-382.0","u977e3wb","","","null","","<span style=""color:Black; font-size:50px;"">Sandy","Sandy","LEARNING_STIM_14/1160204.bmp_pp82_L2_V1_veridical_freeview_isoFalse_fps144.mp4",""
"","","","call-function","383","1068028","0.0-383.0","u977e3wb","","","","","","","",""
"566.3200000000652","","","categorize-html","384","1070601","0.0-384.0","u977e3wb","","Which video showed <span style=""font-size:30px"">Sandy's</span> attention?","49","","","","","false"
"null","","","html-keyboard-response","385","1071105","0.0-385.0","u977e3wb",""," ","null","","","","",""
"","","","call-function","386","1071105","0.0-386.0","u977e3wb","","","","","","","",""
"null","","","html-keyboard-response","387","1072608","0.0-387.0","u977e3wb","","<span style=""color:Black; font-size:50px;"">Video 1</span>","null","","","","",""
"null","","","video-keyboard-response","388","1075676","0.0-388.0","u977e3wb","","","null","","<span style=""color:Black; font-size:50px;"">Sandy","Sandy","LEARNING_STIM_14/498253.bmp_pp82_L2_V1_veridical_freeview_isoFalse_fps144.mp4",""
"null","","","html-keyboard-response","389","1077182","0.0-389.0","u977e3wb","","<span style=""color:Black; font-size:50px;"">Video 2</span>","null","","","","",""
"null","","","video-keyboard-response","390","1080241","0.0-390.0","u977e3wb","","","null","","<span style=""color:Black; font-size:50px;"">Casey","Casey","LEARNING_STIM_14/498253.bmp_pp94_L2_V1_veridical_freeview_isoFalse_fps144.mp4",""
"","","","call-function","391","1080241","0.0-391.0","u977e3wb","","","","","","","",""
"2913.3349999999627","","","categorize-html","392","1085162","0.0-392.0","u977e3wb","","Which video showed <span style=""font-size:30px"">Sandy's</span> attention?","50","","","","","false"
"null","","","html-keyboard-response","393","1085664","0.0-393.0","u977e3wb",""," ","null","","","","",""
"","","","call-function","394","1085665","0.0-394.0","u977e3wb","","","","","","","",""
"null","","","html-keyboard-response","395","1087166","0.0-395.0","u977e3wb","","<span style=""color:Black; font-size:50px;"">Video 1</span>","null","","","","",""
"null","","","video-keyboard-response","396","1090233","0.0-396.0","u977e3wb","","","null","","<span style=""color:Black; font-size:50px;"">Sandy","Sandy","LEARNING_STIM_14/713681.bmp_pp82_L2_V1_veridical_freeview_isoFalse_fps144.mp4",""
"465.16500000003725","","","html-keyboard-response","397","1090700","0.0-397.0","u977e3wb","","<span style=""color:Black; font-size:50px;"">Video 2</span>","49","","","","",""
"null","","","video-keyboard-response","398","1093765","0.0-398.0","u977e3wb","","","null","","<span style=""color:Black; font-size:50px;"">Casey","Casey","LEARNING_STIM_14/713681.bmp_pp94_L2_V1_veridical_freeview_isoFalse_fps144.mp4",""
"","","","call-function","399","1093766","0.0-399.0","u977e3wb","","","","","","","",""
"404.8200000000652","","","categorize-html","400","1096176","0.0-400.0","u977e3wb","","Which video showed <span style=""font-size:30px"">Sandy's</span> attention?","49","","","","","true"
"null","","","html-keyboard-response","401","1096679","0.0-401.0","u977e3wb",""," ","null","","","","",""
"","","","call-function","402","1096680","0.0-402.0","u977e3wb","","","","","","","",""
"null","","","html-keyboard-response","403","1098182","0.0-403.0","u977e3wb","","<span style=""color:Black; font-size:50px;"">Video 1</span>","null","","","","",""
"null","","","video-keyboard-response","404","1101264","0.0-404.0","u977e3wb","","","null","","<span style=""color:Black; font-size:50px;"">Sandy","Sandy","LEARNING_STIM_14/1159874.bmp_pp82_L2_V1_veridical_freeview_isoFalse_fps144.mp4",""
"null","","","html-keyboard-response","405","1102766","0.0-405.0","u977e3wb","","<span style=""color:Black; font-size:50px;"">Video 2</span>","null","","","","",""
"null","","","video-keyboard-response","406","1105862","0.0-406.0","u977e3wb","","","null","","<span style=""color:Black; font-size:50px;"">Casey","Casey","LEARNING_STIM_14/1159874.bmp_pp94_L2_V1_veridical_freeview_isoFalse_fps144.mp4",""
"","","","call-function","407","1105863","0.0-407.0","u977e3wb","","","","","","","",""
"1011.875","","","categorize-html","408","1108880","0.0-408.0","u977e3wb","","Which video showed <span style=""font-size:30px"">Sandy's</span> attention?","49","","","","","true"
"null","","","html-keyboard-response","409","1109383","0.0-409.0","u977e3wb",""," ","null","","","","",""
"","","","call-function","410","1109384","0.0-410.0","u977e3wb","","","","","","","",""
"null","","","html-keyboard-response","411","1110885","0.0-411.0","u977e3wb","","<span style=""color:Black; font-size:50px;"">Video 1</span>","null","","","","",""
"null","","","video-keyboard-response","412","1113970","0.0-412.0","u977e3wb","","","null","","<span style=""color:Black; font-size:50px;"">Casey","Casey","LEARNING_STIM_14/713779.bmp_pp94_L2_V1_veridical_freeview_isoFalse_fps144.mp4",""
"null","","","html-keyboard-response","413","1115474","0.0-413.0","u977e3wb","","<span style=""color:Black; font-size:50px;"">Video 2</span>","null","","","","",""
"null","","","video-keyboard-response","414","1118575","0.0-414.0","u977e3wb","","","null","","<span style=""color:Black; font-size:50px;"">Sandy","Sandy","LEARNING_STIM_14/713779.bmp_pp82_L2_V1_veridical_freeview_isoFalse_fps144.mp4",""
"","","","call-function","415","1118575","0.0-415.0","u977e3wb","","","","","","","",""
"435.45999999996275","","","categorize-html","416","1121015","0.0-416.0","u977e3wb","","Which video showed <span style=""font-size:30px"">Sandy's</span> attention?","49","","","","","false"
"null","","","html-keyboard-response","417","1121521","0.0-417.0","u977e3wb",""," ","null","","","","",""
"5564.785000000149","","","instructions","418","1127086","0.0-418.0","u977e3wb","[{""page_index"":0,""viewing_time"":4660.920000000158},{""page_index"":1,""viewing_time"":392.64999999990687},{""page_index"":2,""viewing_time"":511.1049999999814}]","","","","","","",""
"1667.7750000001397","","","instructions","419","1128754","0.0-419.0","u977e3wb","[{""page_index"":0,""viewing_time"":573.7050000000745},{""page_index"":1,""viewing_time"":485.9550000000745},{""page_index"":2,""viewing_time"":608}]","","","","","","",""
"","","","call-function","420","1128755","0.0-420.0","u977e3wb","","","","","","","",""
"null","","","html-keyboard-response","421","1130256","0.0-421.0","u977e3wb","","<span style=""color:Black; font-size:50px;"">Video 1</span>","null","","","","",""
"null","","","video-keyboard-response","422","1133361","0.0-422.0","u977e3wb","","","null","","<span style=""color:Black; font-size:50px;"">Sandy","Sandy","LEARNING_STIM_14/713003.bmp_pp82_L2_V1_veridical_freeview_isoFalse_fps144.mp4",""
"null","","","html-keyboard-response","423","1134868","0.0-423.0","u977e3wb","","<span style=""color:Black; font-size:50px;"">Video 2</span>","null","","","","",""
"null","","","video-keyboard-response","424","1137957","0.0-424.0","u977e3wb","","","null","","<span style=""color:Black; font-size:50px;"">Casey","Casey","LEARNING_STIM_14/713003.bmp_pp94_L2_V1_veridical_freeview_isoFalse_fps144.mp4",""
"","","","call-function","425","1137958","0.0-425.0","u977e3wb","","","","","","","",""
"524.4800000002142","","","categorize-html","426","1140486","0.0-426.0","u977e3wb","","Which video showed <span style=""font-size:30px"">Sandy's</span> attention?","50","","","","","false"
"null","","","html-keyboard-response","427","1140992","0.0-427.0","u977e3wb",""," ","null","","","","",""
"","","","call-function","428","1140993","0.0-428.0","u977e3wb","","","","","","","",""
"null","","","html-keyboard-response","429","1142497","0.0-429.0","u977e3wb","","<span style=""color:Black; font-size:50px;"">Video 1</span>","null","","","","",""
"null","","","video-keyboard-response","430","1145559","0.0-430.0","u977e3wb","","","null","","<span style=""color:Black; font-size:50px;"">Casey","Casey","LEARNING_STIM_14/1593035.bmp_pp94_L2_V1_veridical_freeview_isoFalse_fps144.mp4",""
"null","","","html-keyboard-response","431","1147061","0.0-431.0","u977e3wb","","<span style=""color:Black; font-size:50px;"">Video 2</span>","null","","","","",""
"null","","","video-keyboard-response","432","1150128","0.0-432.0","u977e3wb","","","null","","<span style=""color:Black; font-size:50px;"">Sandy","Sandy","LEARNING_STIM_14/1593035.bmp_pp82_L2_V1_veridical_freeview_isoFalse_fps144.mp4",""
"","","","call-function","433","1150128","0.0-433.0","u977e3wb","","","","","","","",""
"394.6149999999907","","","categorize-html","434","1152527","0.0-434.0","u977e3wb","","Which video showed <span style=""font-size:30px"">Sandy's</span> attention?","49","","","","","false"
"null","","","html-keyboard-response","435","1153029","0.0-435.0","u977e3wb",""," ","null","","","","",""
"","","","call-function","436","1153029","0.0-436.0","u977e3wb","","","","","","","",""
"null","","","html-keyboard-response","437","1154534","0.0-437.0","u977e3wb","","<span style=""color:Black; font-size:50px;"">Video 1</span>","null","","","","",""
"null","","","video-keyboard-response","438","1157610","0.0-438.0","u977e3wb","","","null","","<span style=""color:Black; font-size:50px;"">Casey","Casey","LEARNING_STIM_14/1591975.bmp_pp94_L2_V1_veridical_freeview_isoFalse_fps144.mp4",""
"null","","","html-keyboard-response","439","1159114","0.0-439.0","u977e3wb","","<span style=""color:Black; font-size:50px;"">Video 2</span>","null","","","","",""
"null","","","video-keyboard-response","440","1162186","0.0-440.0","u977e3wb","","","null","","<span style=""color:Black; font-size:50px;"">Sandy","Sandy","LEARNING_STIM_14/1591975.bmp_pp82_L2_V1_veridical_freeview_isoFalse_fps144.mp4",""
"","","","call-function","441","1162187","0.0-441.0","u977e3wb","","","","","","","",""
"496.0950000002049","","","categorize-html","442","1164686","0.0-442.0","u977e3wb","","Which video showed <span style=""font-size:30px"">Sandy's</span> attention?","50","","","","","true"
"null","","","html-keyboard-response","443","1165192","0.0-443.0","u977e3wb",""," ","null","","","","",""
"","","","call-function","444","1165193","0.0-444.0","u977e3wb","","","","","","","",""
"null","","","html-keyboard-response","445","1166697","0.0-445.0","u977e3wb","","<span style=""color:Black; font-size:50px;"">Video 1</span>","null","","","","",""
"null","","","video-keyboard-response","446","1169803","0.0-446.0","u977e3wb","","","null","","<span style=""color:Black; font-size:50px;"">Sandy","Sandy","LEARNING_STIM_14/1592747.bmp_pp82_L2_V1_veridical_freeview_isoFalse_fps144.mp4",""
"null","","","html-keyboard-response","447","1171309","0.0-447.0","u977e3wb","","<span style=""color:Black; font-size:50px;"">Video 2</span>","null","","","","",""
"null","","","video-keyboard-response","448","1174400","0.0-448.0","u977e3wb","","","null","","<span style=""color:Black; font-size:50px;"">Casey","Casey","LEARNING_STIM_14/1592747.bmp_pp94_L2_V1_veridical_freeview_isoFalse_fps144.mp4",""
"","","","call-function","449","1174400","0.0-449.0","u977e3wb","","","","","","","",""
"434.65500000002794","","","categorize-html","450","1176838","0.0-450.0","u977e3wb","","Which video showed <span style=""font-size:30px"">Sandy's</span> attention?","50","","","","","false"
"null","","","html-keyboard-response","451","1177345","0.0-451.0","u977e3wb",""," ","null","","","","",""
"","","","call-function","452","1177345","0.0-452.0","u977e3wb","","","","","","","",""
"null","","","html-keyboard-response","453","1178849","0.0-453.0","u977e3wb","","<span style=""color:Black; font-size:50px;"">Video 1</span>","null","","","","",""
"null","","","video-keyboard-response","454","1181945","0.0-454.0","u977e3wb","","","null","","<span style=""color:Black; font-size:50px;"">Sandy","Sandy","LEARNING_STIM_14/1592038.bmp_pp82_L2_V1_veridical_freeview_isoFalse_fps144.mp4",""
"null","","","html-keyboard-response","455","1183448","0.0-455.0","u977e3wb","","<span style=""color:Black; font-size:50px;"">Video 2</span>","null","","","","",""
"null","","","video-keyboard-response","456","1186533","0.0-456.0","u977e3wb","","","null","","<span style=""color:Black; font-size:50px;"">Casey","Casey","LEARNING_STIM_14/1592038.bmp_pp94_L2_V1_veridical_freeview_isoFalse_fps144.mp4",""
"","","","call-function","457","1186534","0.0-457.0","u977e3wb","","","","","","","",""
"684.9050000000279","","","categorize-html","458","1189224","0.0-458.0","u977e3wb","","Which video showed <span style=""font-size:30px"">Sandy's</span> attention?","49","","","","","true"
"null","","","html-keyboard-response","459","1189730","0.0-459.0","u977e3wb",""," ","null","","","","",""
"","","","call-function","460","1189730","0.0-460.0","u977e3wb","","","","","","","",""
"null","","","html-keyboard-response","461","1191233","0.0-461.0","u977e3wb","","<span style=""color:Black; font-size:50px;"">Video 1</span>","null","","","","",""
"null","","","video-keyboard-response","462","1194322","0.0-462.0","u977e3wb","","","null","","<span style=""color:Black; font-size:50px;"">Sandy","Sandy","LEARNING_STIM_14/713142.bmp_pp82_L2_V1_veridical_freeview_isoFalse_fps144.mp4",""
"null","","","html-keyboard-response","463","1195827","0.0-463.0","u977e3wb","","<span style=""color:Black; font-size:50px;"">Video 2</span>","null","","","","",""
"null","","","video-keyboard-response","464","1198927","0.0-464.0","u977e3wb","","","null","","<span style=""color:Black; font-size:50px;"">Casey","Casey","LEARNING_STIM_14/713142.bmp_pp94_L2_V1_veridical_freeview_isoFalse_fps144.mp4",""
"","","","call-function","465","1198927","0.0-465.0","u977e3wb","","","","","","","",""
"371.15500000002794","","","categorize-html","466","1201304","0.0-466.0","u977e3wb","","Which video showed <span style=""font-size:30px"">Sandy's</span> attention?","49","","","","","true"
"null","","","html-keyboard-response","467","1201807","0.0-467.0","u977e3wb",""," ","null","","","","",""
"","","","call-function","468","1201808","0.0-468.0","u977e3wb","","","","","","","",""
"null","","","html-keyboard-response","469","1203309","0.0-469.0","u977e3wb","","<span style=""color:Black; font-size:50px;"">Video 1</span>","null","","","","",""
"null","","","video-keyboard-response","470","1206414","0.0-470.0","u977e3wb","","","null","","<span style=""color:Black; font-size:50px;"">Casey","Casey","LEARNING_STIM_14/713146.bmp_pp94_L2_V1_veridical_freeview_isoFalse_fps144.mp4",""
"null","","","html-keyboard-response","471","1207917","0.0-471.0","u977e3wb","","<span style=""color:Black; font-size:50px;"">Video 2</span>","null","","","","",""
"null","","","video-keyboard-response","472","1210992","0.0-472.0","u977e3wb","","","null","","<span style=""color:Black; font-size:50px;"">Sandy","Sandy","LEARNING_STIM_14/713146.bmp_pp82_L2_V1_veridical_freeview_isoFalse_fps144.mp4",""
"","","","call-function","473","1210993","0.0-473.0","u977e3wb","","","","","","","",""
"609.6699999999255","","","categorize-html","474","1213607","0.0-474.0","u977e3wb","","Which video showed <span style=""font-size:30px"">Sandy's</span> attention?","49","","","","","false"
"null","","","html-keyboard-response","475","1214110","0.0-475.0","u977e3wb",""," ","null","","","","",""
"","","","call-function","476","1214111","0.0-476.0","u977e3wb","","","","","","","",""
"null","","","html-keyboard-response","477","1215614","0.0-477.0","u977e3wb","","<span style=""color:Black; font-size:50px;"">Video 1</span>","null","","","","",""
"null","","","video-keyboard-response","478","1218677","0.0-478.0","u977e3wb","","","null","","<span style=""color:Black; font-size:50px;"">Casey","Casey","LEARNING_STIM_14/150280.bmp_pp94_L2_V1_veridical_freeview_isoFalse_fps144.mp4",""
"null","","","html-keyboard-response","479","1220183","0.0-479.0","u977e3wb","","<span style=""color:Black; font-size:50px;"">Video 2</span>","null","","","","",""
"null","","","video-keyboard-response","480","1223254","0.0-480.0","u977e3wb","","","null","","<span style=""color:Black; font-size:50px;"">Sandy","Sandy","LEARNING_STIM_14/150280.bmp_pp82_L2_V1_veridical_freeview_isoFalse_fps144.mp4",""
"","","","call-function","481","1223255","0.0-481.0","u977e3wb","","","","","","","",""
"820.1100000001024","","","categorize-html","482","1226081","0.0-482.0","u977e3wb","","Which video showed <span style=""font-size:30px"">Sandy's</span> attention?","50","","","","","true"
"null","","","html-keyboard-response","483","1226586","0.0-483.0","u977e3wb",""," ","null","","","","",""
"","","","call-function","484","1226586","0.0-484.0","u977e3wb","","","","","","","",""
"null","","","html-keyboard-response","485","1228092","0.0-485.0","u977e3wb","","<span style=""color:Black; font-size:50px;"">Video 1</span>","null","","","","",""
"null","","","video-keyboard-response","486","1231156","0.0-486.0","u977e3wb","","","null","","<span style=""color:Black; font-size:50px;"">Casey","Casey","LEARNING_STIM_14/713730.bmp_pp94_L2_V1_veridical_freeview_isoFalse_fps144.mp4",""
"null","","","html-keyboard-response","487","1232659","0.0-487.0","u977e3wb","","<span style=""color:Black; font-size:50px;"">Video 2</span>","null","","","","",""
"null","","","video-keyboard-response","488","1235757","0.0-488.0","u977e3wb","","","null","","<span style=""color:Black; font-size:50px;"">Sandy","Sandy","LEARNING_STIM_14/713730.bmp_pp82_L2_V1_veridical_freeview_isoFalse_fps144.mp4",""
"","","","call-function","489","1235758","0.0-489.0","u977e3wb","","","","","","","",""
"405.0150000001304","","","categorize-html","490","1238166","0.0-490.0","u977e3wb","","Which video showed <span style=""font-size:30px"">Sandy's</span> attention?","49","","","","","false"
"null","","","html-keyboard-response","491","1238669","0.0-491.0","u977e3wb",""," ","null","","","","",""
"","","","call-function","492","1238669","0.0-492.0","u977e3wb","","","","","","","",""
"null","","","html-keyboard-response","493","1240174","0.0-493.0","u977e3wb","","<span style=""color:Black; font-size:50px;"">Video 1</span>","null","","","","",""
"null","","","video-keyboard-response","494","1243281","0.0-494.0","u977e3wb","","","null","","<span style=""color:Black; font-size:50px;"">Casey","Casey","LEARNING_STIM_14/713380.bmp_pp94_L2_V1_veridical_freeview_isoFalse_fps144.mp4",""
"null","","","html-keyboard-response","495","1244784","0.0-495.0","u977e3wb","","<span style=""color:Black; font-size:50px;"">Video 2</span>","null","","","","",""
"null","","","video-keyboard-response","496","1247887","0.0-496.0","u977e3wb","","","null","","<span style=""color:Black; font-size:50px;"">Sandy","Sandy","LEARNING_STIM_14/713380.bmp_pp82_L2_V1_veridical_freeview_isoFalse_fps144.mp4",""
"","","","call-function","497","1247888","0.0-497.0","u977e3wb","","","","","","","",""
"1082.9199999999255","","","categorize-html","498","1250973","0.0-498.0","u977e3wb","","Which video showed <span style=""font-size:30px"">Sandy's</span> attention?","50","","","","","true"
"null","","","html-keyboard-response","499","1251477","0.0-499.0","u977e3wb",""," ","null","","","","",""
"107877.3899999999","","","instructions","500","1359355","0.0-500.0","u977e3wb","[{""page_index"":0,""viewing_time"":104635.38499999978},{""page_index"":1,""viewing_time"":2629.035000000149},{""page_index"":2,""viewing_time"":612.8499999998603}]","","","","","","",""
"5439.1699999999255","","","instructions","501","1364795","0.0-501.0","u977e3wb","[{""page_index"":0,""viewing_time"":4172.569999999832},{""page_index"":1,""viewing_time"":846.4799999999814},{""page_index"":2,""viewing_time"":420.0050000001211}]","","","","","","",""
"","","","call-function","502","1364795","0.0-502.0","u977e3wb","","","","","","","",""
"null","","","html-keyboard-response","503","1366297","0.0-503.0","u977e3wb","","<span style=""color:Black; font-size:50px;"">Video 1</span>","null","","","","",""
"null","","","video-keyboard-response","504","1369373","0.0-504.0","u977e3wb","","","null","","<span style=""color:Black; font-size:50px;"">Sandy","Sandy","LEARNING_STIM_14/713381.bmp_pp82_L2_V1_veridical_freeview_isoFalse_fps144.mp4",""
"null","","","html-keyboard-response","505","1370877","0.0-505.0","u977e3wb","","<span style=""color:Black; font-size:50px;"">Video 2</span>","null","","","","",""
"null","","","video-keyboard-response","506","1373939","0.0-506.0","u977e3wb","","","null","","<span style=""color:Black; font-size:50px;"">Casey","Casey","LEARNING_STIM_14/713381.bmp_pp94_L2_V1_veridical_freeview_isoFalse_fps144.mp4",""
"","","","call-function","507","1373939","0.0-507.0","u977e3wb","","","","","","","",""
"430.78000000002794","","","categorize-html","508","1376374","0.0-508.0","u977e3wb","","Which video showed <span style=""font-size:30px"">Sandy's</span> attention?","50","","","","","false"
"null","","","html-keyboard-response","509","1376877","0.0-509.0","u977e3wb",""," ","null","","","","",""
"","","","call-function","510","1376877","0.0-510.0","u977e3wb","","","","","","","",""
"null","","","html-keyboard-response","511","1378380","0.0-511.0","u977e3wb","","<span style=""color:Black; font-size:50px;"">Video 1</span>","null","","","","",""
"null","","","video-keyboard-response","512","1381441","0.0-512.0","u977e3wb","","","null","","<span style=""color:Black; font-size:50px;"">Sandy","Sandy","LEARNING_STIM_14/713512.bmp_pp82_L2_V1_veridical_freeview_isoFalse_fps144.mp4",""
"null","","","html-keyboard-response","513","1382946","0.0-513.0","u977e3wb","","<span style=""color:Black; font-size:50px;"">Video 2</span>","null","","","","",""
"null","","","video-keyboard-response","514","1386005","0.0-514.0","u977e3wb","","","null","","<span style=""color:Black; font-size:50px;"">Casey","Casey","LEARNING_STIM_14/713512.bmp_pp94_L2_V1_veridical_freeview_isoFalse_fps144.mp4",""
"","","","call-function","515","1386005","0.0-515.0","u977e3wb","","","","","","","",""
"373.43499999982305","","","categorize-html","516","1388383","0.0-516.0","u977e3wb","","Which video showed <span style=""font-size:30px"">Sandy's</span> attention?","50","","","","","false"
"null","","","html-keyboard-response","517","1388886","0.0-517.0","u977e3wb",""," ","null","","","","",""
"","","","call-function","518","1388887","0.0-518.0","u977e3wb","","","","","","","",""
"null","","","html-keyboard-response","519","1390388","0.0-519.0","u977e3wb","","<span style=""color:Black; font-size:50px;"">Video 1</span>","null","","","","",""
"null","","","video-keyboard-response","520","1393479","0.0-520.0","u977e3wb","","","null","","<span style=""color:Black; font-size:50px;"">Sandy","Sandy","LEARNING_STIM_14/713285.bmp_pp82_L2_V1_veridical_freeview_isoFalse_fps144.mp4",""
"null","","","html-keyboard-response","521","1394986","0.0-521.0","u977e3wb","","<span style=""color:Black; font-size:50px;"">Video 2</span>","null","","","","",""
"null","","","video-keyboard-response","522","1398070","0.0-522.0","u977e3wb","","","null","","<span style=""color:Black; font-size:50px;"">Casey","Casey","LEARNING_STIM_14/713285.bmp_pp94_L2_V1_veridical_freeview_isoFalse_fps144.mp4",""
"","","","call-function","523","1398070","0.0-523.0","u977e3wb","","","","","","","",""
"756.6550000000279","","","categorize-html","524","1400834","0.0-524.0","u977e3wb","","Which video showed <span style=""font-size:30px"">Sandy's</span> attention?","50","","","","","false"
"null","","","html-keyboard-response","525","1401336","0.0-525.0","u977e3wb",""," ","null","","","","",""
"","","","call-function","526","1401336","0.0-526.0","u977e3wb","","","","","","","",""
"null","","","html-keyboard-response","527","1402840","0.0-527.0","u977e3wb","","<span style=""color:Black; font-size:50px;"">Video 1</span>","null","","","","",""
"null","","","video-keyboard-response","528","1405951","0.0-528.0","u977e3wb","","","null","","<span style=""color:Black; font-size:50px;"">Casey","Casey","LEARNING_STIM_14/1160168.bmp_pp94_L2_V1_veridical_freeview_isoFalse_fps144.mp4",""
"null","","","html-keyboard-response","529","1407457","0.0-529.0","u977e3wb","","<span style=""color:Black; font-size:50px;"">Video 2</span>","null","","","","",""
"null","","","video-keyboard-response","530","1410567","0.0-530.0","u977e3wb","","","null","","<span style=""color:Black; font-size:50px;"">Sandy","Sandy","LEARNING_STIM_14/1160168.bmp_pp82_L2_V1_veridical_freeview_isoFalse_fps144.mp4",""
"","","","call-function","531","1410567","0.0-531.0","u977e3wb","","","","","","","",""
"363.6149999999907","","","categorize-html","532","1412933","0.0-532.0","u977e3wb","","Which video showed <span style=""font-size:30px"">Sandy's</span> attention?","49","","","","","false"
"null","","","html-keyboard-response","533","1413437","0.0-533.0","u977e3wb",""," ","null","","","","",""
"","","","call-function","534","1413438","0.0-534.0","u977e3wb","","","","","","","",""
"null","","","html-keyboard-response","535","1414943","0.0-535.0","u977e3wb","","<span style=""color:Black; font-size:50px;"">Video 1</span>","null","","","","",""
"null","","","video-keyboard-response","536","1418034","0.0-536.0","u977e3wb","","","null","","<span style=""color:Black; font-size:50px;"">Sandy","Sandy","LEARNING_STIM_14/1159724.bmp_pp82_L2_V1_veridical_freeview_isoFalse_fps144.mp4",""
"null","","","html-keyboard-response","537","1419537","0.0-537.0","u977e3wb","","<span style=""color:Black; font-size:50px;"">Video 2</span>","null","","","","",""
"null","","","video-keyboard-response","538","1422636","0.0-538.0","u977e3wb","","","null","","<span style=""color:Black; font-size:50px;"">Casey","Casey","LEARNING_STIM_14/1159724.bmp_pp94_L2_V1_veridical_freeview_isoFalse_fps144.mp4",""
"","","","call-function","539","1422637","0.0-539.0","u977e3wb","","","","","","","",""
"726.2600000000093","","","categorize-html","540","1425367","0.0-540.0","u977e3wb","","Which video showed <span style=""font-size:30px"">Sandy's</span> attention?","50","","","","","false"
"null","","","html-keyboard-response","541","1425870","0.0-541.0","u977e3wb",""," ","null","","","","",""
"","","","call-function","542","1425870","0.0-542.0","u977e3wb","","","","","","","",""
"null","","","html-keyboard-response","543","1427374","0.0-543.0","u977e3wb","","<span style=""color:Black; font-size:50px;"">Video 1</span>","null","","","","",""
"null","","","video-keyboard-response","544","1430463","0.0-544.0","u977e3wb","","","null","","<span style=""color:Black; font-size:50px;"">Casey","Casey","LEARNING_STIM_14/498396.bmp_pp94_L2_V1_veridical_freeview_isoFalse_fps144.mp4",""
"null","","","html-keyboard-response","545","1431968","0.0-545.0","u977e3wb","","<span style=""color:Black; font-size:50px;"">Video 2</span>","null","","","","",""
"null","","","video-keyboard-response","546","1435047","0.0-546.0","u977e3wb","","","null","","<span style=""color:Black; font-size:50px;"">Sandy","Sandy","LEARNING_STIM_14/498396.bmp_pp82_L2_V1_veridical_freeview_isoFalse_fps144.mp4",""
"","","","call-function","547","1435047","0.0-547.0","u977e3wb","","","","","","","",""
"739.5850000001956","","","categorize-html","548","1437790","0.0-548.0","u977e3wb","","Which video showed <span style=""font-size:30px"">Sandy's</span> attention?","49","","","","","false"
"null","","","html-keyboard-response","549","1438297","0.0-549.0","u977e3wb",""," ","null","","","","",""
"","","","call-function","550","1438297","0.0-550.0","u977e3wb","","","","","","","",""
"null","","","html-keyboard-response","551","1439799","0.0-551.0","u977e3wb","","<span style=""color:Black; font-size:50px;"">Video 1</span>","null","","","","",""
"null","","","video-keyboard-response","552","1442875","0.0-552.0","u977e3wb","","","null","","<span style=""color:Black; font-size:50px;"">Sandy","Sandy","LEARNING_STIM_14/713585.bmp_pp82_L2_V1_veridical_freeview_isoFalse_fps144.mp4",""
"null","","","html-keyboard-response","553","1444380","0.0-553.0","u977e3wb","","<span style=""color:Black; font-size:50px;"">Video 2</span>","null","","","","",""
"null","","","video-keyboard-response","554","1447442","0.0-554.0","u977e3wb","","","null","","<span style=""color:Black; font-size:50px;"">Casey","Casey","LEARNING_STIM_14/713585.bmp_pp94_L2_V1_veridical_freeview_isoFalse_fps144.mp4",""
"","","","call-function","555","1447443","0.0-555.0","u977e3wb","","","","","","","",""
"504.4799999999814","","","categorize-html","556","1449949","0.0-556.0","u977e3wb","","Which video showed <span style=""font-size:30px"">Sandy's</span> attention?","50","","","","","false"
"null","","","html-keyboard-response","557","1450451","0.0-557.0","u977e3wb",""," ","null","","","","",""
"","","","call-function","558","1450452","0.0-558.0","u977e3wb","","","","","","","",""
"null","","","html-keyboard-response","559","1451956","0.0-559.0","u977e3wb","","<span style=""color:Black; font-size:50px;"">Video 1</span>","null","","","","",""
"null","","","video-keyboard-response","560","1455029","0.0-560.0","u977e3wb","","","null","","<span style=""color:Black; font-size:50px;"">Casey","Casey","LEARNING_STIM_14/1592656.bmp_pp94_L2_V1_veridical_freeview_isoFalse_fps144.mp4",""
"null","","","html-keyboard-response","561","1456534","0.0-561.0","u977e3wb","","<span style=""color:Black; font-size:50px;"">Video 2</span>","null","","","","",""
"null","","","video-keyboard-response","562","1459639","0.0-562.0","u977e3wb","","","null","","<span style=""color:Black; font-size:50px;"">Sandy","Sandy","LEARNING_STIM_14/1592656.bmp_pp82_L2_V1_veridical_freeview_isoFalse_fps144.mp4",""
"","","","call-function","563","1459639","0.0-563.0","u977e3wb","","","","","","","",""
"539.8600000001024","","","categorize-html","564","1462183","0.0-564.0","u977e3wb","","Which video showed <span style=""font-size:30px"">Sandy's</span> attention?","49","","","","","false"
"null","","","html-keyboard-response","565","1462688","0.0-565.0","u977e3wb",""," ","null","","","","",""
"","","","call-function","566","1462688","0.0-566.0","u977e3wb","","","","","","","",""
"null","","","html-keyboard-response","567","1464192","0.0-567.0","u977e3wb","","<span style=""color:Black; font-size:50px;"">Video 1</span>","null","","","","",""
"null","","","video-keyboard-response","568","1467287","0.0-568.0","u977e3wb","","","null","","<span style=""color:Black; font-size:50px;"">Sandy","Sandy","LEARNING_STIM_14/1592033.bmp_pp82_L2_V1_veridical_freeview_isoFalse_fps144.mp4",""
"null","","","html-keyboard-response","569","1468789","0.0-569.0","u977e3wb","","<span style=""color:Black; font-size:50px;"">Video 2</span>","null","","","","",""
"null","","","video-keyboard-response","570","1471891","0.0-570.0","u977e3wb","","","null","","<span style=""color:Black; font-size:50px;"">Casey","Casey","LEARNING_STIM_14/1592033.bmp_pp94_L2_V1_veridical_freeview_isoFalse_fps144.mp4",""
"","","","call-function","571","1471892","0.0-571.0","u977e3wb","","","","","","","",""
"287.0449999999255","","","categorize-html","572","1474185","0.0-572.0","u977e3wb","","Which video showed <span style=""font-size:30px"">Sandy's</span> attention?","50","","","","","false"
"null","","","html-keyboard-response","573","1474690","0.0-573.0","u977e3wb",""," ","null","","","","",""
"","","","call-function","574","1474691","0.0-574.0","u977e3wb","","","","","","","",""
"null","","","html-keyboard-response","575","1476193","0.0-575.0","u977e3wb","","<span style=""color:Black; font-size:50px;"">Video 1</span>","null","","","","",""
"null","","","video-keyboard-response","576","1479300","0.0-576.0","u977e3wb","","","null","","<span style=""color:Black; font-size:50px;"">Sandy","Sandy","LEARNING_STIM_14/1592251.bmp_pp82_L2_V1_veridical_freeview_isoFalse_fps144.mp4",""
"null","","","html-keyboard-response","577","1480803","0.0-577.0","u977e3wb","","<span style=""color:Black; font-size:50px;"">Video 2</span>","null","","","","",""
"null","","","video-keyboard-response","578","1483904","0.0-578.0","u977e3wb","","","null","","<span style=""color:Black; font-size:50px;"">Casey","Casey","LEARNING_STIM_14/1592251.bmp_pp94_L2_V1_veridical_freeview_isoFalse_fps144.mp4",""
"","","","call-function","579","1483905","0.0-579.0","u977e3wb","","","","","","","",""
"506.05000000004657","","","categorize-html","580","1486415","0.0-580.0","u977e3wb","","Which video showed <span style=""font-size:30px"">Sandy's</span> attention?","50","","","","","false"
"null","","","html-keyboard-response","581","1486919","0.0-581.0","u977e3wb",""," ","null","","","","",""
"4903.030000000028","","","instructions","582","1491822","0.0-582.0","u977e3wb","[{""page_index"":0,""viewing_time"":4902.820000000065}]","","","","","","",""
"965.035000000149","","","instructions","583","1492788","0.0-583.0","u977e3wb","[{""page_index"":0,""viewing_time"":964.9300000001676}]","","","","","","",""
"3821.1149999999907","{""Q0"":""""}","","survey-text","584","1496614","0.0-584.0","u977e3wb","","","","","","","",""
"2215.9300000001676","{""Q0"":""""}","","survey-text","585","1498833","0.0-585.0","u977e3wb","","","","","","","",""
"5973.959999999963","{""Q0"":""""}","","survey-text","586","1504809","0.0-586.0","u977e3wb","","","","","","","",""
"219898.93500000006","","","instructions","587","1724709","0.0-587.0","u977e3wb","[{""page_index"":0,""viewing_time"":219898.81000000006}]","","","","","","",""
"194380.7350000001","{""Experimenter_end"":[""Printed ID# u977e3wb on consent form"",""Given subject SONA credit or payment"",""Given the subject debrief form""]}","[0]","survey-multi-select","588","1919092","0.0-588.0","u977e3wb","","","","","","","",""
