"rt","responses","question_order","trial_type","trial_index","time_elapsed","internal_node_id","ID","view_history","stimulus","key_press","value","agent","condition","image","correct"
"19484.605","{""Experimenter"":[""Confirmed subject's identity (ID card)"",""Confirmed normal or corrected-to-normal vision"",""Obtained consent (signature and date)"",""Checked the test room lighting"",""Checked computer screen lighting"",""Checked distance from screen to chin rest (50cm)"",""Cleaned and adjusted chin rest"",""Counterbalanced the order of the tasks"",""Opened the experiment in Firefox"",""Made the experiment full screen"",""Encouraged subject to silence phone, put away distractors, etc.""]}","[0]","survey-multi-select","0","19492","0.0-0.0","n8aye2cc","","","","","","","",""
"1030813.7449999999","","","instructions","1","1050309","0.0-1.0","n8aye2cc","[{""page_index"":0,""viewing_time"":1030813.1950000001}]","","","","","","",""
"7939.135000000009","{""Age"":9,""Sex"":1,""Gender"":1}","[0,1,2]","survey-likert","2","1058251","0.0-2.0","n8aye2cc","","","","","","","",""
"940.3549999999814","","","instructions","3","1059192","0.0-3.0","n8aye2cc","[{""page_index"":0,""viewing_time"":940.2550000001211}]","","","","","","",""
"990622.5750000002","","","instructions","4","2049817","0.0-4.0","n8aye2cc","[{""page_index"":0,""viewing_time"":1234.4250000000466},{""page_index"":1,""viewing_time"":17337.889999999898},{""page_index"":2,""viewing_time"":972050.1050000002}]","","","","","","",""
"6188.324999999953","","","instructions","5","2056006","0.0-5.0","n8aye2cc","[{""page_index"":0,""viewing_time"":6188.214999999851}]","","","","","","",""
"null","","","video-keyboard-response","6","2059085","0.0-6.0","n8aye2cc","","","null","","","","",""
"33614.320000000065","","","instructions","7","2092701","0.0-7.0","n8aye2cc","[{""page_index"":0,""viewing_time"":3759.905000000028},{""page_index"":1,""viewing_time"":3215.5849999999627},{""page_index"":2,""viewing_time"":954.1350000000093},{""page_index"":3,""viewing_time"":6538.270000000019},{""page_index"":4,""viewing_time"":3306.590000000084},{""page_index"":5,""viewing_time"":6771.774999999907},{""page_index"":6,""viewing_time"":6904.084999999963},{""page_index"":7,""viewing_time"":2163.340000000084}]","","","","","","",""
"14770.780000000028","","","instructions","8","2107473","0.0-8.0","n8aye2cc","[{""page_index"":0,""viewing_time"":14770.639999999898}]","","","","","","",""
"6659.285000000149","","","instructions","9","2114133","0.0-9.0","n8aye2cc","[{""page_index"":0,""viewing_time"":6659.174999999814}]","","","","","","",""
"","","","call-function","10","2114133","0.0-10.0","n8aye2cc","","","","","","","",""
"null","","","html-keyboard-response","11","2115634","0.0-11.0","n8aye2cc","","<span style=""color:Black; font-size:50px;"">Video 1</span>","null","","","","",""
"null","","","video-keyboard-response","12","2118712","0.0-12.0","n8aye2cc","","","null","","<span style=""color:Black; font-size:50px;"">Casey","Casey","STIM_SET_15/713742.bmp_pp100_L3_V1_veridical_freeview_isoFalse_fps144.mp4",""
"null","","","html-keyboard-response","13","2120217","0.0-13.0","n8aye2cc","","<span style=""color:Black; font-size:50px;"">Video 2</span>","null","","","","",""
"null","","","video-keyboard-response","14","2123284","0.0-14.0","n8aye2cc","","","null","","<span style=""color:Black; font-size:50px;"">Sandy","Sandy","STIM_SET_15/713742.bmp_pp77_L3_V1_veridical_freeview_isoFalse_fps144.mp4",""
"","","","call-function","15","2123284","0.0-15.0","n8aye2cc","","","","","","","",""
"4723.649999999907","","","categorize-html","16","2130010","0.0-16.0","n8aye2cc","","Which video showed <span style=""font-size:30px"">Sandy's</span> attention?","49","","","","","false"
"null","","","html-keyboard-response","17","2130512","0.0-17.0","n8aye2cc",""," ","null","","","","",""
"","","","call-function","18","2130512","0.0-18.0","n8aye2cc","","","","","","","",""
"null","","","html-keyboard-response","19","2132018","0.0-19.0","n8aye2cc","","<span style=""color:Black; font-size:50px;"">Video 1</span>","null","","","","",""
"null","","","video-keyboard-response","20","2135094","0.0-20.0","n8aye2cc","","","null","","<span style=""color:Black; font-size:50px;"">Casey","Casey","STIM_SET_15/498151.bmp_pp100_L3_V1_veridical_freeview_isoFalse_fps144.mp4",""
"null","","","html-keyboard-response","21","2136596","0.0-21.0","n8aye2cc","","<span style=""color:Black; font-size:50px;"">Video 2</span>","null","","","","",""
"null","","","video-keyboard-response","22","2139656","0.0-22.0","n8aye2cc","","","null","","<span style=""color:Black; font-size:50px;"">Sandy","Sandy","STIM_SET_15/498151.bmp_pp77_L3_V1_veridical_freeview_isoFalse_fps144.mp4",""
"","","","call-function","23","2139657","0.0-23.0","n8aye2cc","","","","","","","",""
"3517.7549999998882","","","categorize-html","24","2145176","0.0-24.0","n8aye2cc","","Which video showed <span style=""font-size:30px"">Sandy's</span> attention?","49","","","","","false"
"null","","","html-keyboard-response","25","2145681","0.0-25.0","n8aye2cc",""," ","null","","","","",""
"","","","call-function","26","2145682","0.0-26.0","n8aye2cc","","","","","","","",""
"null","","","html-keyboard-response","27","2147184","0.0-27.0","n8aye2cc","","<span style=""color:Black; font-size:50px;"">Video 1</span>","null","","","","",""
"null","","","video-keyboard-response","28","2150291","0.0-28.0","n8aye2cc","","","null","","<span style=""color:Black; font-size:50px;"">Casey","Casey","STIM_SET_15/1159497.bmp_pp100_L3_V1_veridical_freeview_isoFalse_fps144.mp4",""
"null","","","html-keyboard-response","29","2151795","0.0-29.0","n8aye2cc","","<span style=""color:Black; font-size:50px;"">Video 2</span>","null","","","","",""
"null","","","video-keyboard-response","30","2154890","0.0-30.0","n8aye2cc","","","null","","<span style=""color:Black; font-size:50px;"">Sandy","Sandy","STIM_SET_15/1159497.bmp_pp77_L3_V1_veridical_freeview_isoFalse_fps144.mp4",""
"","","","call-function","31","2154890","0.0-31.0","n8aye2cc","","","","","","","",""
"2852.364999999758","","","categorize-html","32","2159746","0.0-32.0","n8aye2cc","","Which video showed <span style=""font-size:30px"">Sandy's</span> attention?","50","","","","","true"
"null","","","html-keyboard-response","33","2160251","0.0-33.0","n8aye2cc",""," ","null","","","","",""
"","","","call-function","34","2160252","0.0-34.0","n8aye2cc","","","","","","","",""
"null","","","html-keyboard-response","35","2161758","0.0-35.0","n8aye2cc","","<span style=""color:Black; font-size:50px;"">Video 1</span>","null","","","","",""
"null","","","video-keyboard-response","36","2164861","0.0-36.0","n8aye2cc","","","null","","<span style=""color:Black; font-size:50px;"">Sandy","Sandy","STIM_SET_15/713679.bmp_pp77_L3_V1_veridical_freeview_isoFalse_fps144.mp4",""
"null","","","html-keyboard-response","37","2166364","0.0-37.0","n8aye2cc","","<span style=""color:Black; font-size:50px;"">Video 2</span>","null","","","","",""
"null","","","video-keyboard-response","38","2169465","0.0-38.0","n8aye2cc","","","null","","<span style=""color:Black; font-size:50px;"">Casey","Casey","STIM_SET_15/713679.bmp_pp100_L3_V1_veridical_freeview_isoFalse_fps144.mp4",""
"","","","call-function","39","2169466","0.0-39.0","n8aye2cc","","","","","","","",""
"1757.2800000002608","","","categorize-html","40","2173228","0.0-40.0","n8aye2cc","","Which video showed <span style=""font-size:30px"">Sandy's</span> attention?","50","","","","","false"
"null","","","html-keyboard-response","41","2173731","0.0-41.0","n8aye2cc",""," ","null","","","","",""
"","","","call-function","42","2173732","0.0-42.0","n8aye2cc","","","","","","","",""
"null","","","html-keyboard-response","43","2175238","0.0-43.0","n8aye2cc","","<span style=""color:Black; font-size:50px;"">Video 1</span>","null","","","","",""
"null","","","video-keyboard-response","44","2178324","0.0-44.0","n8aye2cc","","","null","","<span style=""color:Black; font-size:50px;"">Casey","Casey","STIM_SET_15/1592129.bmp_pp100_L3_V1_veridical_freeview_isoFalse_fps144.mp4",""
"null","","","html-keyboard-response","45","2179826","0.0-45.0","n8aye2cc","","<span style=""color:Black; font-size:50px;"">Video 2</span>","null","","","","",""
"null","","","video-keyboard-response","46","2182898","0.0-46.0","n8aye2cc","","","null","","<span style=""color:Black; font-size:50px;"">Sandy","Sandy","STIM_SET_15/1592129.bmp_pp77_L3_V1_veridical_freeview_isoFalse_fps144.mp4",""
"","","","call-function","47","2182899","0.0-47.0","n8aye2cc","","","","","","","",""
"4947.9199999999255","","","categorize-html","48","2189854","0.0-48.0","n8aye2cc","","Which video showed <span style=""font-size:30px"">Sandy's</span> attention?","50","","","","","true"
"null","","","html-keyboard-response","49","2190358","0.0-49.0","n8aye2cc",""," ","null","","","","",""
"","","","call-function","50","2190359","0.0-50.0","n8aye2cc","","","","","","","",""
"null","","","html-keyboard-response","51","2191862","0.0-51.0","n8aye2cc","","<span style=""color:Black; font-size:50px;"">Video 1</span>","null","","","","",""
"null","","","video-keyboard-response","52","2194931","0.0-52.0","n8aye2cc","","","null","","<span style=""color:Black; font-size:50px;"">Casey","Casey","STIM_SET_15/285994.bmp_pp100_L3_V1_veridical_freeview_isoFalse_fps144.mp4",""
"null","","","html-keyboard-response","53","2196438","0.0-53.0","n8aye2cc","","<span style=""color:Black; font-size:50px;"">Video 2</span>","null","","","","",""
"null","","","video-keyboard-response","54","2199513","0.0-54.0","n8aye2cc","","","null","","<span style=""color:Black; font-size:50px;"">Sandy","Sandy","STIM_SET_15/285994.bmp_pp77_L3_V1_veridical_freeview_isoFalse_fps144.mp4",""
"","","","call-function","55","2199514","0.0-55.0","n8aye2cc","","","","","","","",""
"732.9550000000745","","","categorize-html","56","2202253","0.0-56.0","n8aye2cc","","Which video showed <span style=""font-size:30px"">Sandy's</span> attention?","49","","","","","false"
"null","","","html-keyboard-response","57","2202755","0.0-57.0","n8aye2cc",""," ","null","","","","",""
"","","","call-function","58","2202756","0.0-58.0","n8aye2cc","","","","","","","",""
"null","","","html-keyboard-response","59","2204261","0.0-59.0","n8aye2cc","","<span style=""color:Black; font-size:50px;"">Video 1</span>","null","","","","",""
"null","","","video-keyboard-response","60","2207321","0.0-60.0","n8aye2cc","","","null","","<span style=""color:Black; font-size:50px;"">Casey","Casey","STIM_SET_15/1592303.bmp_pp100_L3_V1_veridical_freeview_isoFalse_fps144.mp4",""
"null","","","html-keyboard-response","61","2208827","0.0-61.0","n8aye2cc","","<span style=""color:Black; font-size:50px;"">Video 2</span>","null","","","","",""
"null","","","video-keyboard-response","62","2211922","0.0-62.0","n8aye2cc","","","null","","<span style=""color:Black; font-size:50px;"">Sandy","Sandy","STIM_SET_15/1592303.bmp_pp77_L3_V1_veridical_freeview_isoFalse_fps144.mp4",""
"","","","call-function","63","2211923","0.0-63.0","n8aye2cc","","","","","","","",""
"1380.1349999997765","","","categorize-html","64","2215305","0.0-64.0","n8aye2cc","","Which video showed <span style=""font-size:30px"">Sandy's</span> attention?","50","","","","","true"
"null","","","html-keyboard-response","65","2215809","0.0-65.0","n8aye2cc",""," ","null","","","","",""
"","","","call-function","66","2215810","0.0-66.0","n8aye2cc","","","","","","","",""
"null","","","html-keyboard-response","67","2217312","0.0-67.0","n8aye2cc","","<span style=""color:Black; font-size:50px;"">Video 1</span>","null","","","","",""
"null","","","video-keyboard-response","68","2220425","0.0-68.0","n8aye2cc","","","null","","<span style=""color:Black; font-size:50px;"">Casey","Casey","STIM_SET_15/1159293.bmp_pp100_L3_V1_veridical_freeview_isoFalse_fps144.mp4",""
"null","","","html-keyboard-response","69","2221930","0.0-69.0","n8aye2cc","","<span style=""color:Black; font-size:50px;"">Video 2</span>","null","","","","",""
"null","","","video-keyboard-response","70","2225018","0.0-70.0","n8aye2cc","","","null","","<span style=""color:Black; font-size:50px;"">Sandy","Sandy","STIM_SET_15/1159293.bmp_pp77_L3_V1_veridical_freeview_isoFalse_fps144.mp4",""
"","","","call-function","71","2225018","0.0-71.0","n8aye2cc","","","","","","","",""
"1652.4300000001676","","","categorize-html","72","2228677","0.0-72.0","n8aye2cc","","Which video showed <span style=""font-size:30px"">Sandy's</span> attention?","50","","","","","true"
"null","","","html-keyboard-response","73","2229180","0.0-73.0","n8aye2cc",""," ","null","","","","",""
"","","","call-function","74","2229180","0.0-74.0","n8aye2cc","","","","","","","",""
"null","","","html-keyboard-response","75","2230685","0.0-75.0","n8aye2cc","","<span style=""color:Black; font-size:50px;"">Video 1</span>","null","","","","",""
"null","","","video-keyboard-response","76","2233779","0.0-76.0","n8aye2cc","","","null","","<span style=""color:Black; font-size:50px;"">Sandy","Sandy","STIM_SET_15/1159515.bmp_pp77_L3_V1_veridical_freeview_isoFalse_fps144.mp4",""
"null","","","html-keyboard-response","77","2235286","0.0-77.0","n8aye2cc","","<span style=""color:Black; font-size:50px;"">Video 2</span>","null","","","","",""
"null","","","video-keyboard-response","78","2238379","0.0-78.0","n8aye2cc","","","null","","<span style=""color:Black; font-size:50px;"">Casey","Casey","STIM_SET_15/1159515.bmp_pp100_L3_V1_veridical_freeview_isoFalse_fps144.mp4",""
"","","","call-function","79","2238380","0.0-79.0","n8aye2cc","","","","","","","",""
"1371.1100000003353","","","categorize-html","80","2241755","0.0-80.0","n8aye2cc","","Which video showed <span style=""font-size:30px"">Sandy's</span> attention?","49","","","","","true"
"null","","","html-keyboard-response","81","2242258","0.0-81.0","n8aye2cc",""," ","null","","","","",""
"","","","call-function","82","2242258","0.0-82.0","n8aye2cc","","","","","","","",""
"null","","","html-keyboard-response","83","2243761","0.0-83.0","n8aye2cc","","<span style=""color:Black; font-size:50px;"">Video 1</span>","null","","","","",""
"null","","","video-keyboard-response","84","2246822","0.0-84.0","n8aye2cc","","","null","","<span style=""color:Black; font-size:50px;"">Casey","Casey","STIM_SET_15/285610.bmp_pp100_L3_V1_veridical_freeview_isoFalse_fps144.mp4",""
"null","","","html-keyboard-response","85","2248325","0.0-85.0","n8aye2cc","","<span style=""color:Black; font-size:50px;"">Video 2</span>","null","","","","",""
"null","","","video-keyboard-response","86","2251416","0.0-86.0","n8aye2cc","","","null","","<span style=""color:Black; font-size:50px;"">Sandy","Sandy","STIM_SET_15/285610.bmp_pp77_L3_V1_veridical_freeview_isoFalse_fps144.mp4",""
"","","","call-function","87","2251416","0.0-87.0","n8aye2cc","","","","","","","",""
"726.625","","","categorize-html","88","2254148","0.0-88.0","n8aye2cc","","Which video showed <span style=""font-size:30px"">Sandy's</span> attention?","49","","","","","false"
"null","","","html-keyboard-response","89","2254654","0.0-89.0","n8aye2cc",""," ","null","","","","",""
"5448.464999999851","","","instructions","90","2260103","0.0-90.0","n8aye2cc","[{""page_index"":0,""viewing_time"":1937.410000000149},{""page_index"":1,""viewing_time"":1308.119999999646},{""page_index"":2,""viewing_time"":2202.8250000001863}]","","","","","","",""
"3887.660000000149","","","instructions","91","2263991","0.0-91.0","n8aye2cc","[{""page_index"":0,""viewing_time"":846.6699999999255},{""page_index"":1,""viewing_time"":2183.850000000093},{""page_index"":2,""viewing_time"":857.0299999997951}]","","","","","","",""
"","","","call-function","92","2263991","0.0-92.0","n8aye2cc","","","","","","","",""
"null","","","html-keyboard-response","93","2265495","0.0-93.0","n8aye2cc","","<span style=""color:Black; font-size:50px;"">Video 1</span>","null","","","","",""
"null","","","video-keyboard-response","94","2268570","0.0-94.0","n8aye2cc","","","null","","<span style=""color:Black; font-size:50px;"">Casey","Casey","STIM_SET_15/1592378.bmp_pp100_L3_V1_veridical_freeview_isoFalse_fps144.mp4",""
"null","","","html-keyboard-response","95","2270074","0.0-95.0","n8aye2cc","","<span style=""color:Black; font-size:50px;"">Video 2</span>","null","","","","",""
"null","","","video-keyboard-response","96","2273138","0.0-96.0","n8aye2cc","","","null","","<span style=""color:Black; font-size:50px;"">Sandy","Sandy","STIM_SET_15/1592378.bmp_pp77_L3_V1_veridical_freeview_isoFalse_fps144.mp4",""
"","","","call-function","97","2273138","0.0-97.0","n8aye2cc","","","","","","","",""
"9420.209999999963","","","categorize-html","98","2284563","0.0-98.0","n8aye2cc","","Which video showed <span style=""font-size:30px"">Sandy's</span> attention?","50","","","","","true"
"null","","","html-keyboard-response","99","2285066","0.0-99.0","n8aye2cc",""," ","null","","","","",""
"","","","call-function","100","2285066","0.0-100.0","n8aye2cc","","","","","","","",""
"null","","","html-keyboard-response","101","2286573","0.0-101.0","n8aye2cc","","<span style=""color:Black; font-size:50px;"">Video 1</span>","null","","","","",""
"null","","","video-keyboard-response","102","2289640","0.0-102.0","n8aye2cc","","","null","","<span style=""color:Black; font-size:50px;"">Sandy","Sandy","STIM_SET_15/1159379.bmp_pp77_L3_V1_veridical_freeview_isoFalse_fps144.mp4",""
"null","","","html-keyboard-response","103","2291142","0.0-103.0","n8aye2cc","","<span style=""color:Black; font-size:50px;"">Video 2</span>","null","","","","",""
"null","","","video-keyboard-response","104","2294245","0.0-104.0","n8aye2cc","","","null","","<span style=""color:Black; font-size:50px;"">Casey","Casey","STIM_SET_15/1159379.bmp_pp100_L3_V1_veridical_freeview_isoFalse_fps144.mp4",""
"","","","call-function","105","2294245","0.0-105.0","n8aye2cc","","","","","","","",""
"1169.2900000000373","","","categorize-html","106","2297418","0.0-106.0","n8aye2cc","","Which video showed <span style=""font-size:30px"">Sandy's</span> attention?","49","","","","","true"
"null","","","html-keyboard-response","107","2297925","0.0-107.0","n8aye2cc",""," ","null","","","","",""
"","","","call-function","108","2297925","0.0-108.0","n8aye2cc","","","","","","","",""
"null","","","html-keyboard-response","109","2299430","0.0-109.0","n8aye2cc","","<span style=""color:Black; font-size:50px;"">Video 1</span>","null","","","","",""
"null","","","video-keyboard-response","110","2302526","0.0-110.0","n8aye2cc","","","null","","<span style=""color:Black; font-size:50px;"">Sandy","Sandy","STIM_SET_15/285684.bmp_pp77_L3_V1_veridical_freeview_isoFalse_fps144.mp4",""
"null","","","html-keyboard-response","111","2304030","0.0-111.0","n8aye2cc","","<span style=""color:Black; font-size:50px;"">Video 2</span>","null","","","","",""
"null","","","video-keyboard-response","112","2307130","0.0-112.0","n8aye2cc","","","null","","<span style=""color:Black; font-size:50px;"">Casey","Casey","STIM_SET_15/285684.bmp_pp100_L3_V1_veridical_freeview_isoFalse_fps144.mp4",""
"","","","call-function","113","2307130","0.0-113.0","n8aye2cc","","","","","","","",""
"1228.554999999702","","","categorize-html","114","2310363","0.0-114.0","n8aye2cc","","Which video showed <span style=""font-size:30px"">Sandy's</span> attention?","49","","","","","true"
"null","","","html-keyboard-response","115","2310869","0.0-115.0","n8aye2cc",""," ","null","","","","",""
"","","","call-function","116","2310870","0.0-116.0","n8aye2cc","","","","","","","",""
"null","","","html-keyboard-response","117","2312372","0.0-117.0","n8aye2cc","","<span style=""color:Black; font-size:50px;"">Video 1</span>","null","","","","",""
"null","","","video-keyboard-response","118","2315439","0.0-118.0","n8aye2cc","","","null","","<span style=""color:Black; font-size:50px;"">Casey","Casey","STIM_SET_15/498261.bmp_pp100_L3_V1_veridical_freeview_isoFalse_fps144.mp4",""
"null","","","html-keyboard-response","119","2316943","0.0-119.0","n8aye2cc","","<span style=""color:Black; font-size:50px;"">Video 2</span>","null","","","","",""
"null","","","video-keyboard-response","120","2320046","0.0-120.0","n8aye2cc","","","null","","<span style=""color:Black; font-size:50px;"">Sandy","Sandy","STIM_SET_15/498261.bmp_pp77_L3_V1_veridical_freeview_isoFalse_fps144.mp4",""
"","","","call-function","121","2320046","0.0-121.0","n8aye2cc","","","","","","","",""
"4568.7599999997765","","","categorize-html","122","2326619","0.0-122.0","n8aye2cc","","Which video showed <span style=""font-size:30px"">Sandy's</span> attention?","49","","","","","false"
"null","","","html-keyboard-response","123","2327123","0.0-123.0","n8aye2cc",""," ","null","","","","",""
"","","","call-function","124","2327123","0.0-124.0","n8aye2cc","","","","","","","",""
"null","","","html-keyboard-response","125","2328626","0.0-125.0","n8aye2cc","","<span style=""color:Black; font-size:50px;"">Video 1</span>","null","","","","",""
"null","","","video-keyboard-response","126","2331688","0.0-126.0","n8aye2cc","","","null","","<span style=""color:Black; font-size:50px;"">Sandy","Sandy","STIM_SET_15/498039.bmp_pp77_L3_V1_veridical_freeview_isoFalse_fps144.mp4",""
"null","","","html-keyboard-response","127","2333194","0.0-127.0","n8aye2cc","","<span style=""color:Black; font-size:50px;"">Video 2</span>","null","","","","",""
"null","","","video-keyboard-response","128","2336269","0.0-128.0","n8aye2cc","","","null","","<span style=""color:Black; font-size:50px;"">Casey","Casey","STIM_SET_15/498039.bmp_pp100_L3_V1_veridical_freeview_isoFalse_fps144.mp4",""
"","","","call-function","129","2336270","0.0-129.0","n8aye2cc","","","","","","","",""
"936.964999999851","","","categorize-html","130","2339209","0.0-130.0","n8aye2cc","","Which video showed <span style=""font-size:30px"">Sandy's</span> attention?","49","","","","","true"
"null","","","html-keyboard-response","131","2339711","0.0-131.0","n8aye2cc",""," ","null","","","","",""
"","","","call-function","132","2339712","0.0-132.0","n8aye2cc","","","","","","","",""
"null","","","html-keyboard-response","133","2341216","0.0-133.0","n8aye2cc","","<span style=""color:Black; font-size:50px;"">Video 1</span>","null","","","","",""
"null","","","video-keyboard-response","134","2344300","0.0-134.0","n8aye2cc","","","null","","<span style=""color:Black; font-size:50px;"">Casey","Casey","STIM_SET_15/713620.bmp_pp100_L3_V1_veridical_freeview_isoFalse_fps144.mp4",""
"null","","","html-keyboard-response","135","2345802","0.0-135.0","n8aye2cc","","<span style=""color:Black; font-size:50px;"">Video 2</span>","null","","","","",""
"null","","","video-keyboard-response","136","2348902","0.0-136.0","n8aye2cc","","","null","","<span style=""color:Black; font-size:50px;"">Sandy","Sandy","STIM_SET_15/713620.bmp_pp77_L3_V1_veridical_freeview_isoFalse_fps144.mp4",""
"","","","call-function","137","2348903","0.0-137.0","n8aye2cc","","","","","","","",""
"5495.899999999907","","","categorize-html","138","2356402","0.0-138.0","n8aye2cc","","Which video showed <span style=""font-size:30px"">Sandy's</span> attention?","50","","","","","true"
"null","","","html-keyboard-response","139","2356906","0.0-139.0","n8aye2cc",""," ","null","","","","",""
"","","","call-function","140","2356906","0.0-140.0","n8aye2cc","","","","","","","",""
"null","","","html-keyboard-response","141","2358409","0.0-141.0","n8aye2cc","","<span style=""color:Black; font-size:50px;"">Video 1</span>","null","","","","",""
"null","","","video-keyboard-response","142","2361485","0.0-142.0","n8aye2cc","","","null","","<span style=""color:Black; font-size:50px;"">Casey","Casey","STIM_SET_15/713640.bmp_pp100_L3_V1_veridical_freeview_isoFalse_fps144.mp4",""
"null","","","html-keyboard-response","143","2362989","0.0-143.0","n8aye2cc","","<span style=""color:Black; font-size:50px;"">Video 2</span>","null","","","","",""
"null","","","video-keyboard-response","144","2366075","0.0-144.0","n8aye2cc","","","null","","<span style=""color:Black; font-size:50px;"">Sandy","Sandy","STIM_SET_15/713640.bmp_pp77_L3_V1_veridical_freeview_isoFalse_fps144.mp4",""
"","","","call-function","145","2366075","0.0-145.0","n8aye2cc","","","","","","","",""
"1595.929999999702","","","categorize-html","146","2369678","0.0-146.0","n8aye2cc","","Which video showed <span style=""font-size:30px"">Sandy's</span> attention?","49","","","","","false"
"null","","","html-keyboard-response","147","2370185","0.0-147.0","n8aye2cc",""," ","null","","","","",""
"","","","call-function","148","2370185","0.0-148.0","n8aye2cc","","","","","","","",""
"null","","","html-keyboard-response","149","2371688","0.0-149.0","n8aye2cc","","<span style=""color:Black; font-size:50px;"">Video 1</span>","null","","","","",""
"null","","","video-keyboard-response","150","2374790","0.0-150.0","n8aye2cc","","","null","","<span style=""color:Black; font-size:50px;"">Sandy","Sandy","STIM_SET_15/1593112.bmp_pp77_L3_V1_veridical_freeview_isoFalse_fps144.mp4",""
"null","","","html-keyboard-response","151","2376297","0.0-151.0","n8aye2cc","","<span style=""color:Black; font-size:50px;"">Video 2</span>","null","","","","",""
"null","","","video-keyboard-response","152","2379363","0.0-152.0","n8aye2cc","","","null","","<span style=""color:Black; font-size:50px;"">Casey","Casey","STIM_SET_15/1593112.bmp_pp100_L3_V1_veridical_freeview_isoFalse_fps144.mp4",""
"","","","call-function","153","2379364","0.0-153.0","n8aye2cc","","","","","","","",""
"2979.2400000002235","","","categorize-html","154","2384348","0.0-154.0","n8aye2cc","","Which video showed <span style=""font-size:30px"">Sandy's</span> attention?","49","","","","","true"
"null","","","html-keyboard-response","155","2384852","0.0-155.0","n8aye2cc",""," ","null","","","","",""
"","","","call-function","156","2384852","0.0-156.0","n8aye2cc","","","","","","","",""
"null","","","html-keyboard-response","157","2386356","0.0-157.0","n8aye2cc","","<span style=""color:Black; font-size:50px;"">Video 1</span>","null","","","","",""
"null","","","video-keyboard-response","158","2389456","0.0-158.0","n8aye2cc","","","null","","<span style=""color:Black; font-size:50px;"">Casey","Casey","STIM_SET_15/150296.bmp_pp100_L3_V1_veridical_freeview_isoFalse_fps144.mp4",""
"null","","","html-keyboard-response","159","2390961","0.0-159.0","n8aye2cc","","<span style=""color:Black; font-size:50px;"">Video 2</span>","null","","","","",""
"null","","","video-keyboard-response","160","2394067","0.0-160.0","n8aye2cc","","","null","","<span style=""color:Black; font-size:50px;"">Sandy","Sandy","STIM_SET_15/150296.bmp_pp77_L3_V1_veridical_freeview_isoFalse_fps144.mp4",""
"","","","call-function","161","2394067","0.0-161.0","n8aye2cc","","","","","","","",""
"891.7349999998696","","","categorize-html","162","2396962","0.0-162.0","n8aye2cc","","Which video showed <span style=""font-size:30px"">Sandy's</span> attention?","50","","","","","true"
"null","","","html-keyboard-response","163","2397466","0.0-163.0","n8aye2cc",""," ","null","","","","",""
"","","","call-function","164","2397466","0.0-164.0","n8aye2cc","","","","","","","",""
"null","","","html-keyboard-response","165","2398972","0.0-165.0","n8aye2cc","","<span style=""color:Black; font-size:50px;"">Video 1</span>","null","","","","",""
"null","","","video-keyboard-response","166","2402042","0.0-166.0","n8aye2cc","","","null","","<span style=""color:Black; font-size:50px;"">Sandy","Sandy","STIM_SET_15/1159621.bmp_pp77_L3_V1_veridical_freeview_isoFalse_fps144.mp4",""
"null","","","html-keyboard-response","167","2403544","0.0-167.0","n8aye2cc","","<span style=""color:Black; font-size:50px;"">Video 2</span>","null","","","","",""
"null","","","video-keyboard-response","168","2406619","0.0-168.0","n8aye2cc","","","null","","<span style=""color:Black; font-size:50px;"">Casey","Casey","STIM_SET_15/1159621.bmp_pp100_L3_V1_veridical_freeview_isoFalse_fps144.mp4",""
"","","","call-function","169","2406619","0.0-169.0","n8aye2cc","","","","","","","",""
"548.0150000001304","","","categorize-html","170","2409170","0.0-170.0","n8aye2cc","","Which video showed <span style=""font-size:30px"">Sandy's</span> attention?","49","","","","","true"
"null","","","html-keyboard-response","171","2409677","0.0-171.0","n8aye2cc",""," ","null","","","","",""
"4530.464999999851","","","instructions","172","2414208","0.0-172.0","n8aye2cc","[{""page_index"":0,""viewing_time"":2691.5099999997765},{""page_index"":1,""viewing_time"":1132.7250000000931},{""page_index"":2,""viewing_time"":706.1149999997579}]","","","","","","",""
"2213.55999999959","","","instructions","173","2416422","0.0-173.0","n8aye2cc","[{""page_index"":0,""viewing_time"":542.4949999996461},{""page_index"":1,""viewing_time"":1025.8400000003166},{""page_index"":2,""viewing_time"":645.1149999997579}]","","","","","","",""
"","","","call-function","174","2416422","0.0-174.0","n8aye2cc","","","","","","","",""
"null","","","html-keyboard-response","175","2417927","0.0-175.0","n8aye2cc","","<span style=""color:Black; font-size:50px;"">Video 1</span>","null","","","","",""
"null","","","video-keyboard-response","176","2421031","0.0-176.0","n8aye2cc","","","null","","<span style=""color:Black; font-size:50px;"">Sandy","Sandy","STIM_SET_15/713796.bmp_pp77_L3_V1_veridical_freeview_isoFalse_fps144.mp4",""
"null","","","html-keyboard-response","177","2422534","0.0-177.0","n8aye2cc","","<span style=""color:Black; font-size:50px;"">Video 2</span>","null","","","","",""
"null","","","video-keyboard-response","178","2425603","0.0-178.0","n8aye2cc","","","null","","<span style=""color:Black; font-size:50px;"">Casey","Casey","STIM_SET_15/713796.bmp_pp100_L3_V1_veridical_freeview_isoFalse_fps144.mp4",""
"","","","call-function","179","2425603","0.0-179.0","n8aye2cc","","","","","","","",""
"563.8999999999069","","","categorize-html","180","2428170","0.0-180.0","n8aye2cc","","Which video showed <span style=""font-size:30px"">Sandy's</span> attention?","49","","","","","true"
"null","","","html-keyboard-response","181","2428676","0.0-181.0","n8aye2cc",""," ","null","","","","",""
"","","","call-function","182","2428676","0.0-182.0","n8aye2cc","","","","","","","",""
"null","","","html-keyboard-response","183","2430179","0.0-183.0","n8aye2cc","","<span style=""color:Black; font-size:50px;"">Video 1</span>","null","","","","",""
"null","","","video-keyboard-response","184","2433280","0.0-184.0","n8aye2cc","","","null","","<span style=""color:Black; font-size:50px;"">Sandy","Sandy","STIM_SET_15/150496.bmp_pp77_L3_V1_veridical_freeview_isoFalse_fps144.mp4",""
"null","","","html-keyboard-response","185","2434785","0.0-185.0","n8aye2cc","","<span style=""color:Black; font-size:50px;"">Video 2</span>","null","","","","",""
"null","","","video-keyboard-response","186","2437877","0.0-186.0","n8aye2cc","","","null","","<span style=""color:Black; font-size:50px;"">Casey","Casey","STIM_SET_15/150496.bmp_pp100_L3_V1_veridical_freeview_isoFalse_fps144.mp4",""
"","","","call-function","187","2437877","0.0-187.0","n8aye2cc","","","","","","","",""
"3025.630000000354","","","categorize-html","188","2442910","0.0-188.0","n8aye2cc","","Which video showed <span style=""font-size:30px"">Sandy's</span> attention?","49","","","","","true"
"null","","","html-keyboard-response","189","2443412","0.0-189.0","n8aye2cc",""," ","null","","","","",""
"","","","call-function","190","2443412","0.0-190.0","n8aye2cc","","","","","","","",""
"null","","","html-keyboard-response","191","2444917","0.0-191.0","n8aye2cc","","<span style=""color:Black; font-size:50px;"">Video 1</span>","null","","","","",""
"null","","","video-keyboard-response","192","2447994","0.0-192.0","n8aye2cc","","","null","","<span style=""color:Black; font-size:50px;"">Casey","Casey","STIM_SET_15/713211.bmp_pp100_L3_V1_veridical_freeview_isoFalse_fps144.mp4",""
"null","","","html-keyboard-response","193","2449499","0.0-193.0","n8aye2cc","","<span style=""color:Black; font-size:50px;"">Video 2</span>","null","","","","",""
"null","","","video-keyboard-response","194","2452598","0.0-194.0","n8aye2cc","","","null","","<span style=""color:Black; font-size:50px;"">Sandy","Sandy","STIM_SET_15/713211.bmp_pp77_L3_V1_veridical_freeview_isoFalse_fps144.mp4",""
"","","","call-function","195","2452598","0.0-195.0","n8aye2cc","","","","","","","",""
"2096.6800000001676","","","categorize-html","196","2456702","0.0-196.0","n8aye2cc","","Which video showed <span style=""font-size:30px"">Sandy's</span> attention?","49","","","","","false"
"null","","","html-keyboard-response","197","2457207","0.0-197.0","n8aye2cc",""," ","null","","","","",""
"","","","call-function","198","2457207","0.0-198.0","n8aye2cc","","","","","","","",""
"null","","","html-keyboard-response","199","2458713","0.0-199.0","n8aye2cc","","<span style=""color:Black; font-size:50px;"">Video 1</span>","null","","","","",""
"null","","","video-keyboard-response","200","2461823","0.0-200.0","n8aye2cc","","","null","","<span style=""color:Black; font-size:50px;"">Sandy","Sandy","STIM_SET_15/1159648.bmp_pp77_L3_V1_veridical_freeview_isoFalse_fps144.mp4",""
"null","","","html-keyboard-response","201","2463325","0.0-201.0","n8aye2cc","","<span style=""color:Black; font-size:50px;"">Video 2</span>","null","","","","",""
"null","","","video-keyboard-response","202","2466392","0.0-202.0","n8aye2cc","","","null","","<span style=""color:Black; font-size:50px;"">Casey","Casey","STIM_SET_15/1159648.bmp_pp100_L3_V1_veridical_freeview_isoFalse_fps144.mp4",""
"","","","call-function","203","2466393","0.0-203.0","n8aye2cc","","","","","","","",""
"534.4849999998696","","","categorize-html","204","2468931","0.0-204.0","n8aye2cc","","Which video showed <span style=""font-size:30px"">Sandy's</span> attention?","49","","","","","true"
"null","","","html-keyboard-response","205","2469434","0.0-205.0","n8aye2cc",""," ","null","","","","",""
"","","","call-function","206","2469435","0.0-206.0","n8aye2cc","","","","","","","",""
"null","","","html-keyboard-response","207","2470938","0.0-207.0","n8aye2cc","","<span style=""color:Black; font-size:50px;"">Video 1</span>","null","","","","",""
"null","","","video-keyboard-response","208","2474004","0.0-208.0","n8aye2cc","","","null","","<span style=""color:Black; font-size:50px;"">Sandy","Sandy","STIM_SET_15/1592241.bmp_pp77_L3_V1_veridical_freeview_isoFalse_fps144.mp4",""
"null","","","html-keyboard-response","209","2475508","0.0-209.0","n8aye2cc","","<span style=""color:Black; font-size:50px;"">Video 2</span>","null","","","","",""
"null","","","video-keyboard-response","210","2478592","0.0-210.0","n8aye2cc","","","null","","<span style=""color:Black; font-size:50px;"">Casey","Casey","STIM_SET_15/1592241.bmp_pp100_L3_V1_veridical_freeview_isoFalse_fps144.mp4",""
"","","","call-function","211","2478593","0.0-211.0","n8aye2cc","","","","","","","",""
"2158.6099999998696","","","categorize-html","212","2482754","0.0-212.0","n8aye2cc","","Which video showed <span style=""font-size:30px"">Sandy's</span> attention?","49","","","","","true"
"null","","","html-keyboard-response","213","2483257","0.0-213.0","n8aye2cc",""," ","null","","","","",""
"","","","call-function","214","2483257","0.0-214.0","n8aye2cc","","","","","","","",""
"null","","","html-keyboard-response","215","2484762","0.0-215.0","n8aye2cc","","<span style=""color:Black; font-size:50px;"">Video 1</span>","null","","","","",""
"null","","","video-keyboard-response","216","2487854","0.0-216.0","n8aye2cc","","","null","","<span style=""color:Black; font-size:50px;"">Sandy","Sandy","STIM_SET_15/713718.bmp_pp77_L3_V1_veridical_freeview_isoFalse_fps144.mp4",""
"null","","","html-keyboard-response","217","2489357","0.0-217.0","n8aye2cc","","<span style=""color:Black; font-size:50px;"">Video 2</span>","null","","","","",""
"null","","","video-keyboard-response","218","2492432","0.0-218.0","n8aye2cc","","","null","","<span style=""color:Black; font-size:50px;"">Casey","Casey","STIM_SET_15/713718.bmp_pp100_L3_V1_veridical_freeview_isoFalse_fps144.mp4",""
"","","","call-function","219","2492432","0.0-219.0","n8aye2cc","","","","","","","",""
"1694.970000000205","","","categorize-html","220","2496129","0.0-220.0","n8aye2cc","","Which video showed <span style=""font-size:30px"">Sandy's</span> attention?","49","","","","","true"
"null","","","html-keyboard-response","221","2496631","0.0-221.0","n8aye2cc",""," ","null","","","","",""
"","","","call-function","222","2496632","0.0-222.0","n8aye2cc","","","","","","","",""
"null","","","html-keyboard-response","223","2498134","0.0-223.0","n8aye2cc","","<span style=""color:Black; font-size:50px;"">Video 1</span>","null","","","","",""
"null","","","video-keyboard-response","224","2501231","0.0-224.0","n8aye2cc","","","null","","<span style=""color:Black; font-size:50px;"">Casey","Casey","STIM_SET_15/1593102.bmp_pp100_L3_V1_veridical_freeview_isoFalse_fps144.mp4",""
"null","","","html-keyboard-response","225","2502735","0.0-225.0","n8aye2cc","","<span style=""color:Black; font-size:50px;"">Video 2</span>","null","","","","",""
"null","","","video-keyboard-response","226","2505833","0.0-226.0","n8aye2cc","","","null","","<span style=""color:Black; font-size:50px;"">Sandy","Sandy","STIM_SET_15/1593102.bmp_pp77_L3_V1_veridical_freeview_isoFalse_fps144.mp4",""
"","","","call-function","227","2505833","0.0-227.0","n8aye2cc","","","","","","","",""
"565.8649999997579","","","categorize-html","228","2508402","0.0-228.0","n8aye2cc","","Which video showed <span style=""font-size:30px"">Sandy's</span> attention?","50","","","","","true"
"null","","","html-keyboard-response","229","2508903","0.0-229.0","n8aye2cc",""," ","null","","","","",""
"","","","call-function","230","2508903","0.0-230.0","n8aye2cc","","","","","","","",""
"null","","","html-keyboard-response","231","2510407","0.0-231.0","n8aye2cc","","<span style=""color:Black; font-size:50px;"">Video 1</span>","null","","","","",""
"null","","","video-keyboard-response","232","2513483","0.0-232.0","n8aye2cc","","","null","","<span style=""color:Black; font-size:50px;"">Sandy","Sandy","STIM_SET_15/498032.bmp_pp77_L3_V1_veridical_freeview_isoFalse_fps144.mp4",""
"null","","","html-keyboard-response","233","2514988","0.0-233.0","n8aye2cc","","<span style=""color:Black; font-size:50px;"">Video 2</span>","null","","","","",""
"null","","","video-keyboard-response","234","2518087","0.0-234.0","n8aye2cc","","","null","","<span style=""color:Black; font-size:50px;"">Casey","Casey","STIM_SET_15/498032.bmp_pp100_L3_V1_veridical_freeview_isoFalse_fps144.mp4",""
"","","","call-function","235","2518088","0.0-235.0","n8aye2cc","","","","","","","",""
"975.4949999996461","","","categorize-html","236","2521068","0.0-236.0","n8aye2cc","","Which video showed <span style=""font-size:30px"">Sandy's</span> attention?","49","","","","","true"
"null","","","html-keyboard-response","237","2521572","0.0-237.0","n8aye2cc",""," ","null","","","","",""
"","","","call-function","238","2521572","0.0-238.0","n8aye2cc","","","","","","","",""
"null","","","html-keyboard-response","239","2523073","0.0-239.0","n8aye2cc","","<span style=""color:Black; font-size:50px;"">Video 1</span>","null","","","","",""
"null","","","video-keyboard-response","240","2526172","0.0-240.0","n8aye2cc","","","null","","<span style=""color:Black; font-size:50px;"">Sandy","Sandy","STIM_SET_15/713274.bmp_pp77_L3_V1_veridical_freeview_isoFalse_fps144.mp4",""
"null","","","html-keyboard-response","241","2527674","0.0-241.0","n8aye2cc","","<span style=""color:Black; font-size:50px;"">Video 2</span>","null","","","","",""
"null","","","video-keyboard-response","242","2530735","0.0-242.0","n8aye2cc","","","null","","<span style=""color:Black; font-size:50px;"">Casey","Casey","STIM_SET_15/713274.bmp_pp100_L3_V1_veridical_freeview_isoFalse_fps144.mp4",""
"","","","call-function","243","2530735","0.0-243.0","n8aye2cc","","","","","","","",""
"775.9849999998696","","","categorize-html","244","2533515","0.0-244.0","n8aye2cc","","Which video showed <span style=""font-size:30px"">Sandy's</span> attention?","49","","","","","true"
"null","","","html-keyboard-response","245","2534018","0.0-245.0","n8aye2cc",""," ","null","","","","",""
"","","","call-function","246","2534018","0.0-246.0","n8aye2cc","","","","","","","",""
"null","","","html-keyboard-response","247","2535524","0.0-247.0","n8aye2cc","","<span style=""color:Black; font-size:50px;"">Video 1</span>","null","","","","",""
"null","","","video-keyboard-response","248","2538601","0.0-248.0","n8aye2cc","","","null","","<span style=""color:Black; font-size:50px;"">Casey","Casey","STIM_SET_15/285670.bmp_pp100_L3_V1_veridical_freeview_isoFalse_fps144.mp4",""
"null","","","html-keyboard-response","249","2540105","0.0-249.0","n8aye2cc","","<span style=""color:Black; font-size:50px;"">Video 2</span>","null","","","","",""
"null","","","video-keyboard-response","250","2543216","0.0-250.0","n8aye2cc","","","null","","<span style=""color:Black; font-size:50px;"">Sandy","Sandy","STIM_SET_15/285670.bmp_pp77_L3_V1_veridical_freeview_isoFalse_fps144.mp4",""
"","","","call-function","251","2543216","0.0-251.0","n8aye2cc","","","","","","","",""
"1094.9199999999255","","","categorize-html","252","2546313","0.0-252.0","n8aye2cc","","Which video showed <span style=""font-size:30px"">Sandy's</span> attention?","49","","","","","false"
"null","","","html-keyboard-response","253","2546816","0.0-253.0","n8aye2cc",""," ","null","","","","",""
"8002.120000000112","","","instructions","254","2554819","0.0-254.0","n8aye2cc","[{""page_index"":0,""viewing_time"":4181.040000000037},{""page_index"":1,""viewing_time"":690.9550000000745},{""page_index"":2,""viewing_time"":3130.0150000001304}]","","","","","","",""
"5838.024999999907","","","instructions","255","2560657","0.0-255.0","n8aye2cc","[{""page_index"":0,""viewing_time"":483.77499999990687},{""page_index"":1,""viewing_time"":3309.064999999944},{""page_index"":2,""viewing_time"":2045.0600000000559}]","","","","","","",""
"","","","call-function","256","2560658","0.0-256.0","n8aye2cc","","","","","","","",""
"null","","","html-keyboard-response","257","2562161","0.0-257.0","n8aye2cc","","<span style=""color:Black; font-size:50px;"">Video 1</span>","null","","","","",""
"null","","","video-keyboard-response","258","2565229","0.0-258.0","n8aye2cc","","","null","","<span style=""color:Black; font-size:50px;"">Sandy","Sandy","STIM_SET_15/1592921.bmp_pp77_L3_V1_veridical_freeview_isoFalse_fps144.mp4",""
"null","","","html-keyboard-response","259","2566732","0.0-259.0","n8aye2cc","","<span style=""color:Black; font-size:50px;"">Video 2</span>","null","","","","",""
"null","","","video-keyboard-response","260","2569834","0.0-260.0","n8aye2cc","","","null","","<span style=""color:Black; font-size:50px;"">Casey","Casey","STIM_SET_15/1592921.bmp_pp100_L3_V1_veridical_freeview_isoFalse_fps144.mp4",""
"","","","call-function","261","2569835","0.0-261.0","n8aye2cc","","","","","","","",""
"1988.7000000001863","","","categorize-html","262","2573829","0.0-262.0","n8aye2cc","","Which video showed <span style=""font-size:30px"">Sandy's</span> attention?","49","","","","","true"
"null","","","html-keyboard-response","263","2574334","0.0-263.0","n8aye2cc",""," ","null","","","","",""
"","","","call-function","264","2574335","0.0-264.0","n8aye2cc","","","","","","","",""
"null","","","html-keyboard-response","265","2575836","0.0-265.0","n8aye2cc","","<span style=""color:Black; font-size:50px;"">Video 1</span>","null","","","","",""
"null","","","video-keyboard-response","266","2578903","0.0-266.0","n8aye2cc","","","null","","<span style=""color:Black; font-size:50px;"">Sandy","Sandy","STIM_SET_15/713519.bmp_pp77_L3_V1_veridical_freeview_isoFalse_fps144.mp4",""
"null","","","html-keyboard-response","267","2580405","0.0-267.0","n8aye2cc","","<span style=""color:Black; font-size:50px;"">Video 2</span>","null","","","","",""
"null","","","video-keyboard-response","268","2583507","0.0-268.0","n8aye2cc","","","null","","<span style=""color:Black; font-size:50px;"">Casey","Casey","STIM_SET_15/713519.bmp_pp100_L3_V1_veridical_freeview_isoFalse_fps144.mp4",""
"","","","call-function","269","2583507","0.0-269.0","n8aye2cc","","","","","","","",""
"980.1049999999814","","","categorize-html","270","2586491","0.0-270.0","n8aye2cc","","Which video showed <span style=""font-size:30px"">Sandy's</span> attention?","49","","","","","true"
"null","","","html-keyboard-response","271","2586995","0.0-271.0","n8aye2cc",""," ","null","","","","",""
"","","","call-function","272","2586995","0.0-272.0","n8aye2cc","","","","","","","",""
"null","","","html-keyboard-response","273","2588501","0.0-273.0","n8aye2cc","","<span style=""color:Black; font-size:50px;"">Video 1</span>","null","","","","",""
"null","","","video-keyboard-response","274","2591607","0.0-274.0","n8aye2cc","","","null","","<span style=""color:Black; font-size:50px;"">Sandy","Sandy","STIM_SET_15/150384.bmp_pp77_L3_V1_veridical_freeview_isoFalse_fps144.mp4",""
"null","","","html-keyboard-response","275","2593112","0.0-275.0","n8aye2cc","","<span style=""color:Black; font-size:50px;"">Video 2</span>","null","","","","",""
"null","","","video-keyboard-response","276","2596174","0.0-276.0","n8aye2cc","","","null","","<span style=""color:Black; font-size:50px;"">Casey","Casey","STIM_SET_15/150384.bmp_pp100_L3_V1_veridical_freeview_isoFalse_fps144.mp4",""
"","","","call-function","277","2596174","0.0-277.0","n8aye2cc","","","","","","","",""
"784.9350000000559","","","categorize-html","278","2598966","0.0-278.0","n8aye2cc","","Which video showed <span style=""font-size:30px"">Sandy's</span> attention?","49","","","","","true"
"null","","","html-keyboard-response","279","2599470","0.0-279.0","n8aye2cc",""," ","null","","","","",""
"","","","call-function","280","2599471","0.0-280.0","n8aye2cc","","","","","","","",""
"null","","","html-keyboard-response","281","2600973","0.0-281.0","n8aye2cc","","<span style=""color:Black; font-size:50px;"">Video 1</span>","null","","","","",""
"null","","","video-keyboard-response","282","2604048","0.0-282.0","n8aye2cc","","","null","","<span style=""color:Black; font-size:50px;"">Casey","Casey","STIM_SET_15/1159675.bmp_pp100_L3_V1_veridical_freeview_isoFalse_fps144.mp4",""
"null","","","html-keyboard-response","283","2605555","0.0-283.0","n8aye2cc","","<span style=""color:Black; font-size:50px;"">Video 2</span>","null","","","","",""
"null","","","video-keyboard-response","284","2608660","0.0-284.0","n8aye2cc","","","null","","<span style=""color:Black; font-size:50px;"">Sandy","Sandy","STIM_SET_15/1159675.bmp_pp77_L3_V1_veridical_freeview_isoFalse_fps144.mp4",""
"","","","call-function","285","2608660","0.0-285.0","n8aye2cc","","","","","","","",""
"1098.7099999999627","","","categorize-html","286","2611762","0.0-286.0","n8aye2cc","","Which video showed <span style=""font-size:30px"">Sandy's</span> attention?","49","","","","","false"
"null","","","html-keyboard-response","287","2612263","0.0-287.0","n8aye2cc",""," ","null","","","","",""
"","","","call-function","288","2612264","0.0-288.0","n8aye2cc","","","","","","","",""
"null","","","html-keyboard-response","289","2613769","0.0-289.0","n8aye2cc","","<span style=""color:Black; font-size:50px;"">Video 1</span>","null","","","","",""
"null","","","video-keyboard-response","290","2616859","0.0-290.0","n8aye2cc","","","null","","<span style=""color:Black; font-size:50px;"">Casey","Casey","STIM_SET_15/1593241.bmp_pp100_L3_V1_veridical_freeview_isoFalse_fps144.mp4",""
"null","","","html-keyboard-response","291","2618361","0.0-291.0","n8aye2cc","","<span style=""color:Black; font-size:50px;"">Video 2</span>","null","","","","",""
"null","","","video-keyboard-response","292","2621456","0.0-292.0","n8aye2cc","","","null","","<span style=""color:Black; font-size:50px;"">Sandy","Sandy","STIM_SET_15/1593241.bmp_pp77_L3_V1_veridical_freeview_isoFalse_fps144.mp4",""
"","","","call-function","293","2621456","0.0-293.0","n8aye2cc","","","","","","","",""
"991.3500000000931","","","categorize-html","294","2624451","0.0-294.0","n8aye2cc","","Which video showed <span style=""font-size:30px"">Sandy's</span> attention?","49","","","","","false"
"null","","","html-keyboard-response","295","2624956","0.0-295.0","n8aye2cc",""," ","null","","","","",""
"","","","call-function","296","2624956","0.0-296.0","n8aye2cc","","","","","","","",""
"null","","","html-keyboard-response","297","2626462","0.0-297.0","n8aye2cc","","<span style=""color:Black; font-size:50px;"">Video 1</span>","null","","","","",""
"null","","","video-keyboard-response","298","2629531","0.0-298.0","n8aye2cc","","","null","","<span style=""color:Black; font-size:50px;"">Sandy","Sandy","STIM_SET_15/1592027.bmp_pp77_L3_V1_veridical_freeview_isoFalse_fps144.mp4",""
"null","","","html-keyboard-response","299","2631033","0.0-299.0","n8aye2cc","","<span style=""color:Black; font-size:50px;"">Video 2</span>","null","","","","",""
"null","","","video-keyboard-response","300","2634129","0.0-300.0","n8aye2cc","","","null","","<span style=""color:Black; font-size:50px;"">Casey","Casey","STIM_SET_15/1592027.bmp_pp100_L3_V1_veridical_freeview_isoFalse_fps144.mp4",""
"","","","call-function","301","2634129","0.0-301.0","n8aye2cc","","","","","","","",""
"933.875","","","categorize-html","302","2637068","0.0-302.0","n8aye2cc","","Which video showed <span style=""font-size:30px"">Sandy's</span> attention?","49","","","","","true"
"null","","","html-keyboard-response","303","2637571","0.0-303.0","n8aye2cc",""," ","null","","","","",""
"","","","call-function","304","2637572","0.0-304.0","n8aye2cc","","","","","","","",""
"null","","","html-keyboard-response","305","2639075","0.0-305.0","n8aye2cc","","<span style=""color:Black; font-size:50px;"">Video 1</span>","null","","","","",""
"null","","","video-keyboard-response","306","2642144","0.0-306.0","n8aye2cc","","","null","","<span style=""color:Black; font-size:50px;"">Sandy","Sandy","STIM_SET_15/1592951.bmp_pp77_L3_V1_veridical_freeview_isoFalse_fps144.mp4",""
"null","","","html-keyboard-response","307","2643645","0.0-307.0","n8aye2cc","","<span style=""color:Black; font-size:50px;"">Video 2</span>","null","","","","",""
"null","","","video-keyboard-response","308","2646743","0.0-308.0","n8aye2cc","","","null","","<span style=""color:Black; font-size:50px;"">Casey","Casey","STIM_SET_15/1592951.bmp_pp100_L3_V1_veridical_freeview_isoFalse_fps144.mp4",""
"","","","call-function","309","2646743","0.0-309.0","n8aye2cc","","","","","","","",""
"855.7549999998882","","","categorize-html","310","2649603","0.0-310.0","n8aye2cc","","Which video showed <span style=""font-size:30px"">Sandy's</span> attention?","49","","","","","true"
"null","","","html-keyboard-response","311","2650109","0.0-311.0","n8aye2cc",""," ","null","","","","",""
"","","","call-function","312","2650109","0.0-312.0","n8aye2cc","","","","","","","",""
"null","","","html-keyboard-response","313","2651611","0.0-313.0","n8aye2cc","","<span style=""color:Black; font-size:50px;"">Video 1</span>","null","","","","",""
"null","","","video-keyboard-response","314","2654713","0.0-314.0","n8aye2cc","","","null","","<span style=""color:Black; font-size:50px;"">Casey","Casey","STIM_SET_15/498079.bmp_pp100_L3_V1_veridical_freeview_isoFalse_fps144.mp4",""
"null","","","html-keyboard-response","315","2656218","0.0-315.0","n8aye2cc","","<span style=""color:Black; font-size:50px;"">Video 2</span>","null","","","","",""
"null","","","video-keyboard-response","316","2659278","0.0-316.0","n8aye2cc","","","null","","<span style=""color:Black; font-size:50px;"">Sandy","Sandy","STIM_SET_15/498079.bmp_pp77_L3_V1_veridical_freeview_isoFalse_fps144.mp4",""
"","","","call-function","317","2659278","0.0-317.0","n8aye2cc","","","","","","","",""
"1328.9550000000745","","","categorize-html","318","2662614","0.0-318.0","n8aye2cc","","Which video showed <span style=""font-size:30px"">Sandy's</span> attention?","50","","","","","true"
"null","","","html-keyboard-response","319","2663120","0.0-319.0","n8aye2cc",""," ","null","","","","",""
"","","","call-function","320","2663120","0.0-320.0","n8aye2cc","","","","","","","",""
"null","","","html-keyboard-response","321","2664623","0.0-321.0","n8aye2cc","","<span style=""color:Black; font-size:50px;"">Video 1</span>","null","","","","",""
"null","","","video-keyboard-response","322","2667684","0.0-322.0","n8aye2cc","","","null","","<span style=""color:Black; font-size:50px;"">Sandy","Sandy","STIM_SET_15/1592971.bmp_pp77_L3_V1_veridical_freeview_isoFalse_fps144.mp4",""
"null","","","html-keyboard-response","323","2669190","0.0-323.0","n8aye2cc","","<span style=""color:Black; font-size:50px;"">Video 2</span>","null","","","","",""
"null","","","video-keyboard-response","324","2672290","0.0-324.0","n8aye2cc","","","null","","<span style=""color:Black; font-size:50px;"">Casey","Casey","STIM_SET_15/1592971.bmp_pp100_L3_V1_veridical_freeview_isoFalse_fps144.mp4",""
"","","","call-function","325","2672290","0.0-325.0","n8aye2cc","","","","","","","",""
"1460.8900000001304","","","categorize-html","326","2675754","0.0-326.0","n8aye2cc","","Which video showed <span style=""font-size:30px"">Sandy's</span> attention?","49","","","","","true"
"null","","","html-keyboard-response","327","2676256","0.0-327.0","n8aye2cc",""," ","null","","","","",""
"","","","call-function","328","2676256","0.0-328.0","n8aye2cc","","","","","","","",""
"null","","","html-keyboard-response","329","2677761","0.0-329.0","n8aye2cc","","<span style=""color:Black; font-size:50px;"">Video 1</span>","null","","","","",""
"null","","","video-keyboard-response","330","2680869","0.0-330.0","n8aye2cc","","","null","","<span style=""color:Black; font-size:50px;"">Sandy","Sandy","STIM_SET_15/1159956.bmp_pp77_L3_V1_veridical_freeview_isoFalse_fps144.mp4",""
"null","","","html-keyboard-response","331","2682372","0.0-331.0","n8aye2cc","","<span style=""color:Black; font-size:50px;"">Video 2</span>","null","","","","",""
"null","","","video-keyboard-response","332","2685479","0.0-332.0","n8aye2cc","","","null","","<span style=""color:Black; font-size:50px;"">Casey","Casey","STIM_SET_15/1159956.bmp_pp100_L3_V1_veridical_freeview_isoFalse_fps144.mp4",""
"","","","call-function","333","2685479","0.0-333.0","n8aye2cc","","","","","","","",""
"1360.7900000000373","","","categorize-html","334","2688844","0.0-334.0","n8aye2cc","","Which video showed <span style=""font-size:30px"">Sandy's</span> attention?","49","","","","","true"
"null","","","html-keyboard-response","335","2689347","0.0-335.0","n8aye2cc",""," ","null","","","","",""
"3251.929999999702","","","instructions","336","2692599","0.0-336.0","n8aye2cc","[{""page_index"":0,""viewing_time"":2103.8300000000745},{""page_index"":1,""viewing_time"":70.09499999973923},{""page_index"":2,""viewing_time"":1077.8850000002421}]","","","","","","",""
"1458.3349999999627","","","instructions","337","2694058","0.0-337.0","n8aye2cc","[{""page_index"":0,""viewing_time"":534.1349999997765},{""page_index"":1,""viewing_time"":481.9900000002235},{""page_index"":2,""viewing_time"":442.0200000000186}]","","","","","","",""
"","","","call-function","338","2694059","0.0-338.0","n8aye2cc","","","","","","","",""
"null","","","html-keyboard-response","339","2695565","0.0-339.0","n8aye2cc","","<span style=""color:Black; font-size:50px;"">Video 1</span>","null","","","","",""
"null","","","video-keyboard-response","340","2698634","0.0-340.0","n8aye2cc","","","null","","<span style=""color:Black; font-size:50px;"">Casey","Casey","STIM_SET_15/1591994.bmp_pp100_L3_V1_veridical_freeview_isoFalse_fps144.mp4",""
"null","","","html-keyboard-response","341","2700140","0.0-341.0","n8aye2cc","","<span style=""color:Black; font-size:50px;"">Video 2</span>","null","","","","",""
"null","","","video-keyboard-response","342","2703236","0.0-342.0","n8aye2cc","","","null","","<span style=""color:Black; font-size:50px;"">Sandy","Sandy","STIM_SET_15/1591994.bmp_pp77_L3_V1_veridical_freeview_isoFalse_fps144.mp4",""
"","","","call-function","343","2703236","0.0-343.0","n8aye2cc","","","","","","","",""
"827.0800000000745","","","categorize-html","344","2706068","0.0-344.0","n8aye2cc","","Which video showed <span style=""font-size:30px"">Sandy's</span> attention?","49","","","","","false"
"null","","","html-keyboard-response","345","2706572","0.0-345.0","n8aye2cc",""," ","null","","","","",""
"","","","call-function","346","2706572","0.0-346.0","n8aye2cc","","","","","","","",""
"null","","","html-keyboard-response","347","2708079","0.0-347.0","n8aye2cc","","<span style=""color:Black; font-size:50px;"">Video 1</span>","null","","","","",""
"null","","","video-keyboard-response","348","2711139","0.0-348.0","n8aye2cc","","","null","","<span style=""color:Black; font-size:50px;"">Sandy","Sandy","STIM_SET_15/150290.bmp_pp77_L3_V1_veridical_freeview_isoFalse_fps144.mp4",""
"null","","","html-keyboard-response","349","2712641","0.0-349.0","n8aye2cc","","<span style=""color:Black; font-size:50px;"">Video 2</span>","null","","","","",""
"null","","","video-keyboard-response","350","2715745","0.0-350.0","n8aye2cc","","","null","","<span style=""color:Black; font-size:50px;"">Casey","Casey","STIM_SET_15/150290.bmp_pp100_L3_V1_veridical_freeview_isoFalse_fps144.mp4",""
"","","","call-function","351","2715745","0.0-351.0","n8aye2cc","","","","","","","",""
"1390.1800000001676","","","categorize-html","352","2719141","0.0-352.0","n8aye2cc","","Which video showed <span style=""font-size:30px"">Sandy's</span> attention?","50","","","","","false"
"null","","","html-keyboard-response","353","2719646","0.0-353.0","n8aye2cc",""," ","null","","","","",""
"","","","call-function","354","2719646","0.0-354.0","n8aye2cc","","","","","","","",""
"null","","","html-keyboard-response","355","2721152","0.0-355.0","n8aye2cc","","<span style=""color:Black; font-size:50px;"">Video 1</span>","null","","","","",""
"null","","","video-keyboard-response","356","2724228","0.0-356.0","n8aye2cc","","","null","","<span style=""color:Black; font-size:50px;"">Casey","Casey","STIM_SET_15/1592350.bmp_pp100_L3_V1_veridical_freeview_isoFalse_fps144.mp4",""
"null","","","html-keyboard-response","357","2725730","0.0-357.0","n8aye2cc","","<span style=""color:Black; font-size:50px;"">Video 2</span>","null","","","","",""
"null","","","video-keyboard-response","358","2728820","0.0-358.0","n8aye2cc","","","null","","<span style=""color:Black; font-size:50px;"">Sandy","Sandy","STIM_SET_15/1592350.bmp_pp77_L3_V1_veridical_freeview_isoFalse_fps144.mp4",""
"","","","call-function","359","2728821","0.0-359.0","n8aye2cc","","","","","","","",""
"1122.4550000000745","","","categorize-html","360","2731951","0.0-360.0","n8aye2cc","","Which video showed <span style=""font-size:30px"">Sandy's</span> attention?","50","","","","","true"
"null","","","html-keyboard-response","361","2732457","0.0-361.0","n8aye2cc",""," ","null","","","","",""
"","","","call-function","362","2732458","0.0-362.0","n8aye2cc","","","","","","","",""
"null","","","html-keyboard-response","363","2733960","0.0-363.0","n8aye2cc","","<span style=""color:Black; font-size:50px;"">Video 1</span>","null","","","","",""
"null","","","video-keyboard-response","364","2737034","0.0-364.0","n8aye2cc","","","null","","<span style=""color:Black; font-size:50px;"">Sandy","Sandy","STIM_SET_15/285751.bmp_pp77_L3_V1_veridical_freeview_isoFalse_fps144.mp4",""
"null","","","html-keyboard-response","365","2738536","0.0-365.0","n8aye2cc","","<span style=""color:Black; font-size:50px;"">Video 2</span>","null","","","","",""
"null","","","video-keyboard-response","366","2741630","0.0-366.0","n8aye2cc","","","null","","<span style=""color:Black; font-size:50px;"">Casey","Casey","STIM_SET_15/285751.bmp_pp100_L3_V1_veridical_freeview_isoFalse_fps144.mp4",""
"","","","call-function","367","2741630","0.0-367.0","n8aye2cc","","","","","","","",""
"1888.9850000003353","","","categorize-html","368","2745527","0.0-368.0","n8aye2cc","","Which video showed <span style=""font-size:30px"">Sandy's</span> attention?","49","","","","","true"
"null","","","html-keyboard-response","369","2746028","0.0-369.0","n8aye2cc",""," ","null","","","","",""
"","","","call-function","370","2746029","0.0-370.0","n8aye2cc","","","","","","","",""
"null","","","html-keyboard-response","371","2747534","0.0-371.0","n8aye2cc","","<span style=""color:Black; font-size:50px;"">Video 1</span>","null","","","","",""
"null","","","video-keyboard-response","372","2750639","0.0-372.0","n8aye2cc","","","null","","<span style=""color:Black; font-size:50px;"">Sandy","Sandy","STIM_SET_15/713392.bmp_pp77_L3_V1_veridical_freeview_isoFalse_fps144.mp4",""
"null","","","html-keyboard-response","373","2752145","0.0-373.0","n8aye2cc","","<span style=""color:Black; font-size:50px;"">Video 2</span>","null","","","","",""
"null","","","video-keyboard-response","374","2755242","0.0-374.0","n8aye2cc","","","null","","<span style=""color:Black; font-size:50px;"">Casey","Casey","STIM_SET_15/713392.bmp_pp100_L3_V1_veridical_freeview_isoFalse_fps144.mp4",""
"","","","call-function","375","2755242","0.0-375.0","n8aye2cc","","","","","","","",""
"1429.345000000205","","","categorize-html","376","2758676","0.0-376.0","n8aye2cc","","Which video showed <span style=""font-size:30px"">Sandy's</span> attention?","49","","","","","true"
"null","","","html-keyboard-response","377","2759181","0.0-377.0","n8aye2cc",""," ","null","","","","",""
"","","","call-function","378","2759181","0.0-378.0","n8aye2cc","","","","","","","",""
"null","","","html-keyboard-response","379","2760687","0.0-379.0","n8aye2cc","","<span style=""color:Black; font-size:50px;"">Video 1</span>","null","","","","",""
"null","","","video-keyboard-response","380","2763748","0.0-380.0","n8aye2cc","","","null","","<span style=""color:Black; font-size:50px;"">Sandy","Sandy","STIM_SET_15/150277.bmp_pp77_L3_V1_veridical_freeview_isoFalse_fps144.mp4",""
"null","","","html-keyboard-response","381","2765250","0.0-381.0","n8aye2cc","","<span style=""color:Black; font-size:50px;"">Video 2</span>","null","","","","",""
"null","","","video-keyboard-response","382","2768346","0.0-382.0","n8aye2cc","","","null","","<span style=""color:Black; font-size:50px;"">Casey","Casey","STIM_SET_15/150277.bmp_pp100_L3_V1_veridical_freeview_isoFalse_fps144.mp4",""
"","","","call-function","383","2768347","0.0-383.0","n8aye2cc","","","","","","","",""
"1684.8050000001676","","","categorize-html","384","2772034","0.0-384.0","n8aye2cc","","Which video showed <span style=""font-size:30px"">Sandy's</span> attention?","49","","","","","true"
"null","","","html-keyboard-response","385","2772540","0.0-385.0","n8aye2cc",""," ","null","","","","",""
"","","","call-function","386","2772540","0.0-386.0","n8aye2cc","","","","","","","",""
"null","","","html-keyboard-response","387","2774044","0.0-387.0","n8aye2cc","","<span style=""color:Black; font-size:50px;"">Video 1</span>","null","","","","",""
"null","","","video-keyboard-response","388","2777109","0.0-388.0","n8aye2cc","","","null","","<span style=""color:Black; font-size:50px;"">Casey","Casey","STIM_SET_15/1591858.bmp_pp100_L3_V1_veridical_freeview_isoFalse_fps144.mp4",""
"null","","","html-keyboard-response","389","2778616","0.0-389.0","n8aye2cc","","<span style=""color:Black; font-size:50px;"">Video 2</span>","null","","","","",""
"null","","","video-keyboard-response","390","2781710","0.0-390.0","n8aye2cc","","","null","","<span style=""color:Black; font-size:50px;"">Sandy","Sandy","STIM_SET_15/1591858.bmp_pp77_L3_V1_veridical_freeview_isoFalse_fps144.mp4",""
"","","","call-function","391","2781710","0.0-391.0","n8aye2cc","","","","","","","",""
"3593.1450000000186","","","categorize-html","392","2787310","0.0-392.0","n8aye2cc","","Which video showed <span style=""font-size:30px"">Sandy's</span> attention?","50","","","","","true"
"null","","","html-keyboard-response","393","2787817","0.0-393.0","n8aye2cc",""," ","null","","","","",""
"","","","call-function","394","2787817","0.0-394.0","n8aye2cc","","","","","","","",""
"null","","","html-keyboard-response","395","2789321","0.0-395.0","n8aye2cc","","<span style=""color:Black; font-size:50px;"">Video 1</span>","null","","","","",""
"null","","","video-keyboard-response","396","2792391","0.0-396.0","n8aye2cc","","","null","","<span style=""color:Black; font-size:50px;"">Casey","Casey","STIM_SET_15/1159592.bmp_pp100_L3_V1_veridical_freeview_isoFalse_fps144.mp4",""
"null","","","html-keyboard-response","397","2793894","0.0-397.0","n8aye2cc","","<span style=""color:Black; font-size:50px;"">Video 2</span>","null","","","","",""
"null","","","video-keyboard-response","398","2796990","0.0-398.0","n8aye2cc","","","null","","<span style=""color:Black; font-size:50px;"">Sandy","Sandy","STIM_SET_15/1159592.bmp_pp77_L3_V1_veridical_freeview_isoFalse_fps144.mp4",""
"","","","call-function","399","2796990","0.0-399.0","n8aye2cc","","","","","","","",""
"1129.5300000002608","","","categorize-html","400","2800122","0.0-400.0","n8aye2cc","","Which video showed <span style=""font-size:30px"">Sandy's</span> attention?","49","","","","","false"
"null","","","html-keyboard-response","401","2800624","0.0-401.0","n8aye2cc",""," ","null","","","","",""
"","","","call-function","402","2800625","0.0-402.0","n8aye2cc","","","","","","","",""
"null","","","html-keyboard-response","403","2802130","0.0-403.0","n8aye2cc","","<span style=""color:Black; font-size:50px;"">Video 1</span>","null","","","","",""
"null","","","video-keyboard-response","404","2805199","0.0-404.0","n8aye2cc","","","null","","<span style=""color:Black; font-size:50px;"">Sandy","Sandy","STIM_SET_15/498058.bmp_pp77_L3_V1_veridical_freeview_isoFalse_fps144.mp4",""
"null","","","html-keyboard-response","405","2806705","0.0-405.0","n8aye2cc","","<span style=""color:Black; font-size:50px;"">Video 2</span>","null","","","","",""
"null","","","video-keyboard-response","406","2809811","0.0-406.0","n8aye2cc","","","null","","<span style=""color:Black; font-size:50px;"">Casey","Casey","STIM_SET_15/498058.bmp_pp100_L3_V1_veridical_freeview_isoFalse_fps144.mp4",""
"","","","call-function","407","2809811","0.0-407.0","n8aye2cc","","","","","","","",""
"1116.6650000000373","","","categorize-html","408","2812935","0.0-408.0","n8aye2cc","","Which video showed <span style=""font-size:30px"">Sandy's</span> attention?","49","","","","","true"
"null","","","html-keyboard-response","409","2813439","0.0-409.0","n8aye2cc",""," ","null","","","","",""
"","","","call-function","410","2813440","0.0-410.0","n8aye2cc","","","","","","","",""
"null","","","html-keyboard-response","411","2814941","0.0-411.0","n8aye2cc","","<span style=""color:Black; font-size:50px;"">Video 1</span>","null","","","","",""
"null","","","video-keyboard-response","412","2818044","0.0-412.0","n8aye2cc","","","null","","<span style=""color:Black; font-size:50px;"">Sandy","Sandy","STIM_SET_15/1592305.bmp_pp77_L3_V1_veridical_freeview_isoFalse_fps144.mp4",""
"null","","","html-keyboard-response","413","2819550","0.0-413.0","n8aye2cc","","<span style=""color:Black; font-size:50px;"">Video 2</span>","null","","","","",""
"null","","","video-keyboard-response","414","2822643","0.0-414.0","n8aye2cc","","","null","","<span style=""color:Black; font-size:50px;"">Casey","Casey","STIM_SET_15/1592305.bmp_pp100_L3_V1_veridical_freeview_isoFalse_fps144.mp4",""
"","","","call-function","415","2822644","0.0-415.0","n8aye2cc","","","","","","","",""
"1011.8500000000931","","","categorize-html","416","2825662","0.0-416.0","n8aye2cc","","Which video showed <span style=""font-size:30px"">Sandy's</span> attention?","50","","","","","false"
"null","","","html-keyboard-response","417","2826168","0.0-417.0","n8aye2cc",""," ","null","","","","",""
"3419.8549999999814","","","instructions","418","2829588","0.0-418.0","n8aye2cc","[{""page_index"":0,""viewing_time"":1937.7949999999255},{""page_index"":1,""viewing_time"":704.8549999999814},{""page_index"":2,""viewing_time"":777.1000000000931}]","","","","","","",""
"3368.685000000056","","","instructions","419","2832957","0.0-419.0","n8aye2cc","[{""page_index"":0,""viewing_time"":540.6150000002235},{""page_index"":1,""viewing_time"":737.929999999702},{""page_index"":2,""viewing_time"":2090.0300000002608}]","","","","","","",""
"","","","call-function","420","2832958","0.0-420.0","n8aye2cc","","","","","","","",""
"null","","","html-keyboard-response","421","2834462","0.0-421.0","n8aye2cc","","<span style=""color:Black; font-size:50px;"">Video 1</span>","null","","","","",""
"null","","","video-keyboard-response","422","2837537","0.0-422.0","n8aye2cc","","","null","","<span style=""color:Black; font-size:50px;"">Sandy","Sandy","STIM_SET_15/713829.bmp_pp77_L3_V1_veridical_freeview_isoFalse_fps144.mp4",""
"null","","","html-keyboard-response","423","2839041","0.0-423.0","n8aye2cc","","<span style=""color:Black; font-size:50px;"">Video 2</span>","null","","","","",""
"null","","","video-keyboard-response","424","2842117","0.0-424.0","n8aye2cc","","","null","","<span style=""color:Black; font-size:50px;"">Casey","Casey","STIM_SET_15/713829.bmp_pp100_L3_V1_veridical_freeview_isoFalse_fps144.mp4",""
"","","","call-function","425","2842118","0.0-425.0","n8aye2cc","","","","","","","",""
"585.6650000000373","","","categorize-html","426","2844709","0.0-426.0","n8aye2cc","","Which video showed <span style=""font-size:30px"">Sandy's</span> attention?","49","","","","","true"
"null","","","html-keyboard-response","427","2845213","0.0-427.0","n8aye2cc",""," ","null","","","","",""
"","","","call-function","428","2845214","0.0-428.0","n8aye2cc","","","","","","","",""
"null","","","html-keyboard-response","429","2846718","0.0-429.0","n8aye2cc","","<span style=""color:Black; font-size:50px;"">Video 1</span>","null","","","","",""
"null","","","video-keyboard-response","430","2849805","0.0-430.0","n8aye2cc","","","null","","<span style=""color:Black; font-size:50px;"">Casey","Casey","STIM_SET_15/497926.bmp_pp100_L3_V1_veridical_freeview_isoFalse_fps144.mp4",""
"null","","","html-keyboard-response","431","2851308","0.0-431.0","n8aye2cc","","<span style=""color:Black; font-size:50px;"">Video 2</span>","null","","","","",""
"null","","","video-keyboard-response","432","2854396","0.0-432.0","n8aye2cc","","","null","","<span style=""color:Black; font-size:50px;"">Sandy","Sandy","STIM_SET_15/497926.bmp_pp77_L3_V1_veridical_freeview_isoFalse_fps144.mp4",""
"","","","call-function","433","2854397","0.0-433.0","n8aye2cc","","","","","","","",""
"1275.0999999996275","","","categorize-html","434","2857675","0.0-434.0","n8aye2cc","","Which video showed <span style=""font-size:30px"">Sandy's</span> attention?","50","","","","","true"
"null","","","html-keyboard-response","435","2858179","0.0-435.0","n8aye2cc",""," ","null","","","","",""
"","","","call-function","436","2858179","0.0-436.0","n8aye2cc","","","","","","","",""
"null","","","html-keyboard-response","437","2859681","0.0-437.0","n8aye2cc","","<span style=""color:Black; font-size:50px;"">Video 1</span>","null","","","","",""
"null","","","video-keyboard-response","438","2862744","0.0-438.0","n8aye2cc","","","null","","<span style=""color:Black; font-size:50px;"">Casey","Casey","STIM_SET_15/498405.bmp_pp100_L3_V1_veridical_freeview_isoFalse_fps144.mp4",""
"null","","","html-keyboard-response","439","2864250","0.0-439.0","n8aye2cc","","<span style=""color:Black; font-size:50px;"">Video 2</span>","null","","","","",""
"null","","","video-keyboard-response","440","2867355","0.0-440.0","n8aye2cc","","","null","","<span style=""color:Black; font-size:50px;"">Sandy","Sandy","STIM_SET_15/498405.bmp_pp77_L3_V1_veridical_freeview_isoFalse_fps144.mp4",""
"","","","call-function","441","2867357","0.0-441.0","n8aye2cc","","","","","","","",""
"1114.4650000003166","","","categorize-html","442","2870475","0.0-442.0","n8aye2cc","","Which video showed <span style=""font-size:30px"">Sandy's</span> attention?","49","","","","","false"
"null","","","html-keyboard-response","443","2870980","0.0-443.0","n8aye2cc",""," ","null","","","","",""
"","","","call-function","444","2870981","0.0-444.0","n8aye2cc","","","","","","","",""
"null","","","html-keyboard-response","445","2872483","0.0-445.0","n8aye2cc","","<span style=""color:Black; font-size:50px;"">Video 1</span>","null","","","","",""
"null","","","video-keyboard-response","446","2875542","0.0-446.0","n8aye2cc","","","null","","<span style=""color:Black; font-size:50px;"">Sandy","Sandy","STIM_SET_15/285766.bmp_pp77_L3_V1_veridical_freeview_isoFalse_fps144.mp4",""
"null","","","html-keyboard-response","447","2877047","0.0-447.0","n8aye2cc","","<span style=""color:Black; font-size:50px;"">Video 2</span>","null","","","","",""
"null","","","video-keyboard-response","448","2880139","0.0-448.0","n8aye2cc","","","null","","<span style=""color:Black; font-size:50px;"">Casey","Casey","STIM_SET_15/285766.bmp_pp100_L3_V1_veridical_freeview_isoFalse_fps144.mp4",""
"","","","call-function","449","2880140","0.0-449.0","n8aye2cc","","","","","","","",""
"1028.095000000205","","","categorize-html","450","2883174","0.0-450.0","n8aye2cc","","Which video showed <span style=""font-size:30px"">Sandy's</span> attention?","49","","","","","true"
"null","","","html-keyboard-response","451","2883678","0.0-451.0","n8aye2cc",""," ","null","","","","",""
"","","","call-function","452","2883678","0.0-452.0","n8aye2cc","","","","","","","",""
"null","","","html-keyboard-response","453","2885181","0.0-453.0","n8aye2cc","","<span style=""color:Black; font-size:50px;"">Video 1</span>","null","","","","",""
"null","","","video-keyboard-response","454","2888279","0.0-454.0","n8aye2cc","","","null","","<span style=""color:Black; font-size:50px;"">Casey","Casey","STIM_SET_15/713666.bmp_pp100_L3_V1_veridical_freeview_isoFalse_fps144.mp4",""
"null","","","html-keyboard-response","455","2889785","0.0-455.0","n8aye2cc","","<span style=""color:Black; font-size:50px;"">Video 2</span>","null","","","","",""
"null","","","video-keyboard-response","456","2892887","0.0-456.0","n8aye2cc","","","null","","<span style=""color:Black; font-size:50px;"">Sandy","Sandy","STIM_SET_15/713666.bmp_pp77_L3_V1_veridical_freeview_isoFalse_fps144.mp4",""
"","","","call-function","457","2892887","0.0-457.0","n8aye2cc","","","","","","","",""
"1392.130000000354","","","categorize-html","458","2896284","0.0-458.0","n8aye2cc","","Which video showed <span style=""font-size:30px"">Sandy's</span> attention?","49","","","","","false"
"null","","","html-keyboard-response","459","2896791","0.0-459.0","n8aye2cc",""," ","null","","","","",""
"","","","call-function","460","2896792","0.0-460.0","n8aye2cc","","","","","","","",""
"null","","","html-keyboard-response","461","2898294","0.0-461.0","n8aye2cc","","<span style=""color:Black; font-size:50px;"">Video 1</span>","null","","","","",""
"null","","","video-keyboard-response","462","2901364","0.0-462.0","n8aye2cc","","","null","","<span style=""color:Black; font-size:50px;"">Sandy","Sandy","STIM_SET_15/286034.bmp_pp77_L3_V1_veridical_freeview_isoFalse_fps144.mp4",""
"null","","","html-keyboard-response","463","2902866","0.0-463.0","n8aye2cc","","<span style=""color:Black; font-size:50px;"">Video 2</span>","null","","","","",""
"null","","","video-keyboard-response","464","2905942","0.0-464.0","n8aye2cc","","","null","","<span style=""color:Black; font-size:50px;"">Casey","Casey","STIM_SET_15/286034.bmp_pp100_L3_V1_veridical_freeview_isoFalse_fps144.mp4",""
"","","","call-function","465","2905942","0.0-465.0","n8aye2cc","","","","","","","",""
"3145.3599999998696","","","categorize-html","466","2911095","0.0-466.0","n8aye2cc","","Which video showed <span style=""font-size:30px"">Sandy's</span> attention?","49","","","","","true"
"null","","","html-keyboard-response","467","2911600","0.0-467.0","n8aye2cc",""," ","null","","","","",""
"","","","call-function","468","2911600","0.0-468.0","n8aye2cc","","","","","","","",""
"null","","","html-keyboard-response","469","2913103","0.0-469.0","n8aye2cc","","<span style=""color:Black; font-size:50px;"">Video 1</span>","null","","","","",""
"null","","","video-keyboard-response","470","2916194","0.0-470.0","n8aye2cc","","","null","","<span style=""color:Black; font-size:50px;"">Sandy","Sandy","STIM_SET_15/713684.bmp_pp77_L3_V1_veridical_freeview_isoFalse_fps144.mp4",""
"null","","","html-keyboard-response","471","2917700","0.0-471.0","n8aye2cc","","<span style=""color:Black; font-size:50px;"">Video 2</span>","null","","","","",""
"null","","","video-keyboard-response","472","2920795","0.0-472.0","n8aye2cc","","","null","","<span style=""color:Black; font-size:50px;"">Casey","Casey","STIM_SET_15/713684.bmp_pp100_L3_V1_veridical_freeview_isoFalse_fps144.mp4",""
"","","","call-function","473","2920796","0.0-473.0","n8aye2cc","","","","","","","",""
"523.785000000149","","","categorize-html","474","2923322","0.0-474.0","n8aye2cc","","Which video showed <span style=""font-size:30px"">Sandy's</span> attention?","49","","","","","true"
"null","","","html-keyboard-response","475","2923825","0.0-475.0","n8aye2cc",""," ","null","","","","",""
"","","","call-function","476","2923825","0.0-476.0","n8aye2cc","","","","","","","",""
"null","","","html-keyboard-response","477","2925329","0.0-477.0","n8aye2cc","","<span style=""color:Black; font-size:50px;"">Video 1</span>","null","","","","",""
"null","","","video-keyboard-response","478","2928388","0.0-478.0","n8aye2cc","","","null","","<span style=""color:Black; font-size:50px;"">Sandy","Sandy","STIM_SET_15/1160171.bmp_pp77_L3_V1_veridical_freeview_isoFalse_fps144.mp4",""
"null","","","html-keyboard-response","479","2929893","0.0-479.0","n8aye2cc","","<span style=""color:Black; font-size:50px;"">Video 2</span>","null","","","","",""
"null","","","video-keyboard-response","480","2932989","0.0-480.0","n8aye2cc","","","null","","<span style=""color:Black; font-size:50px;"">Casey","Casey","STIM_SET_15/1160171.bmp_pp100_L3_V1_veridical_freeview_isoFalse_fps144.mp4",""
"","","","call-function","481","2932990","0.0-481.0","n8aye2cc","","","","","","","",""
"1569.9799999999814","","","categorize-html","482","2936563","0.0-482.0","n8aye2cc","","Which video showed <span style=""font-size:30px"">Sandy's</span> attention?","50","","","","","false"
"null","","","html-keyboard-response","483","2937067","0.0-483.0","n8aye2cc",""," ","null","","","","",""
"","","","call-function","484","2937068","0.0-484.0","n8aye2cc","","","","","","","",""
"null","","","html-keyboard-response","485","2938573","0.0-485.0","n8aye2cc","","<span style=""color:Black; font-size:50px;"">Video 1</span>","null","","","","",""
"null","","","video-keyboard-response","486","2941641","0.0-486.0","n8aye2cc","","","null","","<span style=""color:Black; font-size:50px;"">Casey","Casey","STIM_SET_15/1592581.bmp_pp100_L3_V1_veridical_freeview_isoFalse_fps144.mp4",""
"null","","","html-keyboard-response","487","2943143","0.0-487.0","n8aye2cc","","<span style=""color:Black; font-size:50px;"">Video 2</span>","null","","","","",""
"null","","","video-keyboard-response","488","2946230","0.0-488.0","n8aye2cc","","","null","","<span style=""color:Black; font-size:50px;"">Sandy","Sandy","STIM_SET_15/1592581.bmp_pp77_L3_V1_veridical_freeview_isoFalse_fps144.mp4",""
"","","","call-function","489","2946231","0.0-489.0","n8aye2cc","","","","","","","",""
"736.7749999999069","","","categorize-html","490","2948975","0.0-490.0","n8aye2cc","","Which video showed <span style=""font-size:30px"">Sandy's</span> attention?","50","","","","","true"
"null","","","html-keyboard-response","491","2949477","0.0-491.0","n8aye2cc",""," ","null","","","","",""
"","","","call-function","492","2949478","0.0-492.0","n8aye2cc","","","","","","","",""
"null","","","html-keyboard-response","493","2950982","0.0-493.0","n8aye2cc","","<span style=""color:Black; font-size:50px;"">Video 1</span>","null","","","","",""
"null","","","video-keyboard-response","494","2954070","0.0-494.0","n8aye2cc","","","null","","<span style=""color:Black; font-size:50px;"">Casey","Casey","STIM_SET_15/1160152.bmp_pp100_L3_V1_veridical_freeview_isoFalse_fps144.mp4",""
"null","","","html-keyboard-response","495","2955573","0.0-495.0","n8aye2cc","","<span style=""color:Black; font-size:50px;"">Video 2</span>","null","","","","",""
"null","","","video-keyboard-response","496","2958666","0.0-496.0","n8aye2cc","","","null","","<span style=""color:Black; font-size:50px;"">Sandy","Sandy","STIM_SET_15/1160152.bmp_pp77_L3_V1_veridical_freeview_isoFalse_fps144.mp4",""
"","","","call-function","497","2958666","0.0-497.0","n8aye2cc","","","","","","","",""
"1157.7450000001118","","","categorize-html","498","2961830","0.0-498.0","n8aye2cc","","Which video showed <span style=""font-size:30px"">Sandy's</span> attention?","50","","","","","true"
"null","","","html-keyboard-response","499","2962336","0.0-499.0","n8aye2cc",""," ","null","","","","",""
"5349.964999999851","","","instructions","500","2967687","0.0-500.0","n8aye2cc","[{""page_index"":0,""viewing_time"":3982.345000000205},{""page_index"":1,""viewing_time"":439.375},{""page_index"":2,""viewing_time"":928.1349999997765}]","","","","","","",""
"3548.5200000000186","","","instructions","501","2971235","0.0-501.0","n8aye2cc","[{""page_index"":0,""viewing_time"":1518.7549999998882},{""page_index"":1,""viewing_time"":1107.7549999998882},{""page_index"":2,""viewing_time"":921.9000000003725}]","","","","","","",""
"","","","call-function","502","2971236","0.0-502.0","n8aye2cc","","","","","","","",""
"null","","","html-keyboard-response","503","2972739","0.0-503.0","n8aye2cc","","<span style=""color:Black; font-size:50px;"">Video 1</span>","null","","","","",""
"null","","","video-keyboard-response","504","2975800","0.0-504.0","n8aye2cc","","","null","","<span style=""color:Black; font-size:50px;"">Sandy","Sandy","STIM_SET_15/1593084.bmp_pp77_L3_V1_veridical_freeview_isoFalse_fps144.mp4",""
"null","","","html-keyboard-response","505","2977303","0.0-505.0","n8aye2cc","","<span style=""color:Black; font-size:50px;"">Video 2</span>","null","","","","",""
"null","","","video-keyboard-response","506","2980361","0.0-506.0","n8aye2cc","","","null","","<span style=""color:Black; font-size:50px;"">Casey","Casey","STIM_SET_15/1593084.bmp_pp100_L3_V1_veridical_freeview_isoFalse_fps144.mp4",""
"","","","call-function","507","2980362","0.0-507.0","n8aye2cc","","","","","","","",""
"1644.8149999999441","","","categorize-html","508","2984014","0.0-508.0","n8aye2cc","","Which video showed <span style=""font-size:30px"">Sandy's</span> attention?","49","","","","","true"
"null","","","html-keyboard-response","509","2984516","0.0-509.0","n8aye2cc",""," ","null","","","","",""
"","","","call-function","510","2984517","0.0-510.0","n8aye2cc","","","","","","","",""
"null","","","html-keyboard-response","511","2986019","0.0-511.0","n8aye2cc","","<span style=""color:Black; font-size:50px;"">Video 1</span>","null","","","","",""
"null","","","video-keyboard-response","512","2989111","0.0-512.0","n8aye2cc","","","null","","<span style=""color:Black; font-size:50px;"">Casey","Casey","STIM_SET_15/713403.bmp_pp100_L3_V1_veridical_freeview_isoFalse_fps144.mp4",""
"null","","","html-keyboard-response","513","2990617","0.0-513.0","n8aye2cc","","<span style=""color:Black; font-size:50px;"">Video 2</span>","null","","","","",""
"null","","","video-keyboard-response","514","2993680","0.0-514.0","n8aye2cc","","","null","","<span style=""color:Black; font-size:50px;"">Sandy","Sandy","STIM_SET_15/713403.bmp_pp77_L3_V1_veridical_freeview_isoFalse_fps144.mp4",""
"","","","call-function","515","2993681","0.0-515.0","n8aye2cc","","","","","","","",""
"1463.195000000298","","","categorize-html","516","2997147","0.0-516.0","n8aye2cc","","Which video showed <span style=""font-size:30px"">Sandy's</span> attention?","49","","","","","false"
"null","","","html-keyboard-response","517","2997649","0.0-517.0","n8aye2cc",""," ","null","","","","",""
"","","","call-function","518","2997649","0.0-518.0","n8aye2cc","","","","","","","",""
"null","","","html-keyboard-response","519","2999153","0.0-519.0","n8aye2cc","","<span style=""color:Black; font-size:50px;"">Video 1</span>","null","","","","",""
"null","","","video-keyboard-response","520","3002256","0.0-520.0","n8aye2cc","","","null","","<span style=""color:Black; font-size:50px;"">Casey","Casey","STIM_SET_15/498304.bmp_pp100_L3_V1_veridical_freeview_isoFalse_fps144.mp4",""
"null","","","html-keyboard-response","521","3003762","0.0-521.0","n8aye2cc","","<span style=""color:Black; font-size:50px;"">Video 2</span>","null","","","","",""
"null","","","video-keyboard-response","522","3006830","0.0-522.0","n8aye2cc","","","null","","<span style=""color:Black; font-size:50px;"">Sandy","Sandy","STIM_SET_15/498304.bmp_pp77_L3_V1_veridical_freeview_isoFalse_fps144.mp4",""
"","","","call-function","523","3006830","0.0-523.0","n8aye2cc","","","","","","","",""
"857.5300000002608","","","categorize-html","524","3009692","0.0-524.0","n8aye2cc","","Which video showed <span style=""font-size:30px"">Sandy's</span> attention?","49","","","","","false"
"null","","","html-keyboard-response","525","3010195","0.0-525.0","n8aye2cc",""," ","null","","","","",""
"","","","call-function","526","3010196","0.0-526.0","n8aye2cc","","","","","","","",""
"null","","","html-keyboard-response","527","3011702","0.0-527.0","n8aye2cc","","<span style=""color:Black; font-size:50px;"">Video 1</span>","null","","","","",""
"null","","","video-keyboard-response","528","3014791","0.0-528.0","n8aye2cc","","","null","","<span style=""color:Black; font-size:50px;"">Sandy","Sandy","STIM_SET_15/713689.bmp_pp77_L3_V1_veridical_freeview_isoFalse_fps144.mp4",""
"null","","","html-keyboard-response","529","3016293","0.0-529.0","n8aye2cc","","<span style=""color:Black; font-size:50px;"">Video 2</span>","null","","","","",""
"null","","","video-keyboard-response","530","3019375","0.0-530.0","n8aye2cc","","","null","","<span style=""color:Black; font-size:50px;"">Casey","Casey","STIM_SET_15/713689.bmp_pp100_L3_V1_veridical_freeview_isoFalse_fps144.mp4",""
"","","","call-function","531","3019375","0.0-531.0","n8aye2cc","","","","","","","",""
"1264.5200000000186","","","categorize-html","532","3022645","0.0-532.0","n8aye2cc","","Which video showed <span style=""font-size:30px"">Sandy's</span> attention?","49","","","","","true"
"null","","","html-keyboard-response","533","3023150","0.0-533.0","n8aye2cc",""," ","null","","","","",""
"","","","call-function","534","3023150","0.0-534.0","n8aye2cc","","","","","","","",""
"null","","","html-keyboard-response","535","3024653","0.0-535.0","n8aye2cc","","<span style=""color:Black; font-size:50px;"">Video 1</span>","null","","","","",""
"null","","","video-keyboard-response","536","3027738","0.0-536.0","n8aye2cc","","","null","","<span style=""color:Black; font-size:50px;"">Sandy","Sandy","STIM_SET_15/1159870.bmp_pp77_L3_V1_veridical_freeview_isoFalse_fps144.mp4",""
"null","","","html-keyboard-response","537","3029239","0.0-537.0","n8aye2cc","","<span style=""color:Black; font-size:50px;"">Video 2</span>","null","","","","",""
"null","","","video-keyboard-response","538","3032330","0.0-538.0","n8aye2cc","","","null","","<span style=""color:Black; font-size:50px;"">Casey","Casey","STIM_SET_15/1159870.bmp_pp100_L3_V1_veridical_freeview_isoFalse_fps144.mp4",""
"","","","call-function","539","3032331","0.0-539.0","n8aye2cc","","","","","","","",""
"2829.1299999998882","","","categorize-html","540","3037165","0.0-540.0","n8aye2cc","","Which video showed <span style=""font-size:30px"">Sandy's</span> attention?","50","","","","","false"
"null","","","html-keyboard-response","541","3037672","0.0-541.0","n8aye2cc",""," ","null","","","","",""
"","","","call-function","542","3037672","0.0-542.0","n8aye2cc","","","","","","","",""
"null","","","html-keyboard-response","543","3039179","0.0-543.0","n8aye2cc","","<span style=""color:Black; font-size:50px;"">Video 1</span>","null","","","","",""
"null","","","video-keyboard-response","544","3042247","0.0-544.0","n8aye2cc","","","null","","<span style=""color:Black; font-size:50px;"">Casey","Casey","STIM_SET_15/1592619.bmp_pp100_L3_V1_veridical_freeview_isoFalse_fps144.mp4",""
"null","","","html-keyboard-response","545","3043749","0.0-545.0","n8aye2cc","","<span style=""color:Black; font-size:50px;"">Video 2</span>","null","","","","",""
"null","","","video-keyboard-response","546","3046826","0.0-546.0","n8aye2cc","","","null","","<span style=""color:Black; font-size:50px;"">Sandy","Sandy","STIM_SET_15/1592619.bmp_pp77_L3_V1_veridical_freeview_isoFalse_fps144.mp4",""
"","","","call-function","547","3046827","0.0-547.0","n8aye2cc","","","","","","","",""
"1885.0449999999255","","","categorize-html","548","3050714","0.0-548.0","n8aye2cc","","Which video showed <span style=""font-size:30px"">Sandy's</span> attention?","50","","","","","true"
"null","","","html-keyboard-response","549","3051219","0.0-549.0","n8aye2cc",""," ","null","","","","",""
"","","","call-function","550","3051219","0.0-550.0","n8aye2cc","","","","","","","",""
"null","","","html-keyboard-response","551","3052725","0.0-551.0","n8aye2cc","","<span style=""color:Black; font-size:50px;"">Video 1</span>","null","","","","",""
"null","","","video-keyboard-response","552","3055828","0.0-552.0","n8aye2cc","","","null","","<span style=""color:Black; font-size:50px;"">Casey","Casey","STIM_SET_15/1592289.bmp_pp100_L3_V1_veridical_freeview_isoFalse_fps144.mp4",""
"null","","","html-keyboard-response","553","3057332","0.0-553.0","n8aye2cc","","<span style=""color:Black; font-size:50px;"">Video 2</span>","null","","","","",""
"null","","","video-keyboard-response","554","3060392","0.0-554.0","n8aye2cc","","","null","","<span style=""color:Black; font-size:50px;"">Sandy","Sandy","STIM_SET_15/1592289.bmp_pp77_L3_V1_veridical_freeview_isoFalse_fps144.mp4",""
"","","","call-function","555","3060393","0.0-555.0","n8aye2cc","","","","","","","",""
"2415.279999999795","","","categorize-html","556","3064813","0.0-556.0","n8aye2cc","","Which video showed <span style=""font-size:30px"">Sandy's</span> attention?","49","","","","","false"
"null","","","html-keyboard-response","557","3065317","0.0-557.0","n8aye2cc",""," ","null","","","","",""
"","","","call-function","558","3065318","0.0-558.0","n8aye2cc","","","","","","","",""
"null","","","html-keyboard-response","559","3066822","0.0-559.0","n8aye2cc","","<span style=""color:Black; font-size:50px;"">Video 1</span>","null","","","","",""
"null","","","video-keyboard-response","560","3069921","0.0-560.0","n8aye2cc","","","null","","<span style=""color:Black; font-size:50px;"">Sandy","Sandy","STIM_SET_15/1592201.bmp_pp77_L3_V1_veridical_freeview_isoFalse_fps144.mp4",""
"null","","","html-keyboard-response","561","3071424","0.0-561.0","n8aye2cc","","<span style=""color:Black; font-size:50px;"">Video 2</span>","null","","","","",""
"null","","","video-keyboard-response","562","3074492","0.0-562.0","n8aye2cc","","","null","","<span style=""color:Black; font-size:50px;"">Casey","Casey","STIM_SET_15/1592201.bmp_pp100_L3_V1_veridical_freeview_isoFalse_fps144.mp4",""
"","","","call-function","563","3074492","0.0-563.0","n8aye2cc","","","","","","","",""
"451.4349999995902","","","categorize-html","564","3076947","0.0-564.0","n8aye2cc","","Which video showed <span style=""font-size:30px"">Sandy's</span> attention?","50","","","","","false"
"null","","","html-keyboard-response","565","3077449","0.0-565.0","n8aye2cc",""," ","null","","","","",""
"","","","call-function","566","3077450","0.0-566.0","n8aye2cc","","","","","","","",""
"null","","","html-keyboard-response","567","3078956","0.0-567.0","n8aye2cc","","<span style=""color:Black; font-size:50px;"">Video 1</span>","null","","","","",""
"null","","","video-keyboard-response","568","3082055","0.0-568.0","n8aye2cc","","","null","","<span style=""color:Black; font-size:50px;"">Casey","Casey","STIM_SET_15/1592150.bmp_pp100_L3_V1_veridical_freeview_isoFalse_fps144.mp4",""
"null","","","html-keyboard-response","569","3083559","0.0-569.0","n8aye2cc","","<span style=""color:Black; font-size:50px;"">Video 2</span>","null","","","","",""
"null","","","video-keyboard-response","570","3086652","0.0-570.0","n8aye2cc","","","null","","<span style=""color:Black; font-size:50px;"">Sandy","Sandy","STIM_SET_15/1592150.bmp_pp77_L3_V1_veridical_freeview_isoFalse_fps144.mp4",""
"","","","call-function","571","3086653","0.0-571.0","n8aye2cc","","","","","","","",""
"706.9849999998696","","","categorize-html","572","3089365","0.0-572.0","n8aye2cc","","Which video showed <span style=""font-size:30px"">Sandy's</span> attention?","50","","","","","true"
"null","","","html-keyboard-response","573","3089872","0.0-573.0","n8aye2cc",""," ","null","","","","",""
"","","","call-function","574","3089872","0.0-574.0","n8aye2cc","","","","","","","",""
"null","","","html-keyboard-response","575","3091378","0.0-575.0","n8aye2cc","","<span style=""color:Black; font-size:50px;"">Video 1</span>","null","","","","",""
"null","","","video-keyboard-response","576","3094471","0.0-576.0","n8aye2cc","","","null","","<span style=""color:Black; font-size:50px;"">Sandy","Sandy","STIM_SET_15/713790.bmp_pp77_L3_V1_veridical_freeview_isoFalse_fps144.mp4",""
"null","","","html-keyboard-response","577","3095976","0.0-577.0","n8aye2cc","","<span style=""color:Black; font-size:50px;"">Video 2</span>","null","","","","",""
"null","","","video-keyboard-response","578","3099081","0.0-578.0","n8aye2cc","","","null","","<span style=""color:Black; font-size:50px;"">Casey","Casey","STIM_SET_15/713790.bmp_pp100_L3_V1_veridical_freeview_isoFalse_fps144.mp4",""
"","","","call-function","579","3099081","0.0-579.0","n8aye2cc","","","","","","","",""
"1350.5499999998137","","","categorize-html","580","3102439","0.0-580.0","n8aye2cc","","Which video showed <span style=""font-size:30px"">Sandy's</span> attention?","49","","","","","true"
"null","","","html-keyboard-response","581","3102943","0.0-581.0","n8aye2cc",""," ","null","","","","",""
"3235.7650000001304","","","instructions","582","3106180","0.0-582.0","n8aye2cc","[{""page_index"":0,""viewing_time"":3235.6450000000186}]","","","","","","",""
"1625.6699999999255","","","instructions","583","3107806","0.0-583.0","n8aye2cc","[{""page_index"":0,""viewing_time"":1625.5600000000559}]","","","","","","",""
"28304.28500000015","{""Q0"":""that was fun! Were those gifs or movie files? I think Casey is a nut""}","","survey-text","584","3136115","0.0-584.0","n8aye2cc","","","","","","","",""
"55044.93000000017","{""Q0"":""the split attention (when the attention divided in many parts) was always Casey? (If I'm not mistaken?) if so, that's a lower-level cue which might be fine!""}","","survey-text","585","3191164","0.0-585.0","n8aye2cc","","","","","","","",""
"25707.669999999925","{""Q0"":""I was sad when I got the feedback when I got it wrong ""}","","survey-text","586","3216876","0.0-586.0","n8aye2cc","","","","","","","",""
"1157.0400000000373","","","instructions","587","3218034","0.0-587.0","n8aye2cc","[{""page_index"":0,""viewing_time"":1156.9300000001676}]","","","","","","",""
"675232.1200000001","{""Experimenter_end"":[""Printed ID# n8aye2cc on consent form"",""Given subject SONA credit or payment"",""Given the subject debrief form""]}","[0]","survey-multi-select","588","3893269","0.0-588.0","n8aye2cc","","","","","","","",""
