"rt","responses","question_order","trial_type","trial_index","time_elapsed","internal_node_id","ID","view_history","stimulus","key_press","value","agent","condition","image","correct"
"13708.305","{""Experimenter"":[""Confirmed subject's identity (ID card)"",""Confirmed normal or corrected-to-normal vision"",""Obtained consent (signature and date)"",""Checked the test room lighting"",""Checked computer screen lighting"",""Checked distance from screen to chin rest (50cm)"",""Cleaned and adjusted chin rest"",""Counterbalanced the order of the tasks"",""Opened the experiment in Firefox"",""Made the experiment full screen"",""Encouraged subject to silence phone, put away distractors, etc.""]}","[0]","survey-multi-select","0","13716","0.0-0.0","djqos8yn","","","","","","","",""
"95660","","","instructions","1","109378","0.0-1.0","djqos8yn","[{""page_index"":0,""viewing_time"":95659.84999999999}]","","","","","","",""
"7571.270000000004","{""Age"":5,""Sex"":0,""Gender"":0}","[0,1,2]","survey-likert","2","116951","0.0-2.0","djqos8yn","","","","","","","",""
"1284.75","","","instructions","3","118236","0.0-3.0","djqos8yn","[{""page_index"":0,""viewing_time"":1284.645000000004}]","","","","","","",""
"20205.38500000001","","","instructions","4","138442","0.0-4.0","djqos8yn","[{""page_index"":0,""viewing_time"":1140.574999999997},{""page_index"":1,""viewing_time"":10517.945000000007},{""page_index"":2,""viewing_time"":8546.669999999998}]","","","","","","",""
"2988.540000000008","","","instructions","5","141431","0.0-5.0","djqos8yn","[{""page_index"":0,""viewing_time"":2988.4400000000023}]","","","","","","",""
"null","","","video-keyboard-response","6","144504","0.0-6.0","djqos8yn","","","null","","","","",""
"65103.66500000001","","","instructions","7","209608","0.0-7.0","djqos8yn","[{""page_index"":0,""viewing_time"":7546.570000000007},{""page_index"":1,""viewing_time"":6863.049999999988},{""page_index"":2,""viewing_time"":1485.0200000000186},{""page_index"":3,""viewing_time"":8339.470000000001},{""page_index"":4,""viewing_time"":7392.5199999999895},{""page_index"":5,""viewing_time"":9548.214999999997},{""page_index"":6,""viewing_time"":20112.77000000002},{""page_index"":7,""viewing_time"":3815.9249999999884}]","","","","","","",""
"59521.19","","","instructions","8","269131","0.0-8.0","djqos8yn","[{""page_index"":0,""viewing_time"":59520.544999999984}]","","","","","","",""
"2085.2449999999953","","","instructions","9","271217","0.0-9.0","djqos8yn","[{""page_index"":0,""viewing_time"":2085.1450000000186}]","","","","","","",""
"","","","call-function","10","271218","0.0-10.0","djqos8yn","","","","","","","",""
"null","","","html-keyboard-response","11","272724","0.0-11.0","djqos8yn","","<span style=""color:Black; font-size:50px;"">Video 1</span>","null","","","","",""
"null","","","video-keyboard-response","12","275795","0.0-12.0","djqos8yn","","","null","","<span style=""color:Black; font-size:50px;"">Casey","Casey","STIM_SET_16/1159762.bmp_pp84_L3_V1_veridical_freeview_isoFalse_fps144.mp4",""
"null","","","html-keyboard-response","13","277300","0.0-13.0","djqos8yn","","<span style=""color:Black; font-size:50px;"">Video 2</span>","null","","","","",""
"null","","","video-keyboard-response","14","280378","0.0-14.0","djqos8yn","","","null","","<span style=""color:Black; font-size:50px;"">Sandy","Sandy","STIM_SET_16/1159762.bmp_pp97_L3_V1_veridical_freeview_isoFalse_fps144.mp4",""
"","","","call-function","15","280378","0.0-15.0","djqos8yn","","","","","","","",""
"5647.77999999997","","","categorize-html","16","288028","0.0-16.0","djqos8yn","","Which video showed <span style=""font-size:30px"">Sandy's</span> attention?","49","","","","","false"
"null","","","html-keyboard-response","17","288530","0.0-17.0","djqos8yn",""," ","null","","","","",""
"","","","call-function","18","288531","0.0-18.0","djqos8yn","","","","","","","",""
"null","","","html-keyboard-response","19","290037","0.0-19.0","djqos8yn","","<span style=""color:Black; font-size:50px;"">Video 1</span>","null","","","","",""
"null","","","video-keyboard-response","20","293115","0.0-20.0","djqos8yn","","","null","","<span style=""color:Black; font-size:50px;"">Casey","Casey","STIM_SET_16/1593241.bmp_pp84_L3_V1_veridical_freeview_isoFalse_fps144.mp4",""
"null","","","html-keyboard-response","21","294620","0.0-21.0","djqos8yn","","<span style=""color:Black; font-size:50px;"">Video 2</span>","null","","","","",""
"null","","","video-keyboard-response","22","297682","0.0-22.0","djqos8yn","","","null","","<span style=""color:Black; font-size:50px;"">Sandy","Sandy","STIM_SET_16/1593241.bmp_pp97_L3_V1_veridical_freeview_isoFalse_fps144.mp4",""
"","","","call-function","23","297684","0.0-23.0","djqos8yn","","","","","","","",""
"3796.780000000028","","","categorize-html","24","303488","0.0-24.0","djqos8yn","","Which video showed <span style=""font-size:30px"">Sandy's</span> attention?","49","","","","","false"
"null","","","html-keyboard-response","25","303990","0.0-25.0","djqos8yn",""," ","null","","","","",""
"","","","call-function","26","303991","0.0-26.0","djqos8yn","","","","","","","",""
"null","","","html-keyboard-response","27","305495","0.0-27.0","djqos8yn","","<span style=""color:Black; font-size:50px;"">Video 1</span>","null","","","","",""
"null","","","video-keyboard-response","28","308589","0.0-28.0","djqos8yn","","","null","","<span style=""color:Black; font-size:50px;"">Sandy","Sandy","STIM_SET_16/1159482.bmp_pp97_L3_V1_veridical_freeview_isoFalse_fps144.mp4",""
"null","","","html-keyboard-response","29","310092","0.0-29.0","djqos8yn","","<span style=""color:Black; font-size:50px;"">Video 2</span>","null","","","","",""
"null","","","video-keyboard-response","30","313189","0.0-30.0","djqos8yn","","","null","","<span style=""color:Black; font-size:50px;"">Casey","Casey","STIM_SET_16/1159482.bmp_pp84_L3_V1_veridical_freeview_isoFalse_fps144.mp4",""
"","","","call-function","31","313190","0.0-31.0","djqos8yn","","","","","","","",""
"2738.7999999999884","","","categorize-html","32","317932","0.0-32.0","djqos8yn","","Which video showed <span style=""font-size:30px"">Sandy's</span> attention?","49","","","","","true"
"null","","","html-keyboard-response","33","318435","0.0-33.0","djqos8yn",""," ","null","","","","",""
"","","","call-function","34","318435","0.0-34.0","djqos8yn","","","","","","","",""
"null","","","html-keyboard-response","35","319938","0.0-35.0","djqos8yn","","<span style=""color:Black; font-size:50px;"">Video 1</span>","null","","","","",""
"null","","","video-keyboard-response","36","323042","0.0-36.0","djqos8yn","","","null","","<span style=""color:Black; font-size:50px;"">Casey","Casey","STIM_SET_16/1160019.bmp_pp84_L3_V1_veridical_freeview_isoFalse_fps144.mp4",""
"null","","","html-keyboard-response","37","324544","0.0-37.0","djqos8yn","","<span style=""color:Black; font-size:50px;"">Video 2</span>","null","","","","",""
"null","","","video-keyboard-response","38","327632","0.0-38.0","djqos8yn","","","null","","<span style=""color:Black; font-size:50px;"">Sandy","Sandy","STIM_SET_16/1160019.bmp_pp97_L3_V1_veridical_freeview_isoFalse_fps144.mp4",""
"","","","call-function","39","327632","0.0-39.0","djqos8yn","","","","","","","",""
"2616.625","","","categorize-html","40","332256","0.0-40.0","djqos8yn","","Which video showed <span style=""font-size:30px"">Sandy's</span> attention?","50","","","","","true"
"null","","","html-keyboard-response","41","332761","0.0-41.0","djqos8yn",""," ","null","","","","",""
"","","","call-function","42","332761","0.0-42.0","djqos8yn","","","","","","","",""
"null","","","html-keyboard-response","43","334268","0.0-43.0","djqos8yn","","<span style=""color:Black; font-size:50px;"">Video 1</span>","null","","","","",""
"null","","","video-keyboard-response","44","337361","0.0-44.0","djqos8yn","","","null","","<span style=""color:Black; font-size:50px;"">Sandy","Sandy","STIM_SET_16/285766.bmp_pp97_L3_V1_veridical_freeview_isoFalse_fps144.mp4",""
"null","","","html-keyboard-response","45","338863","0.0-45.0","djqos8yn","","<span style=""color:Black; font-size:50px;"">Video 2</span>","null","","","","",""
"null","","","video-keyboard-response","46","341930","0.0-46.0","djqos8yn","","","null","","<span style=""color:Black; font-size:50px;"">Casey","Casey","STIM_SET_16/285766.bmp_pp84_L3_V1_veridical_freeview_isoFalse_fps144.mp4",""
"","","","call-function","47","341930","0.0-47.0","djqos8yn","","","","","","","",""
"2318.3000000000466","","","categorize-html","48","346250","0.0-48.0","djqos8yn","","Which video showed <span style=""font-size:30px"">Sandy's</span> attention?","50","","","","","false"
"null","","","html-keyboard-response","49","346757","0.0-49.0","djqos8yn",""," ","null","","","","",""
"","","","call-function","50","346757","0.0-50.0","djqos8yn","","","","","","","",""
"null","","","html-keyboard-response","51","348259","0.0-51.0","djqos8yn","","<span style=""color:Black; font-size:50px;"">Video 1</span>","null","","","","",""
"null","","","video-keyboard-response","52","351319","0.0-52.0","djqos8yn","","","null","","<span style=""color:Black; font-size:50px;"">Sandy","Sandy","STIM_SET_16/1591994.bmp_pp97_L3_V1_veridical_freeview_isoFalse_fps144.mp4",""
"null","","","html-keyboard-response","53","352824","0.0-53.0","djqos8yn","","<span style=""color:Black; font-size:50px;"">Video 2</span>","null","","","","",""
"null","","","video-keyboard-response","54","355919","0.0-54.0","djqos8yn","","","null","","<span style=""color:Black; font-size:50px;"">Casey","Casey","STIM_SET_16/1591994.bmp_pp84_L3_V1_veridical_freeview_isoFalse_fps144.mp4",""
"","","","call-function","55","355920","0.0-55.0","djqos8yn","","","","","","","",""
"6785.455000000016","","","categorize-html","56","364709","0.0-56.0","djqos8yn","","Which video showed <span style=""font-size:30px"">Sandy's</span> attention?","49","","","","","true"
"null","","","html-keyboard-response","57","365214","0.0-57.0","djqos8yn",""," ","null","","","","",""
"","","","call-function","58","365214","0.0-58.0","djqos8yn","","","","","","","",""
"null","","","html-keyboard-response","59","366721","0.0-59.0","djqos8yn","","<span style=""color:Black; font-size:50px;"">Video 1</span>","null","","","","",""
"null","","","video-keyboard-response","60","369787","0.0-60.0","djqos8yn","","","null","","<span style=""color:Black; font-size:50px;"">Sandy","Sandy","STIM_SET_16/1592201.bmp_pp97_L3_V1_veridical_freeview_isoFalse_fps144.mp4",""
"null","","","html-keyboard-response","61","371290","0.0-61.0","djqos8yn","","<span style=""color:Black; font-size:50px;"">Video 2</span>","null","","","","",""
"null","","","video-keyboard-response","62","374366","0.0-62.0","djqos8yn","","","null","","<span style=""color:Black; font-size:50px;"">Casey","Casey","STIM_SET_16/1592201.bmp_pp84_L3_V1_veridical_freeview_isoFalse_fps144.mp4",""
"","","","call-function","63","374366","0.0-63.0","djqos8yn","","","","","","","",""
"730.6600000000326","","","categorize-html","64","377102","0.0-64.0","djqos8yn","","Which video showed <span style=""font-size:30px"">Sandy's</span> attention?","50","","","","","false"
"null","","","html-keyboard-response","65","377608","0.0-65.0","djqos8yn",""," ","null","","","","",""
"","","","call-function","66","377609","0.0-66.0","djqos8yn","","","","","","","",""
"null","","","html-keyboard-response","67","379114","0.0-67.0","djqos8yn","","<span style=""color:Black; font-size:50px;"">Video 1</span>","null","","","","",""
"null","","","video-keyboard-response","68","382219","0.0-68.0","djqos8yn","","","null","","<span style=""color:Black; font-size:50px;"">Sandy","Sandy","STIM_SET_16/498079.bmp_pp97_L3_V1_veridical_freeview_isoFalse_fps144.mp4",""
"null","","","html-keyboard-response","69","383724","0.0-69.0","djqos8yn","","<span style=""color:Black; font-size:50px;"">Video 2</span>","null","","","","",""
"null","","","video-keyboard-response","70","386824","0.0-70.0","djqos8yn","","","null","","<span style=""color:Black; font-size:50px;"">Casey","Casey","STIM_SET_16/498079.bmp_pp84_L3_V1_veridical_freeview_isoFalse_fps144.mp4",""
"","","","call-function","71","386824","0.0-71.0","djqos8yn","","","","","","","",""
"2744.9599999999627","","","categorize-html","72","391574","0.0-72.0","djqos8yn","","Which video showed <span style=""font-size:30px"">Sandy's</span> attention?","49","","","","","true"
"null","","","html-keyboard-response","73","392078","0.0-73.0","djqos8yn",""," ","null","","","","",""
"","","","call-function","74","392079","0.0-74.0","djqos8yn","","","","","","","",""
"null","","","html-keyboard-response","75","393584","0.0-75.0","djqos8yn","","<span style=""color:Black; font-size:50px;"">Video 1</span>","null","","","","",""
"null","","","video-keyboard-response","76","396676","0.0-76.0","djqos8yn","","","null","","<span style=""color:Black; font-size:50px;"">Sandy","Sandy","STIM_SET_16/285684.bmp_pp97_L3_V1_veridical_freeview_isoFalse_fps144.mp4",""
"null","","","html-keyboard-response","77","398180","0.0-77.0","djqos8yn","","<span style=""color:Black; font-size:50px;"">Video 2</span>","null","","","","",""
"null","","","video-keyboard-response","78","401285","0.0-78.0","djqos8yn","","","null","","<span style=""color:Black; font-size:50px;"">Casey","Casey","STIM_SET_16/285684.bmp_pp84_L3_V1_veridical_freeview_isoFalse_fps144.mp4",""
"","","","call-function","79","401285","0.0-79.0","djqos8yn","","","","","","","",""
"1099.2200000000303","","","categorize-html","80","404391","0.0-80.0","djqos8yn","","Which video showed <span style=""font-size:30px"">Sandy's</span> attention?","49","","","","","true"
"null","","","html-keyboard-response","81","404898","0.0-81.0","djqos8yn",""," ","null","","","","",""
"","","","call-function","82","404899","0.0-82.0","djqos8yn","","","","","","","",""
"null","","","html-keyboard-response","83","406404","0.0-83.0","djqos8yn","","<span style=""color:Black; font-size:50px;"">Video 1</span>","null","","","","",""
"null","","","video-keyboard-response","84","409465","0.0-84.0","djqos8yn","","","null","","<span style=""color:Black; font-size:50px;"">Sandy","Sandy","STIM_SET_16/1592971.bmp_pp97_L3_V1_veridical_freeview_isoFalse_fps144.mp4",""
"null","","","html-keyboard-response","85","410969","0.0-85.0","djqos8yn","","<span style=""color:Black; font-size:50px;"">Video 2</span>","null","","","","",""
"null","","","video-keyboard-response","86","414058","0.0-86.0","djqos8yn","","","null","","<span style=""color:Black; font-size:50px;"">Casey","Casey","STIM_SET_16/1592971.bmp_pp84_L3_V1_veridical_freeview_isoFalse_fps144.mp4",""
"","","","call-function","87","414058","0.0-87.0","djqos8yn","","","","","","","",""
"3918.6300000000047","","","categorize-html","88","419982","0.0-88.0","djqos8yn","","Which video showed <span style=""font-size:30px"">Sandy's</span> attention?","49","","","","","true"
"null","","","html-keyboard-response","89","420485","0.0-89.0","djqos8yn",""," ","null","","","","",""
"3856.0750000000116","","","instructions","90","424342","0.0-90.0","djqos8yn","[{""page_index"":0,""viewing_time"":1323.8250000000116},{""page_index"":1,""viewing_time"":1454.054999999993},{""page_index"":2,""viewing_time"":1078.085000000021}]","","","","","","",""
"6069.664999999979","","","instructions","91","430412","0.0-91.0","djqos8yn","[{""page_index"":0,""viewing_time"":1007.4499999999534},{""page_index"":1,""viewing_time"":3402.0950000000303},{""page_index"":2,""viewing_time"":1660.015000000014}]","","","","","","",""
"","","","call-function","92","430412","0.0-92.0","djqos8yn","","","","","","","",""
"null","","","html-keyboard-response","93","431919","0.0-93.0","djqos8yn","","<span style=""color:Black; font-size:50px;"">Video 1</span>","null","","","","",""
"null","","","video-keyboard-response","94","434979","0.0-94.0","djqos8yn","","","null","","<span style=""color:Black; font-size:50px;"">Casey","Casey","STIM_SET_16/1591858.bmp_pp84_L3_V1_veridical_freeview_isoFalse_fps144.mp4",""
"null","","","html-keyboard-response","95","436481","0.0-95.0","djqos8yn","","<span style=""color:Black; font-size:50px;"">Video 2</span>","null","","","","",""
"null","","","video-keyboard-response","96","439542","0.0-96.0","djqos8yn","","","null","","<span style=""color:Black; font-size:50px;"">Sandy","Sandy","STIM_SET_16/1591858.bmp_pp97_L3_V1_veridical_freeview_isoFalse_fps144.mp4",""
"","","","call-function","97","439543","0.0-97.0","djqos8yn","","","","","","","",""
"2409.914999999979","","","categorize-html","98","443958","0.0-98.0","djqos8yn","","Which video showed <span style=""font-size:30px"">Sandy's</span> attention?","49","","","","","false"
"null","","","html-keyboard-response","99","444460","0.0-99.0","djqos8yn",""," ","null","","","","",""
"","","","call-function","100","444460","0.0-100.0","djqos8yn","","","","","","","",""
"null","","","html-keyboard-response","101","445966","0.0-101.0","djqos8yn","","<span style=""color:Black; font-size:50px;"">Video 1</span>","null","","","","",""
"null","","","video-keyboard-response","102","449034","0.0-102.0","djqos8yn","","","null","","<span style=""color:Black; font-size:50px;"">Casey","Casey","STIM_SET_16/1592727.bmp_pp84_L3_V1_veridical_freeview_isoFalse_fps144.mp4",""
"null","","","html-keyboard-response","103","450540","0.0-103.0","djqos8yn","","<span style=""color:Black; font-size:50px;"">Video 2</span>","null","","","","",""
"null","","","video-keyboard-response","104","453639","0.0-104.0","djqos8yn","","","null","","<span style=""color:Black; font-size:50px;"">Sandy","Sandy","STIM_SET_16/1592727.bmp_pp97_L3_V1_veridical_freeview_isoFalse_fps144.mp4",""
"","","","call-function","105","453639","0.0-105.0","djqos8yn","","","","","","","",""
"1009.6999999999534","","","categorize-html","106","456654","0.0-106.0","djqos8yn","","Which video showed <span style=""font-size:30px"">Sandy's</span> attention?","50","","","","","true"
"null","","","html-keyboard-response","107","457156","0.0-107.0","djqos8yn",""," ","null","","","","",""
"","","","call-function","108","457156","0.0-108.0","djqos8yn","","","","","","","",""
"null","","","html-keyboard-response","109","458660","0.0-109.0","djqos8yn","","<span style=""color:Black; font-size:50px;"">Video 1</span>","null","","","","",""
"null","","","video-keyboard-response","110","461745","0.0-110.0","djqos8yn","","","null","","<span style=""color:Black; font-size:50px;"">Casey","Casey","STIM_SET_16/713790.bmp_pp84_L3_V1_veridical_freeview_isoFalse_fps144.mp4",""
"null","","","html-keyboard-response","111","463249","0.0-111.0","djqos8yn","","<span style=""color:Black; font-size:50px;"">Video 2</span>","null","","","","",""
"null","","","video-keyboard-response","112","466337","0.0-112.0","djqos8yn","","","null","","<span style=""color:Black; font-size:50px;"">Sandy","Sandy","STIM_SET_16/713790.bmp_pp97_L3_V1_veridical_freeview_isoFalse_fps144.mp4",""
"","","","call-function","113","466338","0.0-113.0","djqos8yn","","","","","","","",""
"839.2700000000186","","","categorize-html","114","469180","0.0-114.0","djqos8yn","","Which video showed <span style=""font-size:30px"">Sandy's</span> attention?","49","","","","","false"
"null","","","html-keyboard-response","115","469684","0.0-115.0","djqos8yn",""," ","null","","","","",""
"","","","call-function","116","469684","0.0-116.0","djqos8yn","","","","","","","",""
"null","","","html-keyboard-response","117","471188","0.0-117.0","djqos8yn","","<span style=""color:Black; font-size:50px;"">Video 1</span>","null","","","","",""
"null","","","video-keyboard-response","118","474254","0.0-118.0","djqos8yn","","","null","","<span style=""color:Black; font-size:50px;"">Sandy","Sandy","STIM_SET_16/498170.bmp_pp97_L3_V1_veridical_freeview_isoFalse_fps144.mp4",""
"null","","","html-keyboard-response","119","475757","0.0-119.0","djqos8yn","","<span style=""color:Black; font-size:50px;"">Video 2</span>","null","","","","",""
"null","","","video-keyboard-response","120","478861","0.0-120.0","djqos8yn","","","null","","<span style=""color:Black; font-size:50px;"">Casey","Casey","STIM_SET_16/498170.bmp_pp84_L3_V1_veridical_freeview_isoFalse_fps144.mp4",""
"","","","call-function","121","478862","0.0-121.0","djqos8yn","","","","","","","",""
"715.2150000000256","","","categorize-html","122","481583","0.0-122.0","djqos8yn","","Which video showed <span style=""font-size:30px"">Sandy's</span> attention?","49","","","","","true"
"null","","","html-keyboard-response","123","482085","0.0-123.0","djqos8yn",""," ","null","","","","",""
"","","","call-function","124","482085","0.0-124.0","djqos8yn","","","","","","","",""
"null","","","html-keyboard-response","125","483589","0.0-125.0","djqos8yn","","<span style=""color:Black; font-size:50px;"">Video 1</span>","null","","","","",""
"null","","","video-keyboard-response","126","486689","0.0-126.0","djqos8yn","","","null","","<span style=""color:Black; font-size:50px;"">Casey","Casey","STIM_SET_16/1592619.bmp_pp84_L3_V1_veridical_freeview_isoFalse_fps144.mp4",""
"null","","","html-keyboard-response","127","488193","0.0-127.0","djqos8yn","","<span style=""color:Black; font-size:50px;"">Video 2</span>","null","","","","",""
"null","","","video-keyboard-response","128","491278","0.0-128.0","djqos8yn","","","null","","<span style=""color:Black; font-size:50px;"">Sandy","Sandy","STIM_SET_16/1592619.bmp_pp97_L3_V1_veridical_freeview_isoFalse_fps144.mp4",""
"","","","call-function","129","491278","0.0-129.0","djqos8yn","","","","","","","",""
"795.0899999999674","","","categorize-html","130","494079","0.0-130.0","djqos8yn","","Which video showed <span style=""font-size:30px"">Sandy's</span> attention?","50","","","","","true"
"null","","","html-keyboard-response","131","494585","0.0-131.0","djqos8yn",""," ","null","","","","",""
"","","","call-function","132","494585","0.0-132.0","djqos8yn","","","","","","","",""
"null","","","html-keyboard-response","133","496087","0.0-133.0","djqos8yn","","<span style=""color:Black; font-size:50px;"">Video 1</span>","null","","","","",""
"null","","","video-keyboard-response","134","499151","0.0-134.0","djqos8yn","","","null","","<span style=""color:Black; font-size:50px;"">Sandy","Sandy","STIM_SET_16/285670.bmp_pp97_L3_V1_veridical_freeview_isoFalse_fps144.mp4",""
"null","","","html-keyboard-response","135","500656","0.0-135.0","djqos8yn","","<span style=""color:Black; font-size:50px;"">Video 2</span>","null","","","","",""
"null","","","video-keyboard-response","136","503728","0.0-136.0","djqos8yn","","","null","","<span style=""color:Black; font-size:50px;"">Casey","Casey","STIM_SET_16/285670.bmp_pp84_L3_V1_veridical_freeview_isoFalse_fps144.mp4",""
"","","","call-function","137","503728","0.0-137.0","djqos8yn","","","","","","","",""
"5313.875","","","categorize-html","138","511045","0.0-138.0","djqos8yn","","Which video showed <span style=""font-size:30px"">Sandy's</span> attention?","49","","","","","true"
"null","","","html-keyboard-response","139","511547","0.0-139.0","djqos8yn",""," ","null","","","","",""
"","","","call-function","140","511547","0.0-140.0","djqos8yn","","","","","","","",""
"null","","","html-keyboard-response","141","513049","0.0-141.0","djqos8yn","","<span style=""color:Black; font-size:50px;"">Video 1</span>","null","","","","",""
"null","","","video-keyboard-response","142","516117","0.0-142.0","djqos8yn","","","null","","<span style=""color:Black; font-size:50px;"">Sandy","Sandy","STIM_SET_16/498405.bmp_pp97_L3_V1_veridical_freeview_isoFalse_fps144.mp4",""
"null","","","html-keyboard-response","143","517621","0.0-143.0","djqos8yn","","<span style=""color:Black; font-size:50px;"">Video 2</span>","null","","","","",""
"null","","","video-keyboard-response","144","520715","0.0-144.0","djqos8yn","","","null","","<span style=""color:Black; font-size:50px;"">Casey","Casey","STIM_SET_16/498405.bmp_pp84_L3_V1_veridical_freeview_isoFalse_fps144.mp4",""
"","","","call-function","145","520715","0.0-145.0","djqos8yn","","","","","","","",""
"1438.1599999999744","","","categorize-html","146","524157","0.0-146.0","djqos8yn","","Which video showed <span style=""font-size:30px"">Sandy's</span> attention?","50","","","","","false"
"null","","","html-keyboard-response","147","524661","0.0-147.0","djqos8yn",""," ","null","","","","",""
"","","","call-function","148","524661","0.0-148.0","djqos8yn","","","","","","","",""
"null","","","html-keyboard-response","149","526164","0.0-149.0","djqos8yn","","<span style=""color:Black; font-size:50px;"">Video 1</span>","null","","","","",""
"null","","","video-keyboard-response","150","529262","0.0-150.0","djqos8yn","","","null","","<span style=""color:Black; font-size:50px;"">Sandy","Sandy","STIM_SET_16/1593084.bmp_pp97_L3_V1_veridical_freeview_isoFalse_fps144.mp4",""
"null","","","html-keyboard-response","151","530768","0.0-151.0","djqos8yn","","<span style=""color:Black; font-size:50px;"">Video 2</span>","null","","","","",""
"null","","","video-keyboard-response","152","533861","0.0-152.0","djqos8yn","","","null","","<span style=""color:Black; font-size:50px;"">Casey","Casey","STIM_SET_16/1593084.bmp_pp84_L3_V1_veridical_freeview_isoFalse_fps144.mp4",""
"","","","call-function","153","533861","0.0-153.0","djqos8yn","","","","","","","",""
"1292.2050000000745","","","categorize-html","154","537158","0.0-154.0","djqos8yn","","Which video showed <span style=""font-size:30px"">Sandy's</span> attention?","50","","","","","false"
"null","","","html-keyboard-response","155","537660","0.0-155.0","djqos8yn",""," ","null","","","","",""
"","","","call-function","156","537661","0.0-156.0","djqos8yn","","","","","","","",""
"null","","","html-keyboard-response","157","539163","0.0-157.0","djqos8yn","","<span style=""color:Black; font-size:50px;"">Video 1</span>","null","","","","",""
"null","","","video-keyboard-response","158","542239","0.0-158.0","djqos8yn","","","null","","<span style=""color:Black; font-size:50px;"">Sandy","Sandy","STIM_SET_16/1159515.bmp_pp97_L3_V1_veridical_freeview_isoFalse_fps144.mp4",""
"null","","","html-keyboard-response","159","543745","0.0-159.0","djqos8yn","","<span style=""color:Black; font-size:50px;"">Video 2</span>","null","","","","",""
"null","","","video-keyboard-response","160","546841","0.0-160.0","djqos8yn","","","null","","<span style=""color:Black; font-size:50px;"">Casey","Casey","STIM_SET_16/1159515.bmp_pp84_L3_V1_veridical_freeview_isoFalse_fps144.mp4",""
"","","","call-function","161","546842","0.0-161.0","djqos8yn","","","","","","","",""
"1311.420000000042","","","categorize-html","162","550156","0.0-162.0","djqos8yn","","Which video showed <span style=""font-size:30px"">Sandy's</span> attention?","49","","","","","true"
"null","","","html-keyboard-response","163","550662","0.0-163.0","djqos8yn",""," ","null","","","","",""
"","","","call-function","164","550663","0.0-164.0","djqos8yn","","","","","","","",""
"null","","","html-keyboard-response","165","552167","0.0-165.0","djqos8yn","","<span style=""color:Black; font-size:50px;"">Video 1</span>","null","","","","",""
"null","","","video-keyboard-response","166","555268","0.0-166.0","djqos8yn","","","null","","<span style=""color:Black; font-size:50px;"">Casey","Casey","STIM_SET_16/1592150.bmp_pp84_L3_V1_veridical_freeview_isoFalse_fps144.mp4",""
"null","","","html-keyboard-response","167","556769","0.0-167.0","djqos8yn","","<span style=""color:Black; font-size:50px;"">Video 2</span>","null","","","","",""
"null","","","video-keyboard-response","168","559869","0.0-168.0","djqos8yn","","","null","","<span style=""color:Black; font-size:50px;"">Sandy","Sandy","STIM_SET_16/1592150.bmp_pp97_L3_V1_veridical_freeview_isoFalse_fps144.mp4",""
"","","","call-function","169","559869","0.0-169.0","djqos8yn","","","","","","","",""
"803.984999999986","","","categorize-html","170","562676","0.0-170.0","djqos8yn","","Which video showed <span style=""font-size:30px"">Sandy's</span> attention?","50","","","","","true"
"null","","","html-keyboard-response","171","563180","0.0-171.0","djqos8yn",""," ","null","","","","",""
"41580.70499999996","","","instructions","172","604761","0.0-172.0","djqos8yn","[{""page_index"":0,""viewing_time"":2751.5100000000093},{""page_index"":1,""viewing_time"":36804.07999999996},{""page_index"":2,""viewing_time"":2024.9949999999953}]","","","","","","",""
"3172.4100000000326","","","instructions","173","607934","0.0-173.0","djqos8yn","[{""page_index"":0,""viewing_time"":1035.3800000000047},{""page_index"":1,""viewing_time"":1339.0600000000559},{""page_index"":2,""viewing_time"":797.859999999986}]","","","","","","",""
"","","","call-function","174","607934","0.0-174.0","djqos8yn","","","","","","","",""
"null","","","html-keyboard-response","175","609438","0.0-175.0","djqos8yn","","<span style=""color:Black; font-size:50px;"">Video 1</span>","null","","","","",""
"null","","","video-keyboard-response","176","612506","0.0-176.0","djqos8yn","","","null","","<span style=""color:Black; font-size:50px;"">Casey","Casey","STIM_SET_16/1159829.bmp_pp84_L3_V1_veridical_freeview_isoFalse_fps144.mp4",""
"null","","","html-keyboard-response","177","614012","0.0-177.0","djqos8yn","","<span style=""color:Black; font-size:50px;"">Video 2</span>","null","","","","",""
"null","","","video-keyboard-response","178","617082","0.0-178.0","djqos8yn","","","null","","<span style=""color:Black; font-size:50px;"">Sandy","Sandy","STIM_SET_16/1159829.bmp_pp97_L3_V1_veridical_freeview_isoFalse_fps144.mp4",""
"","","","call-function","179","617082","0.0-179.0","djqos8yn","","","","","","","",""
"982.9549999999581","","","categorize-html","180","620067","0.0-180.0","djqos8yn","","Which video showed <span style=""font-size:30px"">Sandy's</span> attention?","50","","","","","true"
"null","","","html-keyboard-response","181","620573","0.0-181.0","djqos8yn",""," ","null","","","","",""
"","","","call-function","182","620573","0.0-182.0","djqos8yn","","","","","","","",""
"null","","","html-keyboard-response","183","622076","0.0-183.0","djqos8yn","","<span style=""color:Black; font-size:50px;"">Video 1</span>","null","","","","",""
"null","","","video-keyboard-response","184","625151","0.0-184.0","djqos8yn","","","null","","<span style=""color:Black; font-size:50px;"">Casey","Casey","STIM_SET_16/1159870.bmp_pp84_L3_V1_veridical_freeview_isoFalse_fps144.mp4",""
"null","","","html-keyboard-response","185","626657","0.0-185.0","djqos8yn","","<span style=""color:Black; font-size:50px;"">Video 2</span>","null","","","","",""
"null","","","video-keyboard-response","186","629733","0.0-186.0","djqos8yn","","","null","","<span style=""color:Black; font-size:50px;"">Sandy","Sandy","STIM_SET_16/1159870.bmp_pp97_L3_V1_veridical_freeview_isoFalse_fps144.mp4",""
"","","","call-function","187","629734","0.0-187.0","djqos8yn","","","","","","","",""
"635.4199999999255","","","categorize-html","188","632372","0.0-188.0","djqos8yn","","Which video showed <span style=""font-size:30px"">Sandy's</span> attention?","50","","","","","true"
"null","","","html-keyboard-response","189","632874","0.0-189.0","djqos8yn",""," ","null","","","","",""
"","","","call-function","190","632874","0.0-190.0","djqos8yn","","","","","","","",""
"null","","","html-keyboard-response","191","634380","0.0-191.0","djqos8yn","","<span style=""color:Black; font-size:50px;"">Video 1</span>","null","","","","",""
"null","","","video-keyboard-response","192","637480","0.0-192.0","djqos8yn","","","null","","<span style=""color:Black; font-size:50px;"">Sandy","Sandy","STIM_SET_16/498261.bmp_pp97_L3_V1_veridical_freeview_isoFalse_fps144.mp4",""
"null","","","html-keyboard-response","193","638984","0.0-193.0","djqos8yn","","<span style=""color:Black; font-size:50px;"">Video 2</span>","null","","","","",""
"null","","","video-keyboard-response","194","642081","0.0-194.0","djqos8yn","","","null","","<span style=""color:Black; font-size:50px;"">Casey","Casey","STIM_SET_16/498261.bmp_pp84_L3_V1_veridical_freeview_isoFalse_fps144.mp4",""
"","","","call-function","195","642082","0.0-195.0","djqos8yn","","","","","","","",""
"1247.7150000000838","","","categorize-html","196","645337","0.0-196.0","djqos8yn","","Which video showed <span style=""font-size:30px"">Sandy's</span> attention?","49","","","","","true"
"null","","","html-keyboard-response","197","645838","0.0-197.0","djqos8yn",""," ","null","","","","",""
"","","","call-function","198","645839","0.0-198.0","djqos8yn","","","","","","","",""
"null","","","html-keyboard-response","199","647341","0.0-199.0","djqos8yn","","<span style=""color:Black; font-size:50px;"">Video 1</span>","null","","","","",""
"null","","","video-keyboard-response","200","650436","0.0-200.0","djqos8yn","","","null","","<span style=""color:Black; font-size:50px;"">Casey","Casey","STIM_SET_16/1160158.bmp_pp84_L3_V1_veridical_freeview_isoFalse_fps144.mp4",""
"null","","","html-keyboard-response","201","651942","0.0-201.0","djqos8yn","","<span style=""color:Black; font-size:50px;"">Video 2</span>","null","","","","",""
"null","","","video-keyboard-response","202","655040","0.0-202.0","djqos8yn","","","null","","<span style=""color:Black; font-size:50px;"">Sandy","Sandy","STIM_SET_16/1160158.bmp_pp97_L3_V1_veridical_freeview_isoFalse_fps144.mp4",""
"","","","call-function","203","655041","0.0-203.0","djqos8yn","","","","","","","",""
"856.4750000000931","","","categorize-html","204","657901","0.0-204.0","djqos8yn","","Which video showed <span style=""font-size:30px"">Sandy's</span> attention?","50","","","","","true"
"null","","","html-keyboard-response","205","658407","0.0-205.0","djqos8yn",""," ","null","","","","",""
"","","","call-function","206","658408","0.0-206.0","djqos8yn","","","","","","","",""
"null","","","html-keyboard-response","207","659910","0.0-207.0","djqos8yn","","<span style=""color:Black; font-size:50px;"">Video 1</span>","null","","","","",""
"null","","","video-keyboard-response","208","662995","0.0-208.0","djqos8yn","","","null","","<span style=""color:Black; font-size:50px;"">Casey","Casey","STIM_SET_16/1159784.bmp_pp84_L3_V1_veridical_freeview_isoFalse_fps144.mp4",""
"null","","","html-keyboard-response","209","664497","0.0-209.0","djqos8yn","","<span style=""color:Black; font-size:50px;"">Video 2</span>","null","","","","",""
"null","","","video-keyboard-response","210","667588","0.0-210.0","djqos8yn","","","null","","<span style=""color:Black; font-size:50px;"">Sandy","Sandy","STIM_SET_16/1159784.bmp_pp97_L3_V1_veridical_freeview_isoFalse_fps144.mp4",""
"","","","call-function","211","667589","0.0-211.0","djqos8yn","","","","","","","",""
"956.3449999999721","","","categorize-html","212","670552","0.0-212.0","djqos8yn","","Which video showed <span style=""font-size:30px"">Sandy's</span> attention?","50","","","","","true"
"null","","","html-keyboard-response","213","671058","0.0-213.0","djqos8yn",""," ","null","","","","",""
"","","","call-function","214","671059","0.0-214.0","djqos8yn","","","","","","","",""
"null","","","html-keyboard-response","215","672563","0.0-215.0","djqos8yn","","<span style=""color:Black; font-size:50px;"">Video 1</span>","null","","","","",""
"null","","","video-keyboard-response","216","675630","0.0-216.0","djqos8yn","","","null","","<span style=""color:Black; font-size:50px;"">Casey","Casey","STIM_SET_16/713742.bmp_pp84_L3_V1_veridical_freeview_isoFalse_fps144.mp4",""
"null","","","html-keyboard-response","217","677132","0.0-217.0","djqos8yn","","<span style=""color:Black; font-size:50px;"">Video 2</span>","null","","","","",""
"null","","","video-keyboard-response","218","680209","0.0-218.0","djqos8yn","","","null","","<span style=""color:Black; font-size:50px;"">Sandy","Sandy","STIM_SET_16/713742.bmp_pp97_L3_V1_veridical_freeview_isoFalse_fps144.mp4",""
"","","","call-function","219","680210","0.0-219.0","djqos8yn","","","","","","","",""
"1375.6500000000233","","","categorize-html","220","683592","0.0-220.0","djqos8yn","","Which video showed <span style=""font-size:30px"">Sandy's</span> attention?","49","","","","","false"
"null","","","html-keyboard-response","221","684093","0.0-221.0","djqos8yn",""," ","null","","","","",""
"","","","call-function","222","684094","0.0-222.0","djqos8yn","","","","","","","",""
"null","","","html-keyboard-response","223","685600","0.0-223.0","djqos8yn","","<span style=""color:Black; font-size:50px;"">Video 1</span>","null","","","","",""
"null","","","video-keyboard-response","224","688659","0.0-224.0","djqos8yn","","","null","","<span style=""color:Black; font-size:50px;"">Casey","Casey","STIM_SET_16/713640.bmp_pp84_L3_V1_veridical_freeview_isoFalse_fps144.mp4",""
"null","","","html-keyboard-response","225","690163","0.0-225.0","djqos8yn","","<span style=""color:Black; font-size:50px;"">Video 2</span>","null","","","","",""
"null","","","video-keyboard-response","226","693227","0.0-226.0","djqos8yn","","","null","","<span style=""color:Black; font-size:50px;"">Sandy","Sandy","STIM_SET_16/713640.bmp_pp97_L3_V1_veridical_freeview_isoFalse_fps144.mp4",""
"","","","call-function","227","693227","0.0-227.0","djqos8yn","","","","","","","",""
"1150.0550000000512","","","categorize-html","228","696384","0.0-228.0","djqos8yn","","Which video showed <span style=""font-size:30px"">Sandy's</span> attention?","50","","","","","true"
"null","","","html-keyboard-response","229","696887","0.0-229.0","djqos8yn",""," ","null","","","","",""
"","","","call-function","230","696888","0.0-230.0","djqos8yn","","","","","","","",""
"null","","","html-keyboard-response","231","698391","0.0-231.0","djqos8yn","","<span style=""color:Black; font-size:50px;"">Video 1</span>","null","","","","",""
"null","","","video-keyboard-response","232","701487","0.0-232.0","djqos8yn","","","null","","<span style=""color:Black; font-size:50px;"">Sandy","Sandy","STIM_SET_16/1592693.bmp_pp97_L3_V1_veridical_freeview_isoFalse_fps144.mp4",""
"null","","","html-keyboard-response","233","702988","0.0-233.0","djqos8yn","","<span style=""color:Black; font-size:50px;"">Video 2</span>","null","","","","",""
"null","","","video-keyboard-response","234","706085","0.0-234.0","djqos8yn","","","null","","<span style=""color:Black; font-size:50px;"">Casey","Casey","STIM_SET_16/1592693.bmp_pp84_L3_V1_veridical_freeview_isoFalse_fps144.mp4",""
"","","","call-function","235","706085","0.0-235.0","djqos8yn","","","","","","","",""
"1884.0650000000605","","","categorize-html","236","709972","0.0-236.0","djqos8yn","","Which video showed <span style=""font-size:30px"">Sandy's</span> attention?","49","","","","","true"
"null","","","html-keyboard-response","237","710474","0.0-237.0","djqos8yn",""," ","null","","","","",""
"","","","call-function","238","710474","0.0-238.0","djqos8yn","","","","","","","",""
"null","","","html-keyboard-response","239","711981","0.0-239.0","djqos8yn","","<span style=""color:Black; font-size:50px;"">Video 1</span>","null","","","","",""
"null","","","video-keyboard-response","240","715092","0.0-240.0","djqos8yn","","","null","","<span style=""color:Black; font-size:50px;"">Casey","Casey","STIM_SET_16/1159293.bmp_pp84_L3_V1_veridical_freeview_isoFalse_fps144.mp4",""
"null","","","html-keyboard-response","241","716594","0.0-241.0","djqos8yn","","<span style=""color:Black; font-size:50px;"">Video 2</span>","null","","","","",""
"null","","","video-keyboard-response","242","719700","0.0-242.0","djqos8yn","","","null","","<span style=""color:Black; font-size:50px;"">Sandy","Sandy","STIM_SET_16/1159293.bmp_pp97_L3_V1_veridical_freeview_isoFalse_fps144.mp4",""
"","","","call-function","243","719701","0.0-243.0","djqos8yn","","","","","","","",""
"740.2950000000419","","","categorize-html","244","722446","0.0-244.0","djqos8yn","","Which video showed <span style=""font-size:30px"">Sandy's</span> attention?","49","","","","","false"
"null","","","html-keyboard-response","245","722953","0.0-245.0","djqos8yn",""," ","null","","","","",""
"","","","call-function","246","722953","0.0-246.0","djqos8yn","","","","","","","",""
"null","","","html-keyboard-response","247","724457","0.0-247.0","djqos8yn","","<span style=""color:Black; font-size:50px;"">Video 1</span>","null","","","","",""
"null","","","video-keyboard-response","248","727558","0.0-248.0","djqos8yn","","","null","","<span style=""color:Black; font-size:50px;"">Sandy","Sandy","STIM_SET_16/1593112.bmp_pp97_L3_V1_veridical_freeview_isoFalse_fps144.mp4",""
"null","","","html-keyboard-response","249","729061","0.0-249.0","djqos8yn","","<span style=""color:Black; font-size:50px;"">Video 2</span>","null","","","","",""
"null","","","video-keyboard-response","250","732157","0.0-250.0","djqos8yn","","","null","","<span style=""color:Black; font-size:50px;"">Casey","Casey","STIM_SET_16/1593112.bmp_pp84_L3_V1_veridical_freeview_isoFalse_fps144.mp4",""
"","","","call-function","251","732157","0.0-251.0","djqos8yn","","","","","","","",""
"2988.814999999944","","","categorize-html","252","737150","0.0-252.0","djqos8yn","","Which video showed <span style=""font-size:30px"">Sandy's</span> attention?","50","","","","","false"
"null","","","html-keyboard-response","253","737653","0.0-253.0","djqos8yn",""," ","null","","","","",""
"8381.660000000033","","","instructions","254","746035","0.0-254.0","djqos8yn","[{""page_index"":0,""viewing_time"":6664.435000000056},{""page_index"":1,""viewing_time"":845.0249999999069},{""page_index"":2,""viewing_time"":872.0800000000745}]","","","","","","",""
"3250.4899999999907","","","instructions","255","749286","0.0-255.0","djqos8yn","[{""page_index"":0,""viewing_time"":968.5599999999395},{""page_index"":1,""viewing_time"":1713.8649999999907},{""page_index"":2,""viewing_time"":567.9550000000745}]","","","","","","",""
"","","","call-function","256","749286","0.0-256.0","djqos8yn","","","","","","","",""
"null","","","html-keyboard-response","257","750789","0.0-257.0","djqos8yn","","<span style=""color:Black; font-size:50px;"">Video 1</span>","null","","","","",""
"null","","","video-keyboard-response","258","753866","0.0-258.0","djqos8yn","","","null","","<span style=""color:Black; font-size:50px;"">Sandy","Sandy","STIM_SET_16/713684.bmp_pp97_L3_V1_veridical_freeview_isoFalse_fps144.mp4",""
"null","","","html-keyboard-response","259","755370","0.0-259.0","djqos8yn","","<span style=""color:Black; font-size:50px;"">Video 2</span>","null","","","","",""
"null","","","video-keyboard-response","260","758442","0.0-260.0","djqos8yn","","","null","","<span style=""color:Black; font-size:50px;"">Casey","Casey","STIM_SET_16/713684.bmp_pp84_L3_V1_veridical_freeview_isoFalse_fps144.mp4",""
"","","","call-function","261","758442","0.0-261.0","djqos8yn","","","","","","","",""
"1398.704999999958","","","categorize-html","262","761843","0.0-262.0","djqos8yn","","Which video showed <span style=""font-size:30px"">Sandy's</span> attention?","49","","","","","true"
"null","","","html-keyboard-response","263","762349","0.0-263.0","djqos8yn",""," ","null","","","","",""
"","","","call-function","264","762350","0.0-264.0","djqos8yn","","","","","","","",""
"null","","","html-keyboard-response","265","763852","0.0-265.0","djqos8yn","","<span style=""color:Black; font-size:50px;"">Video 1</span>","null","","","","",""
"null","","","video-keyboard-response","266","766931","0.0-266.0","djqos8yn","","","null","","<span style=""color:Black; font-size:50px;"">Casey","Casey","STIM_SET_16/1159621.bmp_pp84_L3_V1_veridical_freeview_isoFalse_fps144.mp4",""
"null","","","html-keyboard-response","267","768434","0.0-267.0","djqos8yn","","<span style=""color:Black; font-size:50px;"">Video 2</span>","null","","","","",""
"null","","","video-keyboard-response","268","771513","0.0-268.0","djqos8yn","","","null","","<span style=""color:Black; font-size:50px;"">Sandy","Sandy","STIM_SET_16/1159621.bmp_pp97_L3_V1_veridical_freeview_isoFalse_fps144.mp4",""
"","","","call-function","269","771513","0.0-269.0","djqos8yn","","","","","","","",""
"1048.1800000000512","","","categorize-html","270","774568","0.0-270.0","djqos8yn","","Which video showed <span style=""font-size:30px"">Sandy's</span> attention?","50","","","","","true"
"null","","","html-keyboard-response","271","775074","0.0-271.0","djqos8yn",""," ","null","","","","",""
"","","","call-function","272","775074","0.0-272.0","djqos8yn","","","","","","","",""
"null","","","html-keyboard-response","273","776580","0.0-273.0","djqos8yn","","<span style=""color:Black; font-size:50px;"">Video 1</span>","null","","","","",""
"null","","","video-keyboard-response","274","779678","0.0-274.0","djqos8yn","","","null","","<span style=""color:Black; font-size:50px;"">Sandy","Sandy","STIM_SET_16/713689.bmp_pp97_L3_V1_veridical_freeview_isoFalse_fps144.mp4",""
"null","","","html-keyboard-response","275","781184","0.0-275.0","djqos8yn","","<span style=""color:Black; font-size:50px;"">Video 2</span>","null","","","","",""
"null","","","video-keyboard-response","276","784278","0.0-276.0","djqos8yn","","","null","","<span style=""color:Black; font-size:50px;"">Casey","Casey","STIM_SET_16/713689.bmp_pp84_L3_V1_veridical_freeview_isoFalse_fps144.mp4",""
"","","","call-function","277","784279","0.0-277.0","djqos8yn","","","","","","","",""
"786.8850000000093","","","categorize-html","278","787073","0.0-278.0","djqos8yn","","Which video showed <span style=""font-size:30px"">Sandy's</span> attention?","49","","","","","true"
"null","","","html-keyboard-response","279","787576","0.0-279.0","djqos8yn",""," ","null","","","","",""
"","","","call-function","280","787576","0.0-280.0","djqos8yn","","","","","","","",""
"null","","","html-keyboard-response","281","789078","0.0-281.0","djqos8yn","","<span style=""color:Black; font-size:50px;"">Video 1</span>","null","","","","",""
"null","","","video-keyboard-response","282","792181","0.0-282.0","djqos8yn","","","null","","<span style=""color:Black; font-size:50px;"">Sandy","Sandy","STIM_SET_16/498092.bmp_pp97_L3_V1_veridical_freeview_isoFalse_fps144.mp4",""
"null","","","html-keyboard-response","283","793683","0.0-283.0","djqos8yn","","<span style=""color:Black; font-size:50px;"">Video 2</span>","null","","","","",""
"null","","","video-keyboard-response","284","796789","0.0-284.0","djqos8yn","","","null","","<span style=""color:Black; font-size:50px;"">Casey","Casey","STIM_SET_16/498092.bmp_pp84_L3_V1_veridical_freeview_isoFalse_fps144.mp4",""
"","","","call-function","285","796789","0.0-285.0","djqos8yn","","","","","","","",""
"868.3449999999721","","","categorize-html","286","799661","0.0-286.0","djqos8yn","","Which video showed <span style=""font-size:30px"">Sandy's</span> attention?","49","","","","","true"
"null","","","html-keyboard-response","287","800163","0.0-287.0","djqos8yn",""," ","null","","","","",""
"","","","call-function","288","800163","0.0-288.0","djqos8yn","","","","","","","",""
"null","","","html-keyboard-response","289","801668","0.0-289.0","djqos8yn","","<span style=""color:Black; font-size:50px;"">Video 1</span>","null","","","","",""
"null","","","video-keyboard-response","290","804764","0.0-290.0","djqos8yn","","","null","","<span style=""color:Black; font-size:50px;"">Casey","Casey","STIM_SET_16/713211.bmp_pp84_L3_V1_veridical_freeview_isoFalse_fps144.mp4",""
"null","","","html-keyboard-response","291","806268","0.0-291.0","djqos8yn","","<span style=""color:Black; font-size:50px;"">Video 2</span>","null","","","","",""
"null","","","video-keyboard-response","292","809371","0.0-292.0","djqos8yn","","","null","","<span style=""color:Black; font-size:50px;"">Sandy","Sandy","STIM_SET_16/713211.bmp_pp97_L3_V1_veridical_freeview_isoFalse_fps144.mp4",""
"","","","call-function","293","809372","0.0-293.0","djqos8yn","","","","","","","",""
"1069.7300000000978","","","categorize-html","294","812447","0.0-294.0","djqos8yn","","Which video showed <span style=""font-size:30px"">Sandy's</span> attention?","50","","","","","true"
"null","","","html-keyboard-response","295","812952","0.0-295.0","djqos8yn",""," ","null","","","","",""
"","","","call-function","296","812952","0.0-296.0","djqos8yn","","","","","","","",""
"null","","","html-keyboard-response","297","814458","0.0-297.0","djqos8yn","","<span style=""color:Black; font-size:50px;"">Video 1</span>","null","","","","",""
"null","","","video-keyboard-response","298","817534","0.0-298.0","djqos8yn","","","null","","<span style=""color:Black; font-size:50px;"">Sandy","Sandy","STIM_SET_16/150296.bmp_pp97_L3_V1_veridical_freeview_isoFalse_fps144.mp4",""
"null","","","html-keyboard-response","299","819038","0.0-299.0","djqos8yn","","<span style=""color:Black; font-size:50px;"">Video 2</span>","null","","","","",""
"null","","","video-keyboard-response","300","822105","0.0-300.0","djqos8yn","","","null","","<span style=""color:Black; font-size:50px;"">Casey","Casey","STIM_SET_16/150296.bmp_pp84_L3_V1_veridical_freeview_isoFalse_fps144.mp4",""
"","","","call-function","301","822106","0.0-301.0","djqos8yn","","","","","","","",""
"2615.960000000079","","","categorize-html","302","826728","0.0-302.0","djqos8yn","","Which video showed <span style=""font-size:30px"">Sandy's</span> attention?","49","","","","","true"
"null","","","html-keyboard-response","303","827232","0.0-303.0","djqos8yn",""," ","null","","","","",""
"","","","call-function","304","827232","0.0-304.0","djqos8yn","","","","","","","",""
"null","","","html-keyboard-response","305","828735","0.0-305.0","djqos8yn","","<span style=""color:Black; font-size:50px;"">Video 1</span>","null","","","","",""
"null","","","video-keyboard-response","306","831802","0.0-306.0","djqos8yn","","","null","","<span style=""color:Black; font-size:50px;"">Sandy","Sandy","STIM_SET_16/1592921.bmp_pp97_L3_V1_veridical_freeview_isoFalse_fps144.mp4",""
"null","","","html-keyboard-response","307","833304","0.0-307.0","djqos8yn","","<span style=""color:Black; font-size:50px;"">Video 2</span>","null","","","","",""
"null","","","video-keyboard-response","308","836379","0.0-308.0","djqos8yn","","","null","","<span style=""color:Black; font-size:50px;"">Casey","Casey","STIM_SET_16/1592921.bmp_pp84_L3_V1_veridical_freeview_isoFalse_fps144.mp4",""
"","","","call-function","309","836379","0.0-309.0","djqos8yn","","","","","","","",""
"878.3349999999627","","","categorize-html","310","839264","0.0-310.0","djqos8yn","","Which video showed <span style=""font-size:30px"">Sandy's</span> attention?","49","","","","","true"
"null","","","html-keyboard-response","311","839765","0.0-311.0","djqos8yn",""," ","null","","","","",""
"","","","call-function","312","839765","0.0-312.0","djqos8yn","","","","","","","",""
"null","","","html-keyboard-response","313","841268","0.0-313.0","djqos8yn","","<span style=""color:Black; font-size:50px;"">Video 1</span>","null","","","","",""
"null","","","video-keyboard-response","314","844364","0.0-314.0","djqos8yn","","","null","","<span style=""color:Black; font-size:50px;"">Casey","Casey","STIM_SET_16/1593058.bmp_pp84_L3_V1_veridical_freeview_isoFalse_fps144.mp4",""
"null","","","html-keyboard-response","315","845868","0.0-315.0","djqos8yn","","<span style=""color:Black; font-size:50px;"">Video 2</span>","null","","","","",""
"null","","","video-keyboard-response","316","848967","0.0-316.0","djqos8yn","","","null","","<span style=""color:Black; font-size:50px;"">Sandy","Sandy","STIM_SET_16/1593058.bmp_pp97_L3_V1_veridical_freeview_isoFalse_fps144.mp4",""
"","","","call-function","317","848967","0.0-317.0","djqos8yn","","","","","","","",""
"1002.3500000000931","","","categorize-html","318","851974","0.0-318.0","djqos8yn","","Which video showed <span style=""font-size:30px"">Sandy's</span> attention?","49","","","","","false"
"null","","","html-keyboard-response","319","852479","0.0-319.0","djqos8yn",""," ","null","","","","",""
"","","","call-function","320","852479","0.0-320.0","djqos8yn","","","","","","","",""
"null","","","html-keyboard-response","321","853984","0.0-321.0","djqos8yn","","<span style=""color:Black; font-size:50px;"">Video 1</span>","null","","","","",""
"null","","","video-keyboard-response","322","857091","0.0-322.0","djqos8yn","","","null","","<span style=""color:Black; font-size:50px;"">Casey","Casey","STIM_SET_16/1593063.bmp_pp84_L3_V1_veridical_freeview_isoFalse_fps144.mp4",""
"null","","","html-keyboard-response","323","858593","0.0-323.0","djqos8yn","","<span style=""color:Black; font-size:50px;"">Video 2</span>","null","","","","",""
"null","","","video-keyboard-response","324","861688","0.0-324.0","djqos8yn","","","null","","<span style=""color:Black; font-size:50px;"">Sandy","Sandy","STIM_SET_16/1593063.bmp_pp97_L3_V1_veridical_freeview_isoFalse_fps144.mp4",""
"","","","call-function","325","861688","0.0-325.0","djqos8yn","","","","","","","",""
"1185.6850000000559","","","categorize-html","326","864881","0.0-326.0","djqos8yn","","Which video showed <span style=""font-size:30px"">Sandy's</span> attention?","50","","","","","true"
"null","","","html-keyboard-response","327","865383","0.0-327.0","djqos8yn",""," ","null","","","","",""
"","","","call-function","328","865383","0.0-328.0","djqos8yn","","","","","","","",""
"null","","","html-keyboard-response","329","866888","0.0-329.0","djqos8yn","","<span style=""color:Black; font-size:50px;"">Video 1</span>","null","","","","",""
"null","","","video-keyboard-response","330","869993","0.0-330.0","djqos8yn","","","null","","<span style=""color:Black; font-size:50px;"">Sandy","Sandy","STIM_SET_16/713653.bmp_pp97_L3_V1_veridical_freeview_isoFalse_fps144.mp4",""
"null","","","html-keyboard-response","331","871495","0.0-331.0","djqos8yn","","<span style=""color:Black; font-size:50px;"">Video 2</span>","null","","","","",""
"null","","","video-keyboard-response","332","874612","0.0-332.0","djqos8yn","","","null","","<span style=""color:Black; font-size:50px;"">Casey","Casey","STIM_SET_16/713653.bmp_pp84_L3_V1_veridical_freeview_isoFalse_fps144.mp4",""
"","","","call-function","333","874613","0.0-333.0","djqos8yn","","","","","","","",""
"636.8000000000466","","","categorize-html","334","877257","0.0-334.0","djqos8yn","","Which video showed <span style=""font-size:30px"">Sandy's</span> attention?","50","","","","","false"
"null","","","html-keyboard-response","335","877763","0.0-335.0","djqos8yn",""," ","null","","","","",""
"33546.95499999996","","","instructions","336","911310","0.0-336.0","djqos8yn","[{""page_index"":0,""viewing_time"":2458.930000000051},{""page_index"":1,""viewing_time"":29044.85499999998},{""page_index"":2,""viewing_time"":2043.0549999999348}]","","","","","","",""
"2308.5","","","instructions","337","913619","0.0-337.0","djqos8yn","[{""page_index"":0,""viewing_time"":748.3649999999907},{""page_index"":1,""viewing_time"":812.0550000000512},{""page_index"":2,""viewing_time"":747.9649999999674}]","","","","","","",""
"","","","call-function","338","913620","0.0-338.0","djqos8yn","","","","","","","",""
"null","","","html-keyboard-response","339","915121","0.0-339.0","djqos8yn","","<span style=""color:Black; font-size:50px;"">Video 1</span>","null","","","","",""
"null","","","video-keyboard-response","340","918190","0.0-340.0","djqos8yn","","","null","","<span style=""color:Black; font-size:50px;"">Casey","Casey","STIM_SET_16/61537.bmp_pp84_L3_V1_veridical_freeview_isoFalse_fps144.mp4",""
"null","","","html-keyboard-response","341","919692","0.0-341.0","djqos8yn","","<span style=""color:Black; font-size:50px;"">Video 2</span>","null","","","","",""
"null","","","video-keyboard-response","342","922753","0.0-342.0","djqos8yn","","","null","","<span style=""color:Black; font-size:50px;"">Sandy","Sandy","STIM_SET_16/61537.bmp_pp97_L3_V1_veridical_freeview_isoFalse_fps144.mp4",""
"","","","call-function","343","922754","0.0-343.0","djqos8yn","","","","","","","",""
"911.7600000000093","","","categorize-html","344","925671","0.0-344.0","djqos8yn","","Which video showed <span style=""font-size:30px"">Sandy's</span> attention?","49","","","","","false"
"null","","","html-keyboard-response","345","926175","0.0-345.0","djqos8yn",""," ","null","","","","",""
"","","","call-function","346","926176","0.0-346.0","djqos8yn","","","","","","","",""
"null","","","html-keyboard-response","347","927678","0.0-347.0","djqos8yn","","<span style=""color:Black; font-size:50px;"">Video 1</span>","null","","","","",""
"null","","","video-keyboard-response","348","930740","0.0-348.0","djqos8yn","","","null","","<span style=""color:Black; font-size:50px;"">Casey","Casey","STIM_SET_16/498058.bmp_pp84_L3_V1_veridical_freeview_isoFalse_fps144.mp4",""
"null","","","html-keyboard-response","349","932243","0.0-349.0","djqos8yn","","<span style=""color:Black; font-size:50px;"">Video 2</span>","null","","","","",""
"null","","","video-keyboard-response","350","935304","0.0-350.0","djqos8yn","","","null","","<span style=""color:Black; font-size:50px;"">Sandy","Sandy","STIM_SET_16/498058.bmp_pp97_L3_V1_veridical_freeview_isoFalse_fps144.mp4",""
"","","","call-function","351","935305","0.0-351.0","djqos8yn","","","","","","","",""
"648.875","","","categorize-html","352","937961","0.0-352.0","djqos8yn","","Which video showed <span style=""font-size:30px"">Sandy's</span> attention?","50","","","","","true"
"null","","","html-keyboard-response","353","938467","0.0-353.0","djqos8yn",""," ","null","","","","",""
"","","","call-function","354","938467","0.0-354.0","djqos8yn","","","","","","","",""
"null","","","html-keyboard-response","355","939969","0.0-355.0","djqos8yn","","<span style=""color:Black; font-size:50px;"">Video 1</span>","null","","","","",""
"null","","","video-keyboard-response","356","943071","0.0-356.0","djqos8yn","","","null","","<span style=""color:Black; font-size:50px;"">Casey","Casey","STIM_SET_16/1592298.bmp_pp84_L3_V1_veridical_freeview_isoFalse_fps144.mp4",""
"null","","","html-keyboard-response","357","944573","0.0-357.0","djqos8yn","","<span style=""color:Black; font-size:50px;"">Video 2</span>","null","","","","",""
"null","","","video-keyboard-response","358","947677","0.0-358.0","djqos8yn","","","null","","<span style=""color:Black; font-size:50px;"">Sandy","Sandy","STIM_SET_16/1592298.bmp_pp97_L3_V1_veridical_freeview_isoFalse_fps144.mp4",""
"","","","call-function","359","947677","0.0-359.0","djqos8yn","","","","","","","",""
"1028.5","","","categorize-html","360","950712","0.0-360.0","djqos8yn","","Which video showed <span style=""font-size:30px"">Sandy's</span> attention?","49","","","","","false"
"null","","","html-keyboard-response","361","951215","0.0-361.0","djqos8yn",""," ","null","","","","",""
"","","","call-function","362","951215","0.0-362.0","djqos8yn","","","","","","","",""
"null","","","html-keyboard-response","363","952718","0.0-363.0","djqos8yn","","<span style=""color:Black; font-size:50px;"">Video 1</span>","null","","","","",""
"null","","","video-keyboard-response","364","955808","0.0-364.0","djqos8yn","","","null","","<span style=""color:Black; font-size:50px;"">Sandy","Sandy","STIM_SET_16/497926.bmp_pp97_L3_V1_veridical_freeview_isoFalse_fps144.mp4",""
"null","","","html-keyboard-response","365","957311","0.0-365.0","djqos8yn","","<span style=""color:Black; font-size:50px;"">Video 2</span>","null","","","","",""
"null","","","video-keyboard-response","366","960417","0.0-366.0","djqos8yn","","","null","","<span style=""color:Black; font-size:50px;"">Casey","Casey","STIM_SET_16/497926.bmp_pp84_L3_V1_veridical_freeview_isoFalse_fps144.mp4",""
"","","","call-function","367","960417","0.0-367.0","djqos8yn","","","","","","","",""
"1640.7350000001024","","","categorize-html","368","964060","0.0-368.0","djqos8yn","","Which video showed <span style=""font-size:30px"">Sandy's</span> attention?","49","","","","","true"
"null","","","html-keyboard-response","369","964564","0.0-369.0","djqos8yn",""," ","null","","","","",""
"","","","call-function","370","964565","0.0-370.0","djqos8yn","","","","","","","",""
"null","","","html-keyboard-response","371","966067","0.0-371.0","djqos8yn","","<span style=""color:Black; font-size:50px;"">Video 1</span>","null","","","","",""
"null","","","video-keyboard-response","372","969158","0.0-372.0","djqos8yn","","","null","","<span style=""color:Black; font-size:50px;"">Casey","Casey","STIM_SET_16/1159379.bmp_pp84_L3_V1_veridical_freeview_isoFalse_fps144.mp4",""
"null","","","html-keyboard-response","373","970662","0.0-373.0","djqos8yn","","<span style=""color:Black; font-size:50px;"">Video 2</span>","null","","","","",""
"null","","","video-keyboard-response","374","973752","0.0-374.0","djqos8yn","","","null","","<span style=""color:Black; font-size:50px;"">Sandy","Sandy","STIM_SET_16/1159379.bmp_pp97_L3_V1_veridical_freeview_isoFalse_fps144.mp4",""
"","","","call-function","375","973752","0.0-375.0","djqos8yn","","","","","","","",""
"1337.4899999999907","","","categorize-html","376","977092","0.0-376.0","djqos8yn","","Which video showed <span style=""font-size:30px"">Sandy's</span> attention?","50","","","","","true"
"null","","","html-keyboard-response","377","977595","0.0-377.0","djqos8yn",""," ","null","","","","",""
"","","","call-function","378","977595","0.0-378.0","djqos8yn","","","","","","","",""
"null","","","html-keyboard-response","379","979099","0.0-379.0","djqos8yn","","<span style=""color:Black; font-size:50px;"">Video 1</span>","null","","","","",""
"null","","","video-keyboard-response","380","982173","0.0-380.0","djqos8yn","","","null","","<span style=""color:Black; font-size:50px;"">Sandy","Sandy","STIM_SET_16/1592581.bmp_pp97_L3_V1_veridical_freeview_isoFalse_fps144.mp4",""
"null","","","html-keyboard-response","381","983675","0.0-381.0","djqos8yn","","<span style=""color:Black; font-size:50px;"">Video 2</span>","null","","","","",""
"null","","","video-keyboard-response","382","986751","0.0-382.0","djqos8yn","","","null","","<span style=""color:Black; font-size:50px;"">Casey","Casey","STIM_SET_16/1592581.bmp_pp84_L3_V1_veridical_freeview_isoFalse_fps144.mp4",""
"","","","call-function","383","986752","0.0-383.0","djqos8yn","","","","","","","",""
"1074.1849999999395","","","categorize-html","384","989828","0.0-384.0","djqos8yn","","Which video showed <span style=""font-size:30px"">Sandy's</span> attention?","49","","","","","true"
"null","","","html-keyboard-response","385","990331","0.0-385.0","djqos8yn",""," ","null","","","","",""
"","","","call-function","386","990331","0.0-386.0","djqos8yn","","","","","","","",""
"null","","","html-keyboard-response","387","991835","0.0-387.0","djqos8yn","","<span style=""color:Black; font-size:50px;"">Video 1</span>","null","","","","",""
"null","","","video-keyboard-response","388","994893","0.0-388.0","djqos8yn","","","null","","<span style=""color:Black; font-size:50px;"">Casey","Casey","STIM_SET_16/1591920.bmp_pp84_L3_V1_veridical_freeview_isoFalse_fps144.mp4",""
"null","","","html-keyboard-response","389","996397","0.0-389.0","djqos8yn","","<span style=""color:Black; font-size:50px;"">Video 2</span>","null","","","","",""
"null","","","video-keyboard-response","390","999462","0.0-390.0","djqos8yn","","","null","","<span style=""color:Black; font-size:50px;"">Sandy","Sandy","STIM_SET_16/1591920.bmp_pp97_L3_V1_veridical_freeview_isoFalse_fps144.mp4",""
"","","","call-function","391","999463","0.0-391.0","djqos8yn","","","","","","","",""
"1643.1849999999395","","","categorize-html","392","1003111","0.0-392.0","djqos8yn","","Which video showed <span style=""font-size:30px"">Sandy's</span> attention?","50","","","","","true"
"null","","","html-keyboard-response","393","1003618","0.0-393.0","djqos8yn",""," ","null","","","","",""
"","","","call-function","394","1003618","0.0-394.0","djqos8yn","","","","","","","",""
"null","","","html-keyboard-response","395","1005123","0.0-395.0","djqos8yn","","<span style=""color:Black; font-size:50px;"">Video 1</span>","null","","","","",""
"null","","","video-keyboard-response","396","1008215","0.0-396.0","djqos8yn","","","null","","<span style=""color:Black; font-size:50px;"">Sandy","Sandy","STIM_SET_16/1592027.bmp_pp97_L3_V1_veridical_freeview_isoFalse_fps144.mp4",""
"null","","","html-keyboard-response","397","1009720","0.0-397.0","djqos8yn","","<span style=""color:Black; font-size:50px;"">Video 2</span>","null","","","","",""
"null","","","video-keyboard-response","398","1012833","0.0-398.0","djqos8yn","","","null","","<span style=""color:Black; font-size:50px;"">Casey","Casey","STIM_SET_16/1592027.bmp_pp84_L3_V1_veridical_freeview_isoFalse_fps144.mp4",""
"","","","call-function","399","1012833","0.0-399.0","djqos8yn","","","","","","","",""
"536.3549999999814","","","categorize-html","400","1015373","0.0-400.0","djqos8yn","","Which video showed <span style=""font-size:30px"">Sandy's</span> attention?","49","","","","","true"
"null","","","html-keyboard-response","401","1015875","0.0-401.0","djqos8yn",""," ","null","","","","",""
"","","","call-function","402","1015875","0.0-402.0","djqos8yn","","","","","","","",""
"null","","","html-keyboard-response","403","1017381","0.0-403.0","djqos8yn","","<span style=""color:Black; font-size:50px;"">Video 1</span>","null","","","","",""
"null","","","video-keyboard-response","404","1020478","0.0-404.0","djqos8yn","","","null","","<span style=""color:Black; font-size:50px;"">Sandy","Sandy","STIM_SET_16/1592303.bmp_pp97_L3_V1_veridical_freeview_isoFalse_fps144.mp4",""
"null","","","html-keyboard-response","405","1021982","0.0-405.0","djqos8yn","","<span style=""color:Black; font-size:50px;"">Video 2</span>","null","","","","",""
"null","","","video-keyboard-response","406","1025078","0.0-406.0","djqos8yn","","","null","","<span style=""color:Black; font-size:50px;"">Casey","Casey","STIM_SET_16/1592303.bmp_pp84_L3_V1_veridical_freeview_isoFalse_fps144.mp4",""
"","","","call-function","407","1025079","0.0-407.0","djqos8yn","","","","","","","",""
"858.9599999999627","","","categorize-html","408","1027941","0.0-408.0","djqos8yn","","Which video showed <span style=""font-size:30px"">Sandy's</span> attention?","50","","","","","false"
"null","","","html-keyboard-response","409","1028444","0.0-409.0","djqos8yn",""," ","null","","","","",""
"","","","call-function","410","1028444","0.0-410.0","djqos8yn","","","","","","","",""
"null","","","html-keyboard-response","411","1029949","0.0-411.0","djqos8yn","","<span style=""color:Black; font-size:50px;"">Video 1</span>","null","","","","",""
"null","","","video-keyboard-response","412","1033048","0.0-412.0","djqos8yn","","","null","","<span style=""color:Black; font-size:50px;"">Sandy","Sandy","STIM_SET_16/285994.bmp_pp97_L3_V1_veridical_freeview_isoFalse_fps144.mp4",""
"null","","","html-keyboard-response","413","1034552","0.0-413.0","djqos8yn","","<span style=""color:Black; font-size:50px;"">Video 2</span>","null","","","","",""
"null","","","video-keyboard-response","414","1037656","0.0-414.0","djqos8yn","","","null","","<span style=""color:Black; font-size:50px;"">Casey","Casey","STIM_SET_16/285994.bmp_pp84_L3_V1_veridical_freeview_isoFalse_fps144.mp4",""
"","","","call-function","415","1037656","0.0-415.0","djqos8yn","","","","","","","",""
"1153.2799999999115","","","categorize-html","416","1040817","0.0-416.0","djqos8yn","","Which video showed <span style=""font-size:30px"">Sandy's</span> attention?","49","","","","","true"
"null","","","html-keyboard-response","417","1041320","0.0-417.0","djqos8yn",""," ","null","","","","",""
"7893.974999999977","","","instructions","418","1049214","0.0-418.0","djqos8yn","[{""page_index"":0,""viewing_time"":5611.930000000051},{""page_index"":1,""viewing_time"":1312},{""page_index"":2,""viewing_time"":969.8699999998789}]","","","","","","",""
"8285.659999999916","","","instructions","419","1057501","0.0-419.0","djqos8yn","[{""page_index"":0,""viewing_time"":4240.584999999963},{""page_index"":1,""viewing_time"":2754.25},{""page_index"":2,""viewing_time"":1290.7050000000745}]","","","","","","",""
"","","","call-function","420","1057501","0.0-420.0","djqos8yn","","","","","","","",""
"null","","","html-keyboard-response","421","1059008","0.0-421.0","djqos8yn","","<span style=""color:Black; font-size:50px;"">Video 1</span>","null","","","","",""
"null","","","video-keyboard-response","422","1062084","0.0-422.0","djqos8yn","","","null","","<span style=""color:Black; font-size:50px;"">Casey","Casey","STIM_SET_16/285896.bmp_pp84_L3_V1_veridical_freeview_isoFalse_fps144.mp4",""
"null","","","html-keyboard-response","423","1063588","0.0-423.0","djqos8yn","","<span style=""color:Black; font-size:50px;"">Video 2</span>","null","","","","",""
"null","","","video-keyboard-response","424","1066653","0.0-424.0","djqos8yn","","","null","","<span style=""color:Black; font-size:50px;"">Sandy","Sandy","STIM_SET_16/285896.bmp_pp97_L3_V1_veridical_freeview_isoFalse_fps144.mp4",""
"","","","call-function","425","1066654","0.0-425.0","djqos8yn","","","","","","","",""
"731.7099999999627","","","categorize-html","426","1069393","0.0-426.0","djqos8yn","","Which video showed <span style=""font-size:30px"">Sandy's</span> attention?","50","","","","","true"
"null","","","html-keyboard-response","427","1069900","0.0-427.0","djqos8yn",""," ","null","","","","",""
"","","","call-function","428","1069901","0.0-428.0","djqos8yn","","","","","","","",""
"null","","","html-keyboard-response","429","1071406","0.0-429.0","djqos8yn","","<span style=""color:Black; font-size:50px;"">Video 1</span>","null","","","","",""
"null","","","video-keyboard-response","430","1074480","0.0-430.0","djqos8yn","","","null","","<span style=""color:Black; font-size:50px;"">Casey","Casey","STIM_SET_16/1592350.bmp_pp84_L3_V1_veridical_freeview_isoFalse_fps144.mp4",""
"null","","","html-keyboard-response","431","1075983","0.0-431.0","djqos8yn","","<span style=""color:Black; font-size:50px;"">Video 2</span>","null","","","","",""
"null","","","video-keyboard-response","432","1079055","0.0-432.0","djqos8yn","","","null","","<span style=""color:Black; font-size:50px;"">Sandy","Sandy","STIM_SET_16/1592350.bmp_pp97_L3_V1_veridical_freeview_isoFalse_fps144.mp4",""
"","","","call-function","433","1079055","0.0-433.0","djqos8yn","","","","","","","",""
"818.2750000001397","","","categorize-html","434","1081877","0.0-434.0","djqos8yn","","Which video showed <span style=""font-size:30px"">Sandy's</span> attention?","50","","","","","true"
"null","","","html-keyboard-response","435","1082379","0.0-435.0","djqos8yn",""," ","null","","","","",""
"","","","call-function","436","1082379","0.0-436.0","djqos8yn","","","","","","","",""
"null","","","html-keyboard-response","437","1083881","0.0-437.0","djqos8yn","","<span style=""color:Black; font-size:50px;"">Video 1</span>","null","","","","",""
"null","","","video-keyboard-response","438","1086945","0.0-438.0","djqos8yn","","","null","","<span style=""color:Black; font-size:50px;"">Sandy","Sandy","STIM_SET_16/713829.bmp_pp97_L3_V1_veridical_freeview_isoFalse_fps144.mp4",""
"null","","","html-keyboard-response","439","1088448","0.0-439.0","djqos8yn","","<span style=""color:Black; font-size:50px;"">Video 2</span>","null","","","","",""
"null","","","video-keyboard-response","440","1091537","0.0-440.0","djqos8yn","","","null","","<span style=""color:Black; font-size:50px;"">Casey","Casey","STIM_SET_16/713829.bmp_pp84_L3_V1_veridical_freeview_isoFalse_fps144.mp4",""
"","","","call-function","441","1091538","0.0-441.0","djqos8yn","","","","","","","",""
"1007.75","","","categorize-html","442","1094549","0.0-442.0","djqos8yn","","Which video showed <span style=""font-size:30px"">Sandy's</span> attention?","50","","","","","false"
"null","","","html-keyboard-response","443","1095051","0.0-443.0","djqos8yn",""," ","null","","","","",""
"","","","call-function","444","1095052","0.0-444.0","djqos8yn","","","","","","","",""
"null","","","html-keyboard-response","445","1096558","0.0-445.0","djqos8yn","","<span style=""color:Black; font-size:50px;"">Video 1</span>","null","","","","",""
"null","","","video-keyboard-response","446","1099643","0.0-446.0","djqos8yn","","","null","","<span style=""color:Black; font-size:50px;"">Casey","Casey","STIM_SET_16/713519.bmp_pp84_L3_V1_veridical_freeview_isoFalse_fps144.mp4",""
"null","","","html-keyboard-response","447","1101147","0.0-447.0","djqos8yn","","<span style=""color:Black; font-size:50px;"">Video 2</span>","null","","","","",""
"null","","","video-keyboard-response","448","1104250","0.0-448.0","djqos8yn","","","null","","<span style=""color:Black; font-size:50px;"">Sandy","Sandy","STIM_SET_16/713519.bmp_pp97_L3_V1_veridical_freeview_isoFalse_fps144.mp4",""
"","","","call-function","449","1104251","0.0-449.0","djqos8yn","","","","","","","",""
"1799.3200000000652","","","categorize-html","450","1108053","0.0-450.0","djqos8yn","","Which video showed <span style=""font-size:30px"">Sandy's</span> attention?","50","","","","","true"
"null","","","html-keyboard-response","451","1108557","0.0-451.0","djqos8yn",""," ","null","","","","",""
"","","","call-function","452","1108557","0.0-452.0","djqos8yn","","","","","","","",""
"null","","","html-keyboard-response","453","1110062","0.0-453.0","djqos8yn","","<span style=""color:Black; font-size:50px;"">Video 1</span>","null","","","","",""
"null","","","video-keyboard-response","454","1113148","0.0-454.0","djqos8yn","","","null","","<span style=""color:Black; font-size:50px;"">Casey","Casey","STIM_SET_16/713679.bmp_pp84_L3_V1_veridical_freeview_isoFalse_fps144.mp4",""
"null","","","html-keyboard-response","455","1114651","0.0-455.0","djqos8yn","","<span style=""color:Black; font-size:50px;"">Video 2</span>","null","","","","",""
"null","","","video-keyboard-response","456","1117744","0.0-456.0","djqos8yn","","","null","","<span style=""color:Black; font-size:50px;"">Sandy","Sandy","STIM_SET_16/713679.bmp_pp97_L3_V1_veridical_freeview_isoFalse_fps144.mp4",""
"","","","call-function","457","1117745","0.0-457.0","djqos8yn","","","","","","","",""
"488.95999999996275","","","categorize-html","458","1120238","0.0-458.0","djqos8yn","","Which video showed <span style=""font-size:30px"">Sandy's</span> attention?","50","","","","","true"
"null","","","html-keyboard-response","459","1120739","0.0-459.0","djqos8yn",""," ","null","","","","",""
"","","","call-function","460","1120740","0.0-460.0","djqos8yn","","","","","","","",""
"null","","","html-keyboard-response","461","1122245","0.0-461.0","djqos8yn","","<span style=""color:Black; font-size:50px;"">Video 1</span>","null","","","","",""
"null","","","video-keyboard-response","462","1125349","0.0-462.0","djqos8yn","","","null","","<span style=""color:Black; font-size:50px;"">Sandy","Sandy","STIM_SET_16/1159592.bmp_pp97_L3_V1_veridical_freeview_isoFalse_fps144.mp4",""
"null","","","html-keyboard-response","463","1126852","0.0-463.0","djqos8yn","","<span style=""color:Black; font-size:50px;"">Video 2</span>","null","","","","",""
"null","","","video-keyboard-response","464","1129931","0.0-464.0","djqos8yn","","","null","","<span style=""color:Black; font-size:50px;"">Casey","Casey","STIM_SET_16/1159592.bmp_pp84_L3_V1_veridical_freeview_isoFalse_fps144.mp4",""
"","","","call-function","465","1129932","0.0-465.0","djqos8yn","","","","","","","",""
"797.9950000001118","","","categorize-html","466","1132735","0.0-466.0","djqos8yn","","Which video showed <span style=""font-size:30px"">Sandy's</span> attention?","49","","","","","true"
"null","","","html-keyboard-response","467","1133242","0.0-467.0","djqos8yn",""," ","null","","","","",""
"","","","call-function","468","1133243","0.0-468.0","djqos8yn","","","","","","","",""
"null","","","html-keyboard-response","469","1134749","0.0-469.0","djqos8yn","","<span style=""color:Black; font-size:50px;"">Video 1</span>","null","","","","",""
"null","","","video-keyboard-response","470","1137813","0.0-470.0","djqos8yn","","","null","","<span style=""color:Black; font-size:50px;"">Casey","Casey","STIM_SET_16/1592289.bmp_pp84_L3_V1_veridical_freeview_isoFalse_fps144.mp4",""
"null","","","html-keyboard-response","471","1139320","0.0-471.0","djqos8yn","","<span style=""color:Black; font-size:50px;"">Video 2</span>","null","","","","",""
"null","","","video-keyboard-response","472","1142396","0.0-472.0","djqos8yn","","","null","","<span style=""color:Black; font-size:50px;"">Sandy","Sandy","STIM_SET_16/1592289.bmp_pp97_L3_V1_veridical_freeview_isoFalse_fps144.mp4",""
"","","","call-function","473","1142396","0.0-473.0","djqos8yn","","","","","","","",""
"853.6799999999348","","","categorize-html","474","1145257","0.0-474.0","djqos8yn","","Which video showed <span style=""font-size:30px"">Sandy's</span> attention?","49","","","","","false"
"null","","","html-keyboard-response","475","1145759","0.0-475.0","djqos8yn",""," ","null","","","","",""
"","","","call-function","476","1145760","0.0-476.0","djqos8yn","","","","","","","",""
"null","","","html-keyboard-response","477","1147263","0.0-477.0","djqos8yn","","<span style=""color:Black; font-size:50px;"">Video 1</span>","null","","","","",""
"null","","","video-keyboard-response","478","1150333","0.0-478.0","djqos8yn","","","null","","<span style=""color:Black; font-size:50px;"">Sandy","Sandy","STIM_SET_16/150463.bmp_pp97_L3_V1_veridical_freeview_isoFalse_fps144.mp4",""
"null","","","html-keyboard-response","479","1151840","0.0-479.0","djqos8yn","","<span style=""color:Black; font-size:50px;"">Video 2</span>","null","","","","",""
"null","","","video-keyboard-response","480","1154940","0.0-480.0","djqos8yn","","","null","","<span style=""color:Black; font-size:50px;"">Casey","Casey","STIM_SET_16/150463.bmp_pp84_L3_V1_veridical_freeview_isoFalse_fps144.mp4",""
"","","","call-function","481","1154940","0.0-481.0","djqos8yn","","","","","","","",""
"549.6350000000093","","","categorize-html","482","1157493","0.0-482.0","djqos8yn","","Which video showed <span style=""font-size:30px"">Sandy's</span> attention?","49","","","","","true"
"null","","","html-keyboard-response","483","1157999","0.0-483.0","djqos8yn",""," ","null","","","","",""
"","","","call-function","484","1157999","0.0-484.0","djqos8yn","","","","","","","",""
"null","","","html-keyboard-response","485","1159502","0.0-485.0","djqos8yn","","<span style=""color:Black; font-size:50px;"">Video 1</span>","null","","","","",""
"null","","","video-keyboard-response","486","1162599","0.0-486.0","djqos8yn","","","null","","<span style=""color:Black; font-size:50px;"">Casey","Casey","STIM_SET_16/713403.bmp_pp84_L3_V1_veridical_freeview_isoFalse_fps144.mp4",""
"null","","","html-keyboard-response","487","1164103","0.0-487.0","djqos8yn","","<span style=""color:Black; font-size:50px;"">Video 2</span>","null","","","","",""
"null","","","video-keyboard-response","488","1167194","0.0-488.0","djqos8yn","","","null","","<span style=""color:Black; font-size:50px;"">Sandy","Sandy","STIM_SET_16/713403.bmp_pp97_L3_V1_veridical_freeview_isoFalse_fps144.mp4",""
"","","","call-function","489","1167195","0.0-489.0","djqos8yn","","","","","","","",""
"2223.2399999999907","","","categorize-html","490","1171420","0.0-490.0","djqos8yn","","Which video showed <span style=""font-size:30px"">Sandy's</span> attention?","50","","","","","true"
"null","","","html-keyboard-response","491","1171923","0.0-491.0","djqos8yn",""," ","null","","","","",""
"","","","call-function","492","1171923","0.0-492.0","djqos8yn","","","","","","","",""
"null","","","html-keyboard-response","493","1173429","0.0-493.0","djqos8yn","","<span style=""color:Black; font-size:50px;"">Video 1</span>","null","","","","",""
"null","","","video-keyboard-response","494","1176545","0.0-494.0","djqos8yn","","","null","","<span style=""color:Black; font-size:50px;"">Casey","Casey","STIM_SET_16/150384.bmp_pp84_L3_V1_veridical_freeview_isoFalse_fps144.mp4",""
"null","","","html-keyboard-response","495","1178047","0.0-495.0","djqos8yn","","<span style=""color:Black; font-size:50px;"">Video 2</span>","null","","","","",""
"null","","","video-keyboard-response","496","1181154","0.0-496.0","djqos8yn","","","null","","<span style=""color:Black; font-size:50px;"">Sandy","Sandy","STIM_SET_16/150384.bmp_pp97_L3_V1_veridical_freeview_isoFalse_fps144.mp4",""
"","","","call-function","497","1181154","0.0-497.0","djqos8yn","","","","","","","",""
"1999.589999999851","","","categorize-html","498","1185158","0.0-498.0","djqos8yn","","Which video showed <span style=""font-size:30px"">Sandy's</span> attention?","50","","","","","true"
"null","","","html-keyboard-response","499","1185661","0.0-499.0","djqos8yn",""," ","null","","","","",""
"96308.81499999994","","","instructions","500","1281971","0.0-500.0","djqos8yn","[{""page_index"":0,""viewing_time"":93610.6399999999},{""page_index"":1,""viewing_time"":939.9499999999534},{""page_index"":2,""viewing_time"":1758.0700000000652}]","","","","","","",""
"6966.495000000112","","","instructions","501","1288938","0.0-501.0","djqos8yn","[{""page_index"":0,""viewing_time"":2086.2900000000373},{""page_index"":1,""viewing_time"":2916.1650000000373},{""page_index"":2,""viewing_time"":1963.9350000000559}]","","","","","","",""
"","","","call-function","502","1288938","0.0-502.0","djqos8yn","","","","","","","",""
"null","","","html-keyboard-response","503","1290444","0.0-503.0","djqos8yn","","<span style=""color:Black; font-size:50px;"">Video 1</span>","null","","","","",""
"null","","","video-keyboard-response","504","1293517","0.0-504.0","djqos8yn","","","null","","<span style=""color:Black; font-size:50px;"">Casey","Casey","STIM_SET_16/1593102.bmp_pp84_L3_V1_veridical_freeview_isoFalse_fps144.mp4",""
"null","","","html-keyboard-response","505","1295024","0.0-505.0","djqos8yn","","<span style=""color:Black; font-size:50px;"">Video 2</span>","null","","","","",""
"null","","","video-keyboard-response","506","1298091","0.0-506.0","djqos8yn","","","null","","<span style=""color:Black; font-size:50px;"">Sandy","Sandy","STIM_SET_16/1593102.bmp_pp97_L3_V1_veridical_freeview_isoFalse_fps144.mp4",""
"","","","call-function","507","1298091","0.0-507.0","djqos8yn","","","","","","","",""
"2342.5450000001583","","","categorize-html","508","1302437","0.0-508.0","djqos8yn","","Which video showed <span style=""font-size:30px"">Sandy's</span> attention?","50","","","","","true"
"null","","","html-keyboard-response","509","1302939","0.0-509.0","djqos8yn",""," ","null","","","","",""
"","","","call-function","510","1302939","0.0-510.0","djqos8yn","","","","","","","",""
"null","","","html-keyboard-response","511","1304444","0.0-511.0","djqos8yn","","<span style=""color:Black; font-size:50px;"">Video 1</span>","null","","","","",""
"null","","","video-keyboard-response","512","1307509","0.0-512.0","djqos8yn","","","null","","<span style=""color:Black; font-size:50px;"">Sandy","Sandy","STIM_SET_16/285751.bmp_pp97_L3_V1_veridical_freeview_isoFalse_fps144.mp4",""
"null","","","html-keyboard-response","513","1309012","0.0-513.0","djqos8yn","","<span style=""color:Black; font-size:50px;"">Video 2</span>","null","","","","",""
"null","","","video-keyboard-response","514","1312089","0.0-514.0","djqos8yn","","","null","","<span style=""color:Black; font-size:50px;"">Casey","Casey","STIM_SET_16/285751.bmp_pp84_L3_V1_veridical_freeview_isoFalse_fps144.mp4",""
"","","","call-function","515","1312089","0.0-515.0","djqos8yn","","","","","","","",""
"424.8950000000186","","","categorize-html","516","1314519","0.0-516.0","djqos8yn","","Which video showed <span style=""font-size:30px"">Sandy's</span> attention?","50","","","","","false"
"null","","","html-keyboard-response","517","1315024","0.0-517.0","djqos8yn",""," ","null","","","","",""
"","","","call-function","518","1315025","0.0-518.0","djqos8yn","","","","","","","",""
"null","","","html-keyboard-response","519","1316526","0.0-519.0","djqos8yn","","<span style=""color:Black; font-size:50px;"">Video 1</span>","null","","","","",""
"null","","","video-keyboard-response","520","1319609","0.0-520.0","djqos8yn","","","null","","<span style=""color:Black; font-size:50px;"">Casey","Casey","STIM_SET_16/1592314.bmp_pp84_L3_V1_veridical_freeview_isoFalse_fps144.mp4",""
"null","","","html-keyboard-response","521","1321115","0.0-521.0","djqos8yn","","<span style=""color:Black; font-size:50px;"">Video 2</span>","null","","","","",""
"null","","","video-keyboard-response","522","1324205","0.0-522.0","djqos8yn","","","null","","<span style=""color:Black; font-size:50px;"">Sandy","Sandy","STIM_SET_16/1592314.bmp_pp97_L3_V1_veridical_freeview_isoFalse_fps144.mp4",""
"","","","call-function","523","1324206","0.0-523.0","djqos8yn","","","","","","","",""
"652.3649999999907","","","categorize-html","524","1326865","0.0-524.0","djqos8yn","","Which video showed <span style=""font-size:30px"">Sandy's</span> attention?","50","","","","","true"
"null","","","html-keyboard-response","525","1327369","0.0-525.0","djqos8yn",""," ","null","","","","",""
"","","","call-function","526","1327369","0.0-526.0","djqos8yn","","","","","","","",""
"null","","","html-keyboard-response","527","1328873","0.0-527.0","djqos8yn","","<span style=""color:Black; font-size:50px;"">Video 1</span>","null","","","","",""
"null","","","video-keyboard-response","528","1331962","0.0-528.0","djqos8yn","","","null","","<span style=""color:Black; font-size:50px;"">Casey","Casey","STIM_SET_16/498024.bmp_pp84_L3_V1_veridical_freeview_isoFalse_fps144.mp4",""
"null","","","html-keyboard-response","529","1333469","0.0-529.0","djqos8yn","","<span style=""color:Black; font-size:50px;"">Video 2</span>","null","","","","",""
"null","","","video-keyboard-response","530","1336552","0.0-530.0","djqos8yn","","","null","","<span style=""color:Black; font-size:50px;"">Sandy","Sandy","STIM_SET_16/498024.bmp_pp97_L3_V1_veridical_freeview_isoFalse_fps144.mp4",""
"","","","call-function","531","1336553","0.0-531.0","djqos8yn","","","","","","","",""
"1081.494999999879","","","categorize-html","532","1339639","0.0-532.0","djqos8yn","","Which video showed <span style=""font-size:30px"">Sandy's</span> attention?","50","","","","","true"
"null","","","html-keyboard-response","533","1340143","0.0-533.0","djqos8yn",""," ","null","","","","",""
"","","","call-function","534","1340143","0.0-534.0","djqos8yn","","","","","","","",""
"null","","","html-keyboard-response","535","1341649","0.0-535.0","djqos8yn","","<span style=""color:Black; font-size:50px;"">Video 1</span>","null","","","","",""
"null","","","video-keyboard-response","536","1344740","0.0-536.0","djqos8yn","","","null","","<span style=""color:Black; font-size:50px;"">Sandy","Sandy","STIM_SET_16/1592129.bmp_pp97_L3_V1_veridical_freeview_isoFalse_fps144.mp4",""
"null","","","html-keyboard-response","537","1346246","0.0-537.0","djqos8yn","","<span style=""color:Black; font-size:50px;"">Video 2</span>","null","","","","",""
"null","","","video-keyboard-response","538","1349343","0.0-538.0","djqos8yn","","","null","","<span style=""color:Black; font-size:50px;"">Casey","Casey","STIM_SET_16/1592129.bmp_pp84_L3_V1_veridical_freeview_isoFalse_fps144.mp4",""
"","","","call-function","539","1349344","0.0-539.0","djqos8yn","","","","","","","",""
"802.1499999999069","","","categorize-html","540","1352149","0.0-540.0","djqos8yn","","Which video showed <span style=""font-size:30px"">Sandy's</span> attention?","50","","","","","false"
"null","","","html-keyboard-response","541","1352653","0.0-541.0","djqos8yn",""," ","null","","","","",""
"","","","call-function","542","1352654","0.0-542.0","djqos8yn","","","","","","","",""
"null","","","html-keyboard-response","543","1354159","0.0-543.0","djqos8yn","","<span style=""color:Black; font-size:50px;"">Video 1</span>","null","","","","",""
"null","","","video-keyboard-response","544","1357219","0.0-544.0","djqos8yn","","","null","","<span style=""color:Black; font-size:50px;"">Sandy","Sandy","STIM_SET_16/713620.bmp_pp97_L3_V1_veridical_freeview_isoFalse_fps144.mp4",""
"null","","","html-keyboard-response","545","1358724","0.0-545.0","djqos8yn","","<span style=""color:Black; font-size:50px;"">Video 2</span>","null","","","","",""
"null","","","video-keyboard-response","546","1361786","0.0-546.0","djqos8yn","","","null","","<span style=""color:Black; font-size:50px;"">Casey","Casey","STIM_SET_16/713620.bmp_pp84_L3_V1_veridical_freeview_isoFalse_fps144.mp4",""
"","","","call-function","547","1361786","0.0-547.0","djqos8yn","","","","","","","",""
"671.9250000000466","","","categorize-html","548","1364461","0.0-548.0","djqos8yn","","Which video showed <span style=""font-size:30px"">Sandy's</span> attention?","49","","","","","true"
"null","","","html-keyboard-response","549","1364965","0.0-549.0","djqos8yn",""," ","null","","","","",""
"","","","call-function","550","1364966","0.0-550.0","djqos8yn","","","","","","","",""
"null","","","html-keyboard-response","551","1366468","0.0-551.0","djqos8yn","","<span style=""color:Black; font-size:50px;"">Video 1</span>","null","","","","",""
"null","","","video-keyboard-response","552","1369560","0.0-552.0","djqos8yn","","","null","","<span style=""color:Black; font-size:50px;"">Sandy","Sandy","STIM_SET_16/1592305.bmp_pp97_L3_V1_veridical_freeview_isoFalse_fps144.mp4",""
"null","","","html-keyboard-response","553","1371062","0.0-553.0","djqos8yn","","<span style=""color:Black; font-size:50px;"">Video 2</span>","null","","","","",""
"null","","","video-keyboard-response","554","1374124","0.0-554.0","djqos8yn","","","null","","<span style=""color:Black; font-size:50px;"">Casey","Casey","STIM_SET_16/1592305.bmp_pp84_L3_V1_veridical_freeview_isoFalse_fps144.mp4",""
"","","","call-function","555","1374124","0.0-555.0","djqos8yn","","","","","","","",""
"742.0049999998882","","","categorize-html","556","1376870","0.0-556.0","djqos8yn","","Which video showed <span style=""font-size:30px"">Sandy's</span> attention?","50","","","","","false"
"null","","","html-keyboard-response","557","1377373","0.0-557.0","djqos8yn",""," ","null","","","","",""
"","","","call-function","558","1377374","0.0-558.0","djqos8yn","","","","","","","",""
"null","","","html-keyboard-response","559","1378877","0.0-559.0","djqos8yn","","<span style=""color:Black; font-size:50px;"">Video 1</span>","null","","","","",""
"null","","","video-keyboard-response","560","1381953","0.0-560.0","djqos8yn","","","null","","<span style=""color:Black; font-size:50px;"">Casey","Casey","STIM_SET_16/150290.bmp_pp84_L3_V1_veridical_freeview_isoFalse_fps144.mp4",""
"null","","","html-keyboard-response","561","1383458","0.0-561.0","djqos8yn","","<span style=""color:Black; font-size:50px;"">Video 2</span>","null","","","","",""
"null","","","video-keyboard-response","562","1386563","0.0-562.0","djqos8yn","","","null","","<span style=""color:Black; font-size:50px;"">Sandy","Sandy","STIM_SET_16/150290.bmp_pp97_L3_V1_veridical_freeview_isoFalse_fps144.mp4",""
"","","","call-function","563","1386563","0.0-563.0","djqos8yn","","","","","","","",""
"494.88999999989755","","","categorize-html","564","1389062","0.0-564.0","djqos8yn","","Which video showed <span style=""font-size:30px"">Sandy's</span> attention?","50","","","","","true"
"null","","","html-keyboard-response","565","1389564","0.0-565.0","djqos8yn",""," ","null","","","","",""
"","","","call-function","566","1389565","0.0-566.0","djqos8yn","","","","","","","",""
"null","","","html-keyboard-response","567","1391068","0.0-567.0","djqos8yn","","<span style=""color:Black; font-size:50px;"">Video 1</span>","null","","","","",""
"null","","","video-keyboard-response","568","1394172","0.0-568.0","djqos8yn","","","null","","<span style=""color:Black; font-size:50px;"">Sandy","Sandy","STIM_SET_16/285610.bmp_pp97_L3_V1_veridical_freeview_isoFalse_fps144.mp4",""
"null","","","html-keyboard-response","569","1395675","0.0-569.0","djqos8yn","","<span style=""color:Black; font-size:50px;"">Video 2</span>","null","","","","",""
"null","","","video-keyboard-response","570","1398779","0.0-570.0","djqos8yn","","","null","","<span style=""color:Black; font-size:50px;"">Casey","Casey","STIM_SET_16/285610.bmp_pp84_L3_V1_veridical_freeview_isoFalse_fps144.mp4",""
"","","","call-function","571","1398779","0.0-571.0","djqos8yn","","","","","","","",""
"2015.1200000001118","","","categorize-html","572","1402798","0.0-572.0","djqos8yn","","Which video showed <span style=""font-size:30px"">Sandy's</span> attention?","49","","","","","true"
"null","","","html-keyboard-response","573","1403305","0.0-573.0","djqos8yn",""," ","null","","","","",""
"","","","call-function","574","1403305","0.0-574.0","djqos8yn","","","","","","","",""
"null","","","html-keyboard-response","575","1404810","0.0-575.0","djqos8yn","","<span style=""color:Black; font-size:50px;"">Video 1</span>","null","","","","",""
"null","","","video-keyboard-response","576","1407925","0.0-576.0","djqos8yn","","","null","","<span style=""color:Black; font-size:50px;"">Casey","Casey","STIM_SET_16/713718.bmp_pp84_L3_V1_veridical_freeview_isoFalse_fps144.mp4",""
"null","","","html-keyboard-response","577","1409427","0.0-577.0","djqos8yn","","<span style=""color:Black; font-size:50px;"">Video 2</span>","null","","","","",""
"null","","","video-keyboard-response","578","1412522","0.0-578.0","djqos8yn","","","null","","<span style=""color:Black; font-size:50px;"">Sandy","Sandy","STIM_SET_16/713718.bmp_pp97_L3_V1_veridical_freeview_isoFalse_fps144.mp4",""
"","","","call-function","579","1412523","0.0-579.0","djqos8yn","","","","","","","",""
"3215.4549999998417","","","categorize-html","580","1417743","0.0-580.0","djqos8yn","","Which video showed <span style=""font-size:30px"">Sandy's</span> attention?","50","","","","","true"
"null","","","html-keyboard-response","581","1418245","0.0-581.0","djqos8yn",""," ","null","","","","",""
"3204.090000000084","","","instructions","582","1421450","0.0-582.0","djqos8yn","[{""page_index"":0,""viewing_time"":3203.975000000093}]","","","","","","",""
"1978.6950000000652","","","instructions","583","1423429","0.0-583.0","djqos8yn","[{""page_index"":0,""viewing_time"":1978.535000000149}]","","","","","","",""
"128731.56000000006","{""Q0"":""It was rather interesting. I found myself building little heuristics models for Sandy vs Casey. It felt like Casey's manner of attention more closely resembled my own, so it was easier to pick out Sandy as it felt more erratic and random. It felt like Casey preferred faces, key features, and text. I often looked for random glances into empty space as an indicator of Sandy. Although I wasn't always right!""}","","survey-text","584","1552166","0.0-584.0","djqos8yn","","","","","","","",""
"122136.93000000017","{""Q0"":""Forming some key \""rules\"" that I prescribed to both people. \""Casey likes spending time on faces\"", \""Sandy is more erratic\"", \""Sandy glances into empty space more\"". Usually these gave me a tip off. Sometimes, by the end and after the videos played, I just knew \""yep that's definitely Casey\"" instinctively. Some of them, though, were much less clear, and I got those wrong.""}","","survey-text","585","1674307","0.0-585.0","djqos8yn","","","","","","","",""
"55419.13500000001","{""Q0"":""The most difficult was often following their attention around the screen. The places they looked was not always the places I would have chosen to attend, so I had to kind of \""keep up\"" with the little highlighted area as it darted around the screen.""}","","survey-text","586","1729730","0.0-586.0","djqos8yn","","","","","","","",""
"1367.6499999999069","","","instructions","587","1731099","0.0-587.0","djqos8yn","[{""page_index"":0,""viewing_time"":1367.0200000000186}]","","","","","","",""
"116054.30499999993","{""Experimenter_end"":[""Printed ID# djqos8yn on consent form"",""Given subject SONA credit or payment"",""Given the subject debrief form""]}","[0]","survey-multi-select","588","1847156","0.0-588.0","djqos8yn","","","","","","","",""
