"rt","responses","question_order","trial_type","trial_index","time_elapsed","internal_node_id","ID","view_history","stimulus","key_press","value","agent","condition","image","correct"
"103267.535","{""Experimenter"":[""Confirmed subject's identity (ID card)"",""Confirmed normal or corrected-to-normal vision"",""Obtained consent (signature and date)"",""Checked the test room lighting"",""Checked computer screen lighting"",""Checked distance from screen to chin rest (50cm)"",""Cleaned and adjusted chin rest"",""Counterbalanced the order of the tasks"",""Opened the experiment in Firefox"",""Made the experiment full screen"",""Encouraged subject to silence phone, put away distractors, etc.""]}","[0]","survey-multi-select","0","103275","0.0-0.0","8vxb6zgp","","","","","","","",""
"49551.16500000001","","","instructions","1","152828","0.0-1.0","8vxb6zgp","[{""page_index"":0,""viewing_time"":49551.005000000005}]","","","","","","",""
"6511.514999999985","{""Age"":3,""Sex"":0,""Gender"":0}","[0,1,2]","survey-likert","2","159342","0.0-2.0","8vxb6zgp","","","","","","","",""
"1674.429999999993","","","instructions","3","161017","0.0-3.0","8vxb6zgp","[{""page_index"":0,""viewing_time"":1674.2550000000047}]","","","","","","",""
"10576.424999999988","","","instructions","4","171594","0.0-4.0","8vxb6zgp","[{""page_index"":0,""viewing_time"":858.3699999999953},{""page_index"":1,""viewing_time"":4186.095000000001},{""page_index"":2,""viewing_time"":5531.834999999992}]","","","","","","",""
"2203.5599999999977","","","instructions","5","173798","0.0-5.0","8vxb6zgp","[{""page_index"":0,""viewing_time"":2203.459999999992}]","","","","","","",""
"null","","","video-keyboard-response","6","176887","0.0-6.0","8vxb6zgp","","","null","","","","",""
"38157.25","","","instructions","7","215046","0.0-7.0","8vxb6zgp","[{""page_index"":0,""viewing_time"":4740.9800000000105},{""page_index"":1,""viewing_time"":3355},{""page_index"":2,""viewing_time"":1833.6999999999825},{""page_index"":3,""viewing_time"":7000.200000000012},{""page_index"":4,""viewing_time"":5026.889999999985},{""page_index"":5,""viewing_time"":6877.235000000015},{""page_index"":6,""viewing_time"":6130.674999999988},{""page_index"":7,""viewing_time"":3191.945000000007}]","","","","","","",""
"61386.70499999999","","","instructions","8","276433","0.0-8.0","8vxb6zgp","[{""page_index"":0,""viewing_time"":61386.570000000036}]","","","","","","",""
"2319.960000000021","","","instructions","9","278754","0.0-9.0","8vxb6zgp","[{""page_index"":0,""viewing_time"":2319.8099999999977}]","","","","","","",""
"","","","call-function","10","278755","0.0-10.0","8vxb6zgp","","","","","","","",""
"null","","","html-keyboard-response","11","280258","0.0-11.0","8vxb6zgp","","<span style=""color:Black; font-size:50px;"">Video 1</span>","null","","","","",""
"null","","","video-keyboard-response","12","283323","0.0-12.0","8vxb6zgp","","","null","","<span style=""color:Black; font-size:50px;"">Sandy","Sandy","STIM_SET_17/61574.bmp_pp95_L2_V1_veridical_freeview_isoFalse_fps144.mp4",""
"null","","","html-keyboard-response","13","284827","0.0-13.0","8vxb6zgp","","<span style=""color:Black; font-size:50px;"">Video 2</span>","null","","","","",""
"null","","","video-keyboard-response","14","287886","0.0-14.0","8vxb6zgp","","","null","","<span style=""color:Black; font-size:50px;"">Casey","Casey","STIM_SET_17/61574.bmp_pp99_L2_V1_veridical_freeview_isoFalse_fps144.mp4",""
"","","","call-function","15","287887","0.0-15.0","8vxb6zgp","","","","","","","",""
"3123.7449999999953","","","categorize-html","16","293014","0.0-16.0","8vxb6zgp","","Which video showed <span style=""font-size:30px"">Sandy's</span> attention?","49","","","","","true"
"null","","","html-keyboard-response","17","293520","0.0-17.0","8vxb6zgp",""," ","null","","","","",""
"","","","call-function","18","293521","0.0-18.0","8vxb6zgp","","","","","","","",""
"null","","","html-keyboard-response","19","295023","0.0-19.0","8vxb6zgp","","<span style=""color:Black; font-size:50px;"">Video 1</span>","null","","","","",""
"null","","","video-keyboard-response","20","298089","0.0-20.0","8vxb6zgp","","","null","","<span style=""color:Black; font-size:50px;"">Sandy","Sandy","STIM_SET_17/713003.bmp_pp95_L2_V1_veridical_freeview_isoFalse_fps144.mp4",""
"null","","","html-keyboard-response","21","299596","0.0-21.0","8vxb6zgp","","<span style=""color:Black; font-size:50px;"">Video 2</span>","null","","","","",""
"null","","","video-keyboard-response","22","302665","0.0-22.0","8vxb6zgp","","","null","","<span style=""color:Black; font-size:50px;"">Casey","Casey","STIM_SET_17/713003.bmp_pp99_L2_V1_veridical_freeview_isoFalse_fps144.mp4",""
"","","","call-function","23","302666","0.0-23.0","8vxb6zgp","","","","","","","",""
"1695.3300000000163","","","categorize-html","24","306364","0.0-24.0","8vxb6zgp","","Which video showed <span style=""font-size:30px"">Sandy's</span> attention?","49","","","","","true"
"null","","","html-keyboard-response","25","306869","0.0-25.0","8vxb6zgp",""," ","null","","","","",""
"","","","call-function","26","306870","0.0-26.0","8vxb6zgp","","","","","","","",""
"null","","","html-keyboard-response","27","308373","0.0-27.0","8vxb6zgp","","<span style=""color:Black; font-size:50px;"">Video 1</span>","null","","","","",""
"null","","","video-keyboard-response","28","311483","0.0-28.0","8vxb6zgp","","","null","","<span style=""color:Black; font-size:50px;"">Casey","Casey","STIM_SET_17/1591805.bmp_pp99_L2_V1_veridical_freeview_isoFalse_fps144.mp4",""
"null","","","html-keyboard-response","29","312989","0.0-29.0","8vxb6zgp","","<span style=""color:Black; font-size:50px;"">Video 2</span>","null","","","","",""
"null","","","video-keyboard-response","30","316093","0.0-30.0","8vxb6zgp","","","null","","<span style=""color:Black; font-size:50px;"">Sandy","Sandy","STIM_SET_17/1591805.bmp_pp95_L2_V1_veridical_freeview_isoFalse_fps144.mp4",""
"","","","call-function","31","316093","0.0-31.0","8vxb6zgp","","","","","","","",""
"971.8000000000466","","","categorize-html","32","319072","0.0-32.0","8vxb6zgp","","Which video showed <span style=""font-size:30px"">Sandy's</span> attention?","49","","","","","false"
"null","","","html-keyboard-response","33","319575","0.0-33.0","8vxb6zgp",""," ","null","","","","",""
"","","","call-function","34","319575","0.0-34.0","8vxb6zgp","","","","","","","",""
"null","","","html-keyboard-response","35","321078","0.0-35.0","8vxb6zgp","","<span style=""color:Black; font-size:50px;"">Video 1</span>","null","","","","",""
"null","","","video-keyboard-response","36","324162","0.0-36.0","8vxb6zgp","","","null","","<span style=""color:Black; font-size:50px;"">Casey","Casey","STIM_SET_17/1159609.bmp_pp99_L2_V1_veridical_freeview_isoFalse_fps144.mp4",""
"null","","","html-keyboard-response","37","325665","0.0-37.0","8vxb6zgp","","<span style=""color:Black; font-size:50px;"">Video 2</span>","null","","","","",""
"null","","","video-keyboard-response","38","328772","0.0-38.0","8vxb6zgp","","","null","","<span style=""color:Black; font-size:50px;"">Sandy","Sandy","STIM_SET_17/1159609.bmp_pp95_L2_V1_veridical_freeview_isoFalse_fps144.mp4",""
"","","","call-function","39","328772","0.0-39.0","8vxb6zgp","","","","","","","",""
"1036.969999999972","","","categorize-html","40","331813","0.0-40.0","8vxb6zgp","","Which video showed <span style=""font-size:30px"">Sandy's</span> attention?","49","","","","","false"
"null","","","html-keyboard-response","41","332316","0.0-41.0","8vxb6zgp",""," ","null","","","","",""
"","","","call-function","42","332316","0.0-42.0","8vxb6zgp","","","","","","","",""
"null","","","html-keyboard-response","43","333819","0.0-43.0","8vxb6zgp","","<span style=""color:Black; font-size:50px;"">Video 1</span>","null","","","","",""
"null","","","video-keyboard-response","44","336911","0.0-44.0","8vxb6zgp","","","null","","<span style=""color:Black; font-size:50px;"">Casey","Casey","STIM_SET_17/1159882.bmp_pp99_L2_V1_veridical_freeview_isoFalse_fps144.mp4",""
"null","","","html-keyboard-response","45","338414","0.0-45.0","8vxb6zgp","","<span style=""color:Black; font-size:50px;"">Video 2</span>","null","","","","",""
"null","","","video-keyboard-response","46","341503","0.0-46.0","8vxb6zgp","","","null","","<span style=""color:Black; font-size:50px;"">Sandy","Sandy","STIM_SET_17/1159882.bmp_pp95_L2_V1_veridical_freeview_isoFalse_fps144.mp4",""
"","","","call-function","47","341504","0.0-47.0","8vxb6zgp","","","","","","","",""
"4217.315000000002","","","categorize-html","48","347726","0.0-48.0","8vxb6zgp","","Which video showed <span style=""font-size:30px"">Sandy's</span> attention?","49","","","","","false"
"null","","","html-keyboard-response","49","348232","0.0-49.0","8vxb6zgp",""," ","null","","","","",""
"","","","call-function","50","348233","0.0-50.0","8vxb6zgp","","","","","","","",""
"null","","","html-keyboard-response","51","349737","0.0-51.0","8vxb6zgp","","<span style=""color:Black; font-size:50px;"">Video 1</span>","null","","","","",""
"null","","","video-keyboard-response","52","352810","0.0-52.0","8vxb6zgp","","","null","","<span style=""color:Black; font-size:50px;"">Sandy","Sandy","STIM_SET_17/1592499.bmp_pp95_L2_V1_veridical_freeview_isoFalse_fps144.mp4",""
"null","","","html-keyboard-response","53","354313","0.0-53.0","8vxb6zgp","","<span style=""color:Black; font-size:50px;"">Video 2</span>","null","","","","",""
"null","","","video-keyboard-response","54","357380","0.0-54.0","8vxb6zgp","","","null","","<span style=""color:Black; font-size:50px;"">Casey","Casey","STIM_SET_17/1592499.bmp_pp99_L2_V1_veridical_freeview_isoFalse_fps144.mp4",""
"","","","call-function","55","357380","0.0-55.0","8vxb6zgp","","","","","","","",""
"948.6550000000279","","","categorize-html","56","360337","0.0-56.0","8vxb6zgp","","Which video showed <span style=""font-size:30px"">Sandy's</span> attention?","50","","","","","false"
"null","","","html-keyboard-response","57","360839","0.0-57.0","8vxb6zgp",""," ","null","","","","",""
"","","","call-function","58","360839","0.0-58.0","8vxb6zgp","","","","","","","",""
"null","","","html-keyboard-response","59","362343","0.0-59.0","8vxb6zgp","","<span style=""color:Black; font-size:50px;"">Video 1</span>","null","","","","",""
"null","","","video-keyboard-response","60","365405","0.0-60.0","8vxb6zgp","","","null","","<span style=""color:Black; font-size:50px;"">Sandy","Sandy","STIM_SET_17/1159335.bmp_pp95_L2_V1_veridical_freeview_isoFalse_fps144.mp4",""
"null","","","html-keyboard-response","61","366911","0.0-61.0","8vxb6zgp","","<span style=""color:Black; font-size:50px;"">Video 2</span>","null","","","","",""
"null","","","video-keyboard-response","62","369972","0.0-62.0","8vxb6zgp","","","null","","<span style=""color:Black; font-size:50px;"">Casey","Casey","STIM_SET_17/1159335.bmp_pp99_L2_V1_veridical_freeview_isoFalse_fps144.mp4",""
"","","","call-function","63","369973","0.0-63.0","8vxb6zgp","","","","","","","",""
"932.25","","","categorize-html","64","372912","0.0-64.0","8vxb6zgp","","Which video showed <span style=""font-size:30px"">Sandy's</span> attention?","49","","","","","true"
"null","","","html-keyboard-response","65","373419","0.0-65.0","8vxb6zgp",""," ","null","","","","",""
"","","","call-function","66","373420","0.0-66.0","8vxb6zgp","","","","","","","",""
"null","","","html-keyboard-response","67","374923","0.0-67.0","8vxb6zgp","","<span style=""color:Black; font-size:50px;"">Video 1</span>","null","","","","",""
"null","","","video-keyboard-response","68","378030","0.0-68.0","8vxb6zgp","","","null","","<span style=""color:Black; font-size:50px;"">Sandy","Sandy","STIM_SET_17/1159847.bmp_pp95_L2_V1_veridical_freeview_isoFalse_fps144.mp4",""
"null","","","html-keyboard-response","69","379536","0.0-69.0","8vxb6zgp","","<span style=""color:Black; font-size:50px;"">Video 2</span>","null","","","","",""
"null","","","video-keyboard-response","70","382643","0.0-70.0","8vxb6zgp","","","null","","<span style=""color:Black; font-size:50px;"">Casey","Casey","STIM_SET_17/1159847.bmp_pp99_L2_V1_veridical_freeview_isoFalse_fps144.mp4",""
"","","","call-function","71","382644","0.0-71.0","8vxb6zgp","","","","","","","",""
"925.414999999979","","","categorize-html","72","385574","0.0-72.0","8vxb6zgp","","Which video showed <span style=""font-size:30px"">Sandy's</span> attention?","49","","","","","true"
"null","","","html-keyboard-response","73","386077","0.0-73.0","8vxb6zgp",""," ","null","","","","",""
"","","","call-function","74","386077","0.0-74.0","8vxb6zgp","","","","","","","",""
"null","","","html-keyboard-response","75","387582","0.0-75.0","8vxb6zgp","","<span style=""color:Black; font-size:50px;"">Video 1</span>","null","","","","",""
"null","","","video-keyboard-response","76","390699","0.0-76.0","8vxb6zgp","","","null","","<span style=""color:Black; font-size:50px;"">Sandy","Sandy","STIM_SET_17/498388.bmp_pp95_L2_V1_veridical_freeview_isoFalse_fps144.mp4",""
"null","","","html-keyboard-response","77","392203","0.0-77.0","8vxb6zgp","","<span style=""color:Black; font-size:50px;"">Video 2</span>","null","","","","",""
"null","","","video-keyboard-response","78","395317","0.0-78.0","8vxb6zgp","","","null","","<span style=""color:Black; font-size:50px;"">Casey","Casey","STIM_SET_17/498388.bmp_pp99_L2_V1_veridical_freeview_isoFalse_fps144.mp4",""
"","","","call-function","79","395317","0.0-79.0","8vxb6zgp","","","","","","","",""
"756.4199999999837","","","categorize-html","80","398078","0.0-80.0","8vxb6zgp","","Which video showed <span style=""font-size:30px"">Sandy's</span> attention?","49","","","","","true"
"null","","","html-keyboard-response","81","398580","0.0-81.0","8vxb6zgp",""," ","null","","","","",""
"","","","call-function","82","398580","0.0-82.0","8vxb6zgp","","","","","","","",""
"null","","","html-keyboard-response","83","400082","0.0-83.0","8vxb6zgp","","<span style=""color:Black; font-size:50px;"">Video 1</span>","null","","","","",""
"null","","","video-keyboard-response","84","403181","0.0-84.0","8vxb6zgp","","","null","","<span style=""color:Black; font-size:50px;"">Casey","Casey","STIM_SET_17/498153.bmp_pp99_L2_V1_veridical_freeview_isoFalse_fps144.mp4",""
"null","","","html-keyboard-response","85","404688","0.0-85.0","8vxb6zgp","","<span style=""color:Black; font-size:50px;"">Video 2</span>","null","","","","",""
"null","","","video-keyboard-response","86","407798","0.0-86.0","8vxb6zgp","","","null","","<span style=""color:Black; font-size:50px;"">Sandy","Sandy","STIM_SET_17/498153.bmp_pp95_L2_V1_veridical_freeview_isoFalse_fps144.mp4",""
"","","","call-function","87","407799","0.0-87.0","8vxb6zgp","","","","","","","",""
"666.390000000014","","","categorize-html","88","410469","0.0-88.0","8vxb6zgp","","Which video showed <span style=""font-size:30px"">Sandy's</span> attention?","49","","","","","false"
"null","","","html-keyboard-response","89","410970","0.0-89.0","8vxb6zgp",""," ","null","","","","",""
"3891.039999999979","","","instructions","90","414862","0.0-90.0","8vxb6zgp","[{""page_index"":0,""viewing_time"":2329.1500000000233},{""page_index"":1,""viewing_time"":908.9549999999581},{""page_index"":2,""viewing_time"":652.8300000000163}]","","","","","","",""
"3099.5750000000116","","","instructions","91","417962","0.0-91.0","8vxb6zgp","[{""page_index"":0,""viewing_time"":533.7299999999814},{""page_index"":1,""viewing_time"":1847.7600000000093},{""page_index"":2,""viewing_time"":717.9749999999767}]","","","","","","",""
"","","","call-function","92","417962","0.0-92.0","8vxb6zgp","","","","","","","",""
"null","","","html-keyboard-response","93","419466","0.0-93.0","8vxb6zgp","","<span style=""color:Black; font-size:50px;"">Video 1</span>","null","","","","",""
"null","","","video-keyboard-response","94","422541","0.0-94.0","8vxb6zgp","","","null","","<span style=""color:Black; font-size:50px;"">Casey","Casey","STIM_SET_17/498372.bmp_pp99_L2_V1_veridical_freeview_isoFalse_fps144.mp4",""
"null","","","html-keyboard-response","95","424046","0.0-95.0","8vxb6zgp","","<span style=""color:Black; font-size:50px;"">Video 2</span>","null","","","","",""
"null","","","video-keyboard-response","96","427123","0.0-96.0","8vxb6zgp","","","null","","<span style=""color:Black; font-size:50px;"">Sandy","Sandy","STIM_SET_17/498372.bmp_pp95_L2_V1_veridical_freeview_isoFalse_fps144.mp4",""
"","","","call-function","97","427124","0.0-97.0","8vxb6zgp","","","","","","","",""
"773.195000000007","","","categorize-html","98","429899","0.0-98.0","8vxb6zgp","","Which video showed <span style=""font-size:30px"">Sandy's</span> attention?","49","","","","","false"
"null","","","html-keyboard-response","99","430403","0.0-99.0","8vxb6zgp",""," ","null","","","","",""
"","","","call-function","100","430403","0.0-100.0","8vxb6zgp","","","","","","","",""
"null","","","html-keyboard-response","101","431905","0.0-101.0","8vxb6zgp","","<span style=""color:Black; font-size:50px;"">Video 1</span>","null","","","","",""
"null","","","video-keyboard-response","102","434970","0.0-102.0","8vxb6zgp","","","null","","<span style=""color:Black; font-size:50px;"">Sandy","Sandy","STIM_SET_17/713779.bmp_pp95_L2_V1_veridical_freeview_isoFalse_fps144.mp4",""
"null","","","html-keyboard-response","103","436474","0.0-103.0","8vxb6zgp","","<span style=""color:Black; font-size:50px;"">Video 2</span>","null","","","","",""
"null","","","video-keyboard-response","104","439548","0.0-104.0","8vxb6zgp","","","null","","<span style=""color:Black; font-size:50px;"">Casey","Casey","STIM_SET_17/713779.bmp_pp99_L2_V1_veridical_freeview_isoFalse_fps144.mp4",""
"","","","call-function","105","439548","0.0-105.0","8vxb6zgp","","","","","","","",""
"1621.2700000000186","","","categorize-html","106","443175","0.0-106.0","8vxb6zgp","","Which video showed <span style=""font-size:30px"">Sandy's</span> attention?","50","","","","","false"
"null","","","html-keyboard-response","107","443680","0.0-107.0","8vxb6zgp",""," ","null","","","","",""
"","","","call-function","108","443680","0.0-108.0","8vxb6zgp","","","","","","","",""
"null","","","html-keyboard-response","109","445183","0.0-109.0","8vxb6zgp","","<span style=""color:Black; font-size:50px;"">Video 1</span>","null","","","","",""
"null","","","video-keyboard-response","110","448283","0.0-110.0","8vxb6zgp","","","null","","<span style=""color:Black; font-size:50px;"">Casey","Casey","STIM_SET_17/1591859.bmp_pp99_L2_V1_veridical_freeview_isoFalse_fps144.mp4",""
"null","","","html-keyboard-response","111","449787","0.0-111.0","8vxb6zgp","","<span style=""color:Black; font-size:50px;"">Video 2</span>","null","","","","",""
"null","","","video-keyboard-response","112","452877","0.0-112.0","8vxb6zgp","","","null","","<span style=""color:Black; font-size:50px;"">Sandy","Sandy","STIM_SET_17/1591859.bmp_pp95_L2_V1_veridical_freeview_isoFalse_fps144.mp4",""
"","","","call-function","113","452877","0.0-113.0","8vxb6zgp","","","","","","","",""
"507.7150000000256","","","categorize-html","114","455390","0.0-114.0","8vxb6zgp","","Which video showed <span style=""font-size:30px"">Sandy's</span> attention?","50","","","","","true"
"null","","","html-keyboard-response","115","455894","0.0-115.0","8vxb6zgp",""," ","null","","","","",""
"","","","call-function","116","455894","0.0-116.0","8vxb6zgp","","","","","","","",""
"null","","","html-keyboard-response","117","457401","0.0-117.0","8vxb6zgp","","<span style=""color:Black; font-size:50px;"">Video 1</span>","null","","","","",""
"null","","","video-keyboard-response","118","460492","0.0-118.0","8vxb6zgp","","","null","","<span style=""color:Black; font-size:50px;"">Casey","Casey","STIM_SET_17/1159813.bmp_pp99_L2_V1_veridical_freeview_isoFalse_fps144.mp4",""
"null","","","html-keyboard-response","119","461993","0.0-119.0","8vxb6zgp","","<span style=""color:Black; font-size:50px;"">Video 2</span>","null","","","","",""
"null","","","video-keyboard-response","120","465077","0.0-120.0","8vxb6zgp","","","null","","<span style=""color:Black; font-size:50px;"">Sandy","Sandy","STIM_SET_17/1159813.bmp_pp95_L2_V1_veridical_freeview_isoFalse_fps144.mp4",""
"","","","call-function","121","465077","0.0-121.0","8vxb6zgp","","","","","","","",""
"379.88000000000466","","","categorize-html","122","467460","0.0-122.0","8vxb6zgp","","Which video showed <span style=""font-size:30px"">Sandy's</span> attention?","50","","","","","true"
"null","","","html-keyboard-response","123","467963","0.0-123.0","8vxb6zgp",""," ","null","","","","",""
"","","","call-function","124","467963","0.0-124.0","8vxb6zgp","","","","","","","",""
"null","","","html-keyboard-response","125","469470","0.0-125.0","8vxb6zgp","","<span style=""color:Black; font-size:50px;"">Video 1</span>","null","","","","",""
"null","","","video-keyboard-response","126","472557","0.0-126.0","8vxb6zgp","","","null","","<span style=""color:Black; font-size:50px;"">Sandy","Sandy","STIM_SET_17/1592044.bmp_pp95_L2_V1_veridical_freeview_isoFalse_fps144.mp4",""
"null","","","html-keyboard-response","127","474060","0.0-127.0","8vxb6zgp","","<span style=""color:Black; font-size:50px;"">Video 2</span>","null","","","","",""
"null","","","video-keyboard-response","128","477154","0.0-128.0","8vxb6zgp","","","null","","<span style=""color:Black; font-size:50px;"">Casey","Casey","STIM_SET_17/1592044.bmp_pp99_L2_V1_veridical_freeview_isoFalse_fps144.mp4",""
"","","","call-function","129","477154","0.0-129.0","8vxb6zgp","","","","","","","",""
"1071.4000000000233","","","categorize-html","130","480229","0.0-130.0","8vxb6zgp","","Which video showed <span style=""font-size:30px"">Sandy's</span> attention?","49","","","","","true"
"null","","","html-keyboard-response","131","480733","0.0-131.0","8vxb6zgp",""," ","null","","","","",""
"","","","call-function","132","480734","0.0-132.0","8vxb6zgp","","","","","","","",""
"null","","","html-keyboard-response","133","482240","0.0-133.0","8vxb6zgp","","<span style=""color:Black; font-size:50px;"">Video 1</span>","null","","","","",""
"null","","","video-keyboard-response","134","485331","0.0-134.0","8vxb6zgp","","","null","","<span style=""color:Black; font-size:50px;"">Sandy","Sandy","STIM_SET_17/285859.bmp_pp95_L2_V1_veridical_freeview_isoFalse_fps144.mp4",""
"null","","","html-keyboard-response","135","486834","0.0-135.0","8vxb6zgp","","<span style=""color:Black; font-size:50px;"">Video 2</span>","null","","","","",""
"null","","","video-keyboard-response","136","489901","0.0-136.0","8vxb6zgp","","","null","","<span style=""color:Black; font-size:50px;"">Casey","Casey","STIM_SET_17/285859.bmp_pp99_L2_V1_veridical_freeview_isoFalse_fps144.mp4",""
"","","","call-function","137","489901","0.0-137.0","8vxb6zgp","","","","","","","",""
"603.7750000000233","","","categorize-html","138","492508","0.0-138.0","8vxb6zgp","","Which video showed <span style=""font-size:30px"">Sandy's</span> attention?","49","","","","","true"
"null","","","html-keyboard-response","139","493010","0.0-139.0","8vxb6zgp",""," ","null","","","","",""
"","","","call-function","140","493011","0.0-140.0","8vxb6zgp","","","","","","","",""
"null","","","html-keyboard-response","141","494517","0.0-141.0","8vxb6zgp","","<span style=""color:Black; font-size:50px;"">Video 1</span>","null","","","","",""
"null","","","video-keyboard-response","142","497586","0.0-142.0","8vxb6zgp","","","null","","<span style=""color:Black; font-size:50px;"">Sandy","Sandy","STIM_SET_17/1593035.bmp_pp95_L2_V1_veridical_freeview_isoFalse_fps144.mp4",""
"null","","","html-keyboard-response","143","499090","0.0-143.0","8vxb6zgp","","<span style=""color:Black; font-size:50px;"">Video 2</span>","null","","","","",""
"null","","","video-keyboard-response","144","502150","0.0-144.0","8vxb6zgp","","","null","","<span style=""color:Black; font-size:50px;"">Casey","Casey","STIM_SET_17/1593035.bmp_pp99_L2_V1_veridical_freeview_isoFalse_fps144.mp4",""
"","","","call-function","145","502150","0.0-145.0","8vxb6zgp","","","","","","","",""
"834.835000000021","","","categorize-html","146","504989","0.0-146.0","8vxb6zgp","","Which video showed <span style=""font-size:30px"">Sandy's</span> attention?","49","","","","","true"
"null","","","html-keyboard-response","147","505492","0.0-147.0","8vxb6zgp",""," ","null","","","","",""
"","","","call-function","148","505493","0.0-148.0","8vxb6zgp","","","","","","","",""
"null","","","html-keyboard-response","149","506996","0.0-149.0","8vxb6zgp","","<span style=""color:Black; font-size:50px;"">Video 1</span>","null","","","","",""
"null","","","video-keyboard-response","150","510071","0.0-150.0","8vxb6zgp","","","null","","<span style=""color:Black; font-size:50px;"">Sandy","Sandy","STIM_SET_17/498111.bmp_pp95_L2_V1_veridical_freeview_isoFalse_fps144.mp4",""
"null","","","html-keyboard-response","151","511574","0.0-151.0","8vxb6zgp","","<span style=""color:Black; font-size:50px;"">Video 2</span>","null","","","","",""
"null","","","video-keyboard-response","152","514678","0.0-152.0","8vxb6zgp","","","null","","<span style=""color:Black; font-size:50px;"">Casey","Casey","STIM_SET_17/498111.bmp_pp99_L2_V1_veridical_freeview_isoFalse_fps144.mp4",""
"","","","call-function","153","514678","0.0-153.0","8vxb6zgp","","","","","","","",""
"683.2750000000233","","","categorize-html","154","517366","0.0-154.0","8vxb6zgp","","Which video showed <span style=""font-size:30px"">Sandy's</span> attention?","49","","","","","true"
"null","","","html-keyboard-response","155","517870","0.0-155.0","8vxb6zgp",""," ","null","","","","",""
"","","","call-function","156","517871","0.0-156.0","8vxb6zgp","","","","","","","",""
"null","","","html-keyboard-response","157","519376","0.0-157.0","8vxb6zgp","","<span style=""color:Black; font-size:50px;"">Video 1</span>","null","","","","",""
"null","","","video-keyboard-response","158","522467","0.0-158.0","8vxb6zgp","","","null","","<span style=""color:Black; font-size:50px;"">Sandy","Sandy","STIM_SET_17/713328.bmp_pp95_L2_V1_veridical_freeview_isoFalse_fps144.mp4",""
"null","","","html-keyboard-response","159","523973","0.0-159.0","8vxb6zgp","","<span style=""color:Black; font-size:50px;"">Video 2</span>","null","","","","",""
"null","","","video-keyboard-response","160","527059","0.0-160.0","8vxb6zgp","","","null","","<span style=""color:Black; font-size:50px;"">Casey","Casey","STIM_SET_17/713328.bmp_pp99_L2_V1_veridical_freeview_isoFalse_fps144.mp4",""
"","","","call-function","161","527060","0.0-161.0","8vxb6zgp","","","","","","","",""
"853.6750000000466","","","categorize-html","162","529918","0.0-162.0","8vxb6zgp","","Which video showed <span style=""font-size:30px"">Sandy's</span> attention?","49","","","","","true"
"null","","","html-keyboard-response","163","530424","0.0-163.0","8vxb6zgp",""," ","null","","","","",""
"","","","call-function","164","530425","0.0-164.0","8vxb6zgp","","","","","","","",""
"null","","","html-keyboard-response","165","531929","0.0-165.0","8vxb6zgp","","<span style=""color:Black; font-size:50px;"">Video 1</span>","null","","","","",""
"null","","","video-keyboard-response","166","535029","0.0-166.0","8vxb6zgp","","","null","","<span style=""color:Black; font-size:50px;"">Sandy","Sandy","STIM_SET_17/1592254.bmp_pp95_L2_V1_veridical_freeview_isoFalse_fps144.mp4",""
"null","","","html-keyboard-response","167","536534","0.0-167.0","8vxb6zgp","","<span style=""color:Black; font-size:50px;"">Video 2</span>","null","","","","",""
"null","","","video-keyboard-response","168","539637","0.0-168.0","8vxb6zgp","","","null","","<span style=""color:Black; font-size:50px;"">Casey","Casey","STIM_SET_17/1592254.bmp_pp99_L2_V1_veridical_freeview_isoFalse_fps144.mp4",""
"","","","call-function","169","539637","0.0-169.0","8vxb6zgp","","","","","","","",""
"476.2600000000093","","","categorize-html","170","542116","0.0-170.0","8vxb6zgp","","Which video showed <span style=""font-size:30px"">Sandy's</span> attention?","49","","","","","true"
"null","","","html-keyboard-response","171","542619","0.0-171.0","8vxb6zgp",""," ","null","","","","",""
"7346.834999999963","","","instructions","172","549966","0.0-172.0","8vxb6zgp","[{""page_index"":0,""viewing_time"":3295.4749999999767},{""page_index"":1,""viewing_time"":1470},{""page_index"":2,""viewing_time"":2581.25}]","","","","","","",""
"2985.75","","","instructions","173","552952","0.0-173.0","8vxb6zgp","[{""page_index"":0,""viewing_time"":1072.3800000000047},{""page_index"":1,""viewing_time"":1383.920000000042},{""page_index"":2,""viewing_time"":529.3299999999581}]","","","","","","",""
"","","","call-function","174","552953","0.0-174.0","8vxb6zgp","","","","","","","",""
"null","","","html-keyboard-response","175","554457","0.0-175.0","8vxb6zgp","","<span style=""color:Black; font-size:50px;"">Video 1</span>","null","","","","",""
"null","","","video-keyboard-response","176","557529","0.0-176.0","8vxb6zgp","","","null","","<span style=""color:Black; font-size:50px;"">Casey","Casey","STIM_SET_17/1159855.bmp_pp99_L2_V1_veridical_freeview_isoFalse_fps144.mp4",""
"null","","","html-keyboard-response","177","559035","0.0-177.0","8vxb6zgp","","<span style=""color:Black; font-size:50px;"">Video 2</span>","null","","","","",""
"null","","","video-keyboard-response","178","562112","0.0-178.0","8vxb6zgp","","","null","","<span style=""color:Black; font-size:50px;"">Sandy","Sandy","STIM_SET_17/1159855.bmp_pp95_L2_V1_veridical_freeview_isoFalse_fps144.mp4",""
"","","","call-function","179","562112","0.0-179.0","8vxb6zgp","","","","","","","",""
"1336.9899999999907","","","categorize-html","180","565454","0.0-180.0","8vxb6zgp","","Which video showed <span style=""font-size:30px"">Sandy's</span> attention?","50","","","","","true"
"null","","","html-keyboard-response","181","565958","0.0-181.0","8vxb6zgp",""," ","null","","","","",""
"","","","call-function","182","565959","0.0-182.0","8vxb6zgp","","","","","","","",""
"null","","","html-keyboard-response","183","567461","0.0-183.0","8vxb6zgp","","<span style=""color:Black; font-size:50px;"">Video 1</span>","null","","","","",""
"null","","","video-keyboard-response","184","570520","0.0-184.0","8vxb6zgp","","","null","","<span style=""color:Black; font-size:50px;"">Casey","Casey","STIM_SET_17/1592367.bmp_pp99_L2_V1_veridical_freeview_isoFalse_fps144.mp4",""
"null","","","html-keyboard-response","185","572022","0.0-185.0","8vxb6zgp","","<span style=""color:Black; font-size:50px;"">Video 2</span>","null","","","","",""
"null","","","video-keyboard-response","186","575089","0.0-186.0","8vxb6zgp","","","null","","<span style=""color:Black; font-size:50px;"">Sandy","Sandy","STIM_SET_17/1592367.bmp_pp95_L2_V1_veridical_freeview_isoFalse_fps144.mp4",""
"","","","call-function","187","575089","0.0-187.0","8vxb6zgp","","","","","","","",""
"1376.204999999958","","","categorize-html","188","578470","0.0-188.0","8vxb6zgp","","Which video showed <span style=""font-size:30px"">Sandy's</span> attention?","50","","","","","true"
"null","","","html-keyboard-response","189","578974","0.0-189.0","8vxb6zgp",""," ","null","","","","",""
"","","","call-function","190","578975","0.0-190.0","8vxb6zgp","","","","","","","",""
"null","","","html-keyboard-response","191","580478","0.0-191.0","8vxb6zgp","","<span style=""color:Black; font-size:50px;"">Video 1</span>","null","","","","",""
"null","","","video-keyboard-response","192","583569","0.0-192.0","8vxb6zgp","","","null","","<span style=""color:Black; font-size:50px;"">Casey","Casey","STIM_SET_17/1159860.bmp_pp99_L2_V1_veridical_freeview_isoFalse_fps144.mp4",""
"null","","","html-keyboard-response","193","585072","0.0-193.0","8vxb6zgp","","<span style=""color:Black; font-size:50px;"">Video 2</span>","null","","","","",""
"null","","","video-keyboard-response","194","588176","0.0-194.0","8vxb6zgp","","","null","","<span style=""color:Black; font-size:50px;"">Sandy","Sandy","STIM_SET_17/1159860.bmp_pp95_L2_V1_veridical_freeview_isoFalse_fps144.mp4",""
"","","","call-function","195","588176","0.0-195.0","8vxb6zgp","","","","","","","",""
"1240.8499999999767","","","categorize-html","196","591422","0.0-196.0","8vxb6zgp","","Which video showed <span style=""font-size:30px"">Sandy's</span> attention?","50","","","","","true"
"null","","","html-keyboard-response","197","591925","0.0-197.0","8vxb6zgp",""," ","null","","","","",""
"","","","call-function","198","591925","0.0-198.0","8vxb6zgp","","","","","","","",""
"null","","","html-keyboard-response","199","593429","0.0-199.0","8vxb6zgp","","<span style=""color:Black; font-size:50px;"">Video 1</span>","null","","","","",""
"null","","","video-keyboard-response","200","596529","0.0-200.0","8vxb6zgp","","","null","","<span style=""color:Black; font-size:50px;"">Casey","Casey","STIM_SET_17/498286.bmp_pp99_L2_V1_veridical_freeview_isoFalse_fps144.mp4",""
"null","","","html-keyboard-response","201","598032","0.0-201.0","8vxb6zgp","","<span style=""color:Black; font-size:50px;"">Video 2</span>","null","","","","",""
"null","","","video-keyboard-response","202","601131","0.0-202.0","8vxb6zgp","","","null","","<span style=""color:Black; font-size:50px;"">Sandy","Sandy","STIM_SET_17/498286.bmp_pp95_L2_V1_veridical_freeview_isoFalse_fps144.mp4",""
"","","","call-function","203","601132","0.0-203.0","8vxb6zgp","","","","","","","",""
"373.4300000000512","","","categorize-html","204","603509","0.0-204.0","8vxb6zgp","","Which video showed <span style=""font-size:30px"">Sandy's</span> attention?","50","","","","","true"
"null","","","html-keyboard-response","205","604012","0.0-205.0","8vxb6zgp",""," ","null","","","","",""
"","","","call-function","206","604012","0.0-206.0","8vxb6zgp","","","","","","","",""
"null","","","html-keyboard-response","207","605514","0.0-207.0","8vxb6zgp","","<span style=""color:Black; font-size:50px;"">Video 1</span>","null","","","","",""
"null","","","video-keyboard-response","208","608614","0.0-208.0","8vxb6zgp","","","null","","<span style=""color:Black; font-size:50px;"">Casey","Casey","STIM_SET_17/1160167.bmp_pp99_L2_V1_veridical_freeview_isoFalse_fps144.mp4",""
"null","","","html-keyboard-response","209","610116","0.0-209.0","8vxb6zgp","","<span style=""color:Black; font-size:50px;"">Video 2</span>","null","","","","",""
"null","","","video-keyboard-response","210","613203","0.0-210.0","8vxb6zgp","","","null","","<span style=""color:Black; font-size:50px;"">Sandy","Sandy","STIM_SET_17/1160167.bmp_pp95_L2_V1_veridical_freeview_isoFalse_fps144.mp4",""
"","","","call-function","211","613204","0.0-211.0","8vxb6zgp","","","","","","","",""
"709.4100000000326","","","categorize-html","212","615916","0.0-212.0","8vxb6zgp","","Which video showed <span style=""font-size:30px"">Sandy's</span> attention?","50","","","","","true"
"null","","","html-keyboard-response","213","616420","0.0-213.0","8vxb6zgp",""," ","null","","","","",""
"","","","call-function","214","616421","0.0-214.0","8vxb6zgp","","","","","","","",""
"null","","","html-keyboard-response","215","617927","0.0-215.0","8vxb6zgp","","<span style=""color:Black; font-size:50px;"">Video 1</span>","null","","","","",""
"null","","","video-keyboard-response","216","620990","0.0-216.0","8vxb6zgp","","","null","","<span style=""color:Black; font-size:50px;"">Casey","Casey","STIM_SET_17/1160049.bmp_pp99_L2_V1_veridical_freeview_isoFalse_fps144.mp4",""
"null","","","html-keyboard-response","217","622496","0.0-217.0","8vxb6zgp","","<span style=""color:Black; font-size:50px;"">Video 2</span>","null","","","","",""
"null","","","video-keyboard-response","218","625555","0.0-218.0","8vxb6zgp","","","null","","<span style=""color:Black; font-size:50px;"">Sandy","Sandy","STIM_SET_17/1160049.bmp_pp95_L2_V1_veridical_freeview_isoFalse_fps144.mp4",""
"","","","call-function","219","625556","0.0-219.0","8vxb6zgp","","","","","","","",""
"349.4550000000745","","","categorize-html","220","627912","0.0-220.0","8vxb6zgp","","Which video showed <span style=""font-size:30px"">Sandy's</span> attention?","50","","","","","true"
"null","","","html-keyboard-response","221","628419","0.0-221.0","8vxb6zgp",""," ","null","","","","",""
"","","","call-function","222","628420","0.0-222.0","8vxb6zgp","","","","","","","",""
"null","","","html-keyboard-response","223","629926","0.0-223.0","8vxb6zgp","","<span style=""color:Black; font-size:50px;"">Video 1</span>","null","","","","",""
"null","","","video-keyboard-response","224","633013","0.0-224.0","8vxb6zgp","","","null","","<span style=""color:Black; font-size:50px;"">Casey","Casey","STIM_SET_17/713512.bmp_pp99_L2_V1_veridical_freeview_isoFalse_fps144.mp4",""
"null","","","html-keyboard-response","225","634517","0.0-225.0","8vxb6zgp","","<span style=""color:Black; font-size:50px;"">Video 2</span>","null","","","","",""
"null","","","video-keyboard-response","226","637583","0.0-226.0","8vxb6zgp","","","null","","<span style=""color:Black; font-size:50px;"">Sandy","Sandy","STIM_SET_17/713512.bmp_pp95_L2_V1_veridical_freeview_isoFalse_fps144.mp4",""
"","","","call-function","227","637584","0.0-227.0","8vxb6zgp","","","","","","","",""
"321.71999999997206","","","categorize-html","228","639911","0.0-228.0","8vxb6zgp","","Which video showed <span style=""font-size:30px"">Sandy's</span> attention?","50","","","","","true"
"null","","","html-keyboard-response","229","640413","0.0-229.0","8vxb6zgp",""," ","null","","","","",""
"","","","call-function","230","640413","0.0-230.0","8vxb6zgp","","","","","","","",""
"null","","","html-keyboard-response","231","641919","0.0-231.0","8vxb6zgp","","<span style=""color:Black; font-size:50px;"">Video 1</span>","null","","","","",""
"null","","","video-keyboard-response","232","644986","0.0-232.0","8vxb6zgp","","","null","","<span style=""color:Black; font-size:50px;"">Sandy","Sandy","STIM_SET_17/713017.bmp_pp95_L2_V1_veridical_freeview_isoFalse_fps144.mp4",""
"null","","","html-keyboard-response","233","646491","0.0-233.0","8vxb6zgp","","<span style=""color:Black; font-size:50px;"">Video 2</span>","null","","","","",""
"null","","","video-keyboard-response","234","649591","0.0-234.0","8vxb6zgp","","","null","","<span style=""color:Black; font-size:50px;"">Casey","Casey","STIM_SET_17/713017.bmp_pp99_L2_V1_veridical_freeview_isoFalse_fps144.mp4",""
"","","","call-function","235","649591","0.0-235.0","8vxb6zgp","","","","","","","",""
"890.1949999999488","","","categorize-html","236","652485","0.0-236.0","8vxb6zgp","","Which video showed <span style=""font-size:30px"">Sandy's</span> attention?","49","","","","","true"
"null","","","html-keyboard-response","237","652988","0.0-237.0","8vxb6zgp",""," ","null","","","","",""
"","","","call-function","238","652989","0.0-238.0","8vxb6zgp","","","","","","","",""
"null","","","html-keyboard-response","239","654495","0.0-239.0","8vxb6zgp","","<span style=""color:Black; font-size:50px;"">Video 1</span>","null","","","","",""
"null","","","video-keyboard-response","240","657599","0.0-240.0","8vxb6zgp","","","null","","<span style=""color:Black; font-size:50px;"">Sandy","Sandy","STIM_SET_17/498155.bmp_pp95_L2_V1_veridical_freeview_isoFalse_fps144.mp4",""
"null","","","html-keyboard-response","241","659105","0.0-241.0","8vxb6zgp","","<span style=""color:Black; font-size:50px;"">Video 2</span>","null","","","","",""
"null","","","video-keyboard-response","242","662191","0.0-242.0","8vxb6zgp","","","null","","<span style=""color:Black; font-size:50px;"">Casey","Casey","STIM_SET_17/498155.bmp_pp99_L2_V1_veridical_freeview_isoFalse_fps144.mp4",""
"","","","call-function","243","662192","0.0-243.0","8vxb6zgp","","","","","","","",""
"521.1550000000279","","","categorize-html","244","664720","0.0-244.0","8vxb6zgp","","Which video showed <span style=""font-size:30px"">Sandy's</span> attention?","50","","","","","false"
"null","","","html-keyboard-response","245","665223","0.0-245.0","8vxb6zgp",""," ","null","","","","",""
"","","","call-function","246","665223","0.0-246.0","8vxb6zgp","","","","","","","",""
"null","","","html-keyboard-response","247","666725","0.0-247.0","8vxb6zgp","","<span style=""color:Black; font-size:50px;"">Video 1</span>","null","","","","",""
"null","","","video-keyboard-response","248","669820","0.0-248.0","8vxb6zgp","","","null","","<span style=""color:Black; font-size:50px;"">Casey","Casey","STIM_SET_17/107955.bmp_pp99_L2_V1_veridical_freeview_isoFalse_fps144.mp4",""
"null","","","html-keyboard-response","249","671327","0.0-249.0","8vxb6zgp","","<span style=""color:Black; font-size:50px;"">Video 2</span>","null","","","","",""
"null","","","video-keyboard-response","250","674430","0.0-250.0","8vxb6zgp","","","null","","<span style=""color:Black; font-size:50px;"">Sandy","Sandy","STIM_SET_17/107955.bmp_pp95_L2_V1_veridical_freeview_isoFalse_fps144.mp4",""
"","","","call-function","251","674431","0.0-251.0","8vxb6zgp","","","","","","","",""
"474.86999999999534","","","categorize-html","252","676909","0.0-252.0","8vxb6zgp","","Which video showed <span style=""font-size:30px"">Sandy's</span> attention?","50","","","","","true"
"null","","","html-keyboard-response","253","677410","0.0-253.0","8vxb6zgp",""," ","null","","","","",""
"64485.51000000001","","","instructions","254","741896","0.0-254.0","8vxb6zgp","[{""page_index"":0,""viewing_time"":2683.405000000028},{""page_index"":1,""viewing_time"":61429.984999999986},{""page_index"":2,""viewing_time"":372}]","","","","","","",""
"3842.905000000028","","","instructions","255","745740","0.0-255.0","8vxb6zgp","[{""page_index"":0,""viewing_time"":355.70999999996275},{""page_index"":1,""viewing_time"":2839.8600000001024},{""page_index"":2,""viewing_time"":647.2199999999721}]","","","","","","",""
"","","","call-function","256","745740","0.0-256.0","8vxb6zgp","","","","","","","",""
"null","","","html-keyboard-response","257","747244","0.0-257.0","8vxb6zgp","","<span style=""color:Black; font-size:50px;"">Video 1</span>","null","","","","",""
"null","","","video-keyboard-response","258","750313","0.0-258.0","8vxb6zgp","","","null","","<span style=""color:Black; font-size:50px;"">Sandy","Sandy","STIM_SET_17/713807.bmp_pp95_L2_V1_veridical_freeview_isoFalse_fps144.mp4",""
"null","","","html-keyboard-response","259","751816","0.0-259.0","8vxb6zgp","","<span style=""color:Black; font-size:50px;"">Video 2</span>","null","","","","",""
"null","","","video-keyboard-response","260","754893","0.0-260.0","8vxb6zgp","","","null","","<span style=""color:Black; font-size:50px;"">Casey","Casey","STIM_SET_17/713807.bmp_pp99_L2_V1_veridical_freeview_isoFalse_fps144.mp4",""
"","","","call-function","261","754894","0.0-261.0","8vxb6zgp","","","","","","","",""
"4011.530000000028","","","categorize-html","262","760912","0.0-262.0","8vxb6zgp","","Which video showed <span style=""font-size:30px"">Sandy's</span> attention?","49","","","","","true"
"null","","","html-keyboard-response","263","761414","0.0-263.0","8vxb6zgp",""," ","null","","","","",""
"","","","call-function","264","761414","0.0-264.0","8vxb6zgp","","","","","","","",""
"null","","","html-keyboard-response","265","762919","0.0-265.0","8vxb6zgp","","<span style=""color:Black; font-size:50px;"">Video 1</span>","null","","","","",""
"null","","","video-keyboard-response","266","765995","0.0-266.0","8vxb6zgp","","","null","","<span style=""color:Black; font-size:50px;"">Casey","Casey","STIM_SET_17/1592401.bmp_pp99_L2_V1_veridical_freeview_isoFalse_fps144.mp4",""
"null","","","html-keyboard-response","267","767497","0.0-267.0","8vxb6zgp","","<span style=""color:Black; font-size:50px;"">Video 2</span>","null","","","","",""
"null","","","video-keyboard-response","268","770557","0.0-268.0","8vxb6zgp","","","null","","<span style=""color:Black; font-size:50px;"">Sandy","Sandy","STIM_SET_17/1592401.bmp_pp95_L2_V1_veridical_freeview_isoFalse_fps144.mp4",""
"","","","call-function","269","770558","0.0-269.0","8vxb6zgp","","","","","","","",""
"435.6700000000419","","","categorize-html","270","772996","0.0-270.0","8vxb6zgp","","Which video showed <span style=""font-size:30px"">Sandy's</span> attention?","50","","","","","true"
"null","","","html-keyboard-response","271","773500","0.0-271.0","8vxb6zgp",""," ","null","","","","",""
"","","","call-function","272","773500","0.0-272.0","8vxb6zgp","","","","","","","",""
"null","","","html-keyboard-response","273","775003","0.0-273.0","8vxb6zgp","","<span style=""color:Black; font-size:50px;"">Video 1</span>","null","","","","",""
"null","","","video-keyboard-response","274","778098","0.0-274.0","8vxb6zgp","","","null","","<span style=""color:Black; font-size:50px;"">Casey","Casey","STIM_SET_17/1159392.bmp_pp99_L2_V1_veridical_freeview_isoFalse_fps144.mp4",""
"null","","","html-keyboard-response","275","779600","0.0-275.0","8vxb6zgp","","<span style=""color:Black; font-size:50px;"">Video 2</span>","null","","","","",""
"null","","","video-keyboard-response","276","782690","0.0-276.0","8vxb6zgp","","","null","","<span style=""color:Black; font-size:50px;"">Sandy","Sandy","STIM_SET_17/1159392.bmp_pp95_L2_V1_veridical_freeview_isoFalse_fps144.mp4",""
"","","","call-function","277","782690","0.0-277.0","8vxb6zgp","","","","","","","",""
"351.4650000000838","","","categorize-html","278","785044","0.0-278.0","8vxb6zgp","","Which video showed <span style=""font-size:30px"">Sandy's</span> attention?","50","","","","","true"
"null","","","html-keyboard-response","279","785549","0.0-279.0","8vxb6zgp",""," ","null","","","","",""
"","","","call-function","280","785549","0.0-280.0","8vxb6zgp","","","","","","","",""
"null","","","html-keyboard-response","281","787054","0.0-281.0","8vxb6zgp","","<span style=""color:Black; font-size:50px;"">Video 1</span>","null","","","","",""
"null","","","video-keyboard-response","282","790142","0.0-282.0","8vxb6zgp","","","null","","<span style=""color:Black; font-size:50px;"">Casey","Casey","STIM_SET_17/1593006.bmp_pp99_L2_V1_veridical_freeview_isoFalse_fps144.mp4",""
"null","","","html-keyboard-response","283","791643","0.0-283.0","8vxb6zgp","","<span style=""color:Black; font-size:50px;"">Video 2</span>","null","","","","",""
"null","","","video-keyboard-response","284","794739","0.0-284.0","8vxb6zgp","","","null","","<span style=""color:Black; font-size:50px;"">Sandy","Sandy","STIM_SET_17/1593006.bmp_pp95_L2_V1_veridical_freeview_isoFalse_fps144.mp4",""
"","","","call-function","285","794739","0.0-285.0","8vxb6zgp","","","","","","","",""
"238.6050000000978","","","categorize-html","286","796981","0.0-286.0","8vxb6zgp","","Which video showed <span style=""font-size:30px"">Sandy's</span> attention?","50","","","","","true"
"null","","","html-keyboard-response","287","797488","0.0-287.0","8vxb6zgp",""," ","null","","","","",""
"","","","call-function","288","797488","0.0-288.0","8vxb6zgp","","","","","","","",""
"null","","","html-keyboard-response","289","798993","0.0-289.0","8vxb6zgp","","<span style=""color:Black; font-size:50px;"">Video 1</span>","null","","","","",""
"null","","","video-keyboard-response","290","802078","0.0-290.0","8vxb6zgp","","","null","","<span style=""color:Black; font-size:50px;"">Sandy","Sandy","STIM_SET_17/713513.bmp_pp95_L2_V1_veridical_freeview_isoFalse_fps144.mp4",""
"507.6799999999348","","","html-keyboard-response","291","802587","0.0-291.0","8vxb6zgp","","<span style=""color:Black; font-size:50px;"">Video 2</span>","50","","","","",""
"null","","","video-keyboard-response","292","805675","0.0-292.0","8vxb6zgp","","","null","","<span style=""color:Black; font-size:50px;"">Casey","Casey","STIM_SET_17/713513.bmp_pp99_L2_V1_veridical_freeview_isoFalse_fps144.mp4",""
"","","","call-function","293","805676","0.0-293.0","8vxb6zgp","","","","","","","",""
"293.6700000000419","","","categorize-html","294","807973","0.0-294.0","8vxb6zgp","","Which video showed <span style=""font-size:30px"">Sandy's</span> attention?","49","","","","","true"
"null","","","html-keyboard-response","295","808477","0.0-295.0","8vxb6zgp",""," ","null","","","","",""
"","","","call-function","296","808478","0.0-296.0","8vxb6zgp","","","","","","","",""
"null","","","html-keyboard-response","297","809984","0.0-297.0","8vxb6zgp","","<span style=""color:Black; font-size:50px;"">Video 1</span>","null","","","","",""
"null","","","video-keyboard-response","298","813073","0.0-298.0","8vxb6zgp","","","null","","<span style=""color:Black; font-size:50px;"">Casey","Casey","STIM_SET_17/1592656.bmp_pp99_L2_V1_veridical_freeview_isoFalse_fps144.mp4",""
"null","","","html-keyboard-response","299","814577","0.0-299.0","8vxb6zgp","","<span style=""color:Black; font-size:50px;"">Video 2</span>","null","","","","",""
"null","","","video-keyboard-response","300","817653","0.0-300.0","8vxb6zgp","","","null","","<span style=""color:Black; font-size:50px;"">Sandy","Sandy","STIM_SET_17/1592656.bmp_pp95_L2_V1_veridical_freeview_isoFalse_fps144.mp4",""
"","","","call-function","301","817654","0.0-301.0","8vxb6zgp","","","","","","","",""
"492.4100000000326","","","categorize-html","302","820152","0.0-302.0","8vxb6zgp","","Which video showed <span style=""font-size:30px"">Sandy's</span> attention?","50","","","","","true"
"null","","","html-keyboard-response","303","820656","0.0-303.0","8vxb6zgp",""," ","null","","","","",""
"","","","call-function","304","820657","0.0-304.0","8vxb6zgp","","","","","","","",""
"null","","","html-keyboard-response","305","822162","0.0-305.0","8vxb6zgp","","<span style=""color:Black; font-size:50px;"">Video 1</span>","null","","","","",""
"null","","","video-keyboard-response","306","825222","0.0-306.0","8vxb6zgp","","","null","","<span style=""color:Black; font-size:50px;"">Sandy","Sandy","STIM_SET_17/61514.bmp_pp95_L2_V1_veridical_freeview_isoFalse_fps144.mp4",""
"null","","","html-keyboard-response","307","826725","0.0-307.0","8vxb6zgp","","<span style=""color:Black; font-size:50px;"">Video 2</span>","null","","","","",""
"null","","","video-keyboard-response","308","829791","0.0-308.0","8vxb6zgp","","","null","","<span style=""color:Black; font-size:50px;"">Casey","Casey","STIM_SET_17/61514.bmp_pp99_L2_V1_veridical_freeview_isoFalse_fps144.mp4",""
"","","","call-function","309","829792","0.0-309.0","8vxb6zgp","","","","","","","",""
"818.4050000000279","","","categorize-html","310","832618","0.0-310.0","8vxb6zgp","","Which video showed <span style=""font-size:30px"">Sandy's</span> attention?","50","","","","","false"
"null","","","html-keyboard-response","311","833122","0.0-311.0","8vxb6zgp",""," ","null","","","","",""
"","","","call-function","312","833123","0.0-312.0","8vxb6zgp","","","","","","","",""
"null","","","html-keyboard-response","313","834624","0.0-313.0","8vxb6zgp","","<span style=""color:Black; font-size:50px;"">Video 1</span>","null","","","","",""
"null","","","video-keyboard-response","314","837684","0.0-314.0","8vxb6zgp","","","null","","<span style=""color:Black; font-size:50px;"">Sandy","Sandy","STIM_SET_17/1592251.bmp_pp95_L2_V1_veridical_freeview_isoFalse_fps144.mp4",""
"null","","","html-keyboard-response","315","839187","0.0-315.0","8vxb6zgp","","<span style=""color:Black; font-size:50px;"">Video 2</span>","null","","","","",""
"null","","","video-keyboard-response","316","842273","0.0-316.0","8vxb6zgp","","","null","","<span style=""color:Black; font-size:50px;"">Casey","Casey","STIM_SET_17/1592251.bmp_pp99_L2_V1_veridical_freeview_isoFalse_fps144.mp4",""
"","","","call-function","317","842274","0.0-317.0","8vxb6zgp","","","","","","","",""
"1391.9000000000233","","","categorize-html","318","845669","0.0-318.0","8vxb6zgp","","Which video showed <span style=""font-size:30px"">Sandy's</span> attention?","49","","","","","true"
"null","","","html-keyboard-response","319","846173","0.0-319.0","8vxb6zgp",""," ","null","","","","",""
"","","","call-function","320","846173","0.0-320.0","8vxb6zgp","","","","","","","",""
"null","","","html-keyboard-response","321","847679","0.0-321.0","8vxb6zgp","","<span style=""color:Black; font-size:50px;"">Video 1</span>","null","","","","",""
"null","","","video-keyboard-response","322","850786","0.0-322.0","8vxb6zgp","","","null","","<span style=""color:Black; font-size:50px;"">Casey","Casey","STIM_SET_17/713749.bmp_pp99_L2_V1_veridical_freeview_isoFalse_fps144.mp4",""
"null","","","html-keyboard-response","323","852291","0.0-323.0","8vxb6zgp","","<span style=""color:Black; font-size:50px;"">Video 2</span>","null","","","","",""
"null","","","video-keyboard-response","324","855383","0.0-324.0","8vxb6zgp","","","null","","<span style=""color:Black; font-size:50px;"">Sandy","Sandy","STIM_SET_17/713749.bmp_pp95_L2_V1_veridical_freeview_isoFalse_fps144.mp4",""
"","","","call-function","325","855384","0.0-325.0","8vxb6zgp","","","","","","","",""
"554.2750000000233","","","categorize-html","326","857942","0.0-326.0","8vxb6zgp","","Which video showed <span style=""font-size:30px"">Sandy's</span> attention?","50","","","","","true"
"null","","","html-keyboard-response","327","858448","0.0-327.0","8vxb6zgp",""," ","null","","","","",""
"","","","call-function","328","858449","0.0-328.0","8vxb6zgp","","","","","","","",""
"null","","","html-keyboard-response","329","859950","0.0-329.0","8vxb6zgp","","<span style=""color:Black; font-size:50px;"">Video 1</span>","null","","","","",""
"null","","","video-keyboard-response","330","863051","0.0-330.0","8vxb6zgp","","","null","","<span style=""color:Black; font-size:50px;"">Casey","Casey","STIM_SET_17/713380.bmp_pp99_L2_V1_veridical_freeview_isoFalse_fps144.mp4",""
"null","","","html-keyboard-response","331","864554","0.0-331.0","8vxb6zgp","","<span style=""color:Black; font-size:50px;"">Video 2</span>","null","","","","",""
"null","","","video-keyboard-response","332","867657","0.0-332.0","8vxb6zgp","","","null","","<span style=""color:Black; font-size:50px;"">Sandy","Sandy","STIM_SET_17/713380.bmp_pp95_L2_V1_veridical_freeview_isoFalse_fps144.mp4",""
"","","","call-function","333","867657","0.0-333.0","8vxb6zgp","","","","","","","",""
"424.2299999999814","","","categorize-html","334","870086","0.0-334.0","8vxb6zgp","","Which video showed <span style=""font-size:30px"">Sandy's</span> attention?","50","","","","","true"
"null","","","html-keyboard-response","335","870588","0.0-335.0","8vxb6zgp",""," ","null","","","","",""
"4217.430000000051","","","instructions","336","874806","0.0-336.0","8vxb6zgp","[{""page_index"":0,""viewing_time"":3168.390000000014},{""page_index"":1,""viewing_time"":68.35999999998603},{""page_index"":2,""viewing_time"":980.5650000000605}]","","","","","","",""
"2096.774999999907","","","instructions","337","876904","0.0-337.0","8vxb6zgp","[{""page_index"":0,""viewing_time"":1047.6449999999022},{""page_index"":1,""viewing_time"":584.0200000000186},{""page_index"":2,""viewing_time"":464.94000000006054}]","","","","","","",""
"","","","call-function","338","876904","0.0-338.0","8vxb6zgp","","","","","","","",""
"null","","","html-keyboard-response","339","878407","0.0-339.0","8vxb6zgp","","<span style=""color:Black; font-size:50px;"">Video 1</span>","null","","","","",""
"null","","","video-keyboard-response","340","881476","0.0-340.0","8vxb6zgp","","","null","","<span style=""color:Black; font-size:50px;"">Sandy","Sandy","STIM_SET_17/1592362.bmp_pp95_L2_V1_veridical_freeview_isoFalse_fps144.mp4",""
"null","","","html-keyboard-response","341","882979","0.0-341.0","8vxb6zgp","","<span style=""color:Black; font-size:50px;"">Video 2</span>","null","","","","",""
"null","","","video-keyboard-response","342","886081","0.0-342.0","8vxb6zgp","","","null","","<span style=""color:Black; font-size:50px;"">Casey","Casey","STIM_SET_17/1592362.bmp_pp99_L2_V1_veridical_freeview_isoFalse_fps144.mp4",""
"","","","call-function","343","886082","0.0-343.0","8vxb6zgp","","","","","","","",""
"679.5799999999581","","","categorize-html","344","888766","0.0-344.0","8vxb6zgp","","Which video showed <span style=""font-size:30px"">Sandy's</span> attention?","50","","","","","false"
"null","","","html-keyboard-response","345","889268","0.0-345.0","8vxb6zgp",""," ","null","","","","",""
"","","","call-function","346","889269","0.0-346.0","8vxb6zgp","","","","","","","",""
"null","","","html-keyboard-response","347","890773","0.0-347.0","8vxb6zgp","","<span style=""color:Black; font-size:50px;"">Video 1</span>","null","","","","",""
"null","","","video-keyboard-response","348","893842","0.0-348.0","8vxb6zgp","","","null","","<span style=""color:Black; font-size:50px;"">Sandy","Sandy","STIM_SET_17/1592747.bmp_pp95_L2_V1_veridical_freeview_isoFalse_fps144.mp4",""
"null","","","html-keyboard-response","349","895344","0.0-349.0","8vxb6zgp","","<span style=""color:Black; font-size:50px;"">Video 2</span>","null","","","","",""
"null","","","video-keyboard-response","350","898429","0.0-350.0","8vxb6zgp","","","null","","<span style=""color:Black; font-size:50px;"">Casey","Casey","STIM_SET_17/1592747.bmp_pp99_L2_V1_veridical_freeview_isoFalse_fps144.mp4",""
"","","","call-function","351","898429","0.0-351.0","8vxb6zgp","","","","","","","",""
"1276.344999999972","","","categorize-html","352","901711","0.0-352.0","8vxb6zgp","","Which video showed <span style=""font-size:30px"">Sandy's</span> attention?","49","","","","","true"
"null","","","html-keyboard-response","353","902217","0.0-353.0","8vxb6zgp",""," ","null","","","","",""
"","","","call-function","354","902218","0.0-354.0","8vxb6zgp","","","","","","","",""
"null","","","html-keyboard-response","355","903720","0.0-355.0","8vxb6zgp","","<span style=""color:Black; font-size:50px;"">Video 1</span>","null","","","","",""
"null","","","video-keyboard-response","356","906794","0.0-356.0","8vxb6zgp","","","null","","<span style=""color:Black; font-size:50px;"">Casey","Casey","STIM_SET_17/1159575.bmp_pp99_L2_V1_veridical_freeview_isoFalse_fps144.mp4",""
"null","","","html-keyboard-response","357","908301","0.0-357.0","8vxb6zgp","","<span style=""color:Black; font-size:50px;"">Video 2</span>","null","","","","",""
"null","","","video-keyboard-response","358","911396","0.0-358.0","8vxb6zgp","","","null","","<span style=""color:Black; font-size:50px;"">Sandy","Sandy","STIM_SET_17/1159575.bmp_pp95_L2_V1_veridical_freeview_isoFalse_fps144.mp4",""
"","","","call-function","359","911396","0.0-359.0","8vxb6zgp","","","","","","","",""
"541.25","","","categorize-html","360","913944","0.0-360.0","8vxb6zgp","","Which video showed <span style=""font-size:30px"">Sandy's</span> attention?","50","","","","","true"
"null","","","html-keyboard-response","361","914447","0.0-361.0","8vxb6zgp",""," ","null","","","","",""
"","","","call-function","362","914448","0.0-362.0","8vxb6zgp","","","","","","","",""
"null","","","html-keyboard-response","363","915954","0.0-363.0","8vxb6zgp","","<span style=""color:Black; font-size:50px;"">Video 1</span>","null","","","","",""
"null","","","video-keyboard-response","364","919045","0.0-364.0","8vxb6zgp","","","null","","<span style=""color:Black; font-size:50px;"">Casey","Casey","STIM_SET_17/1592033.bmp_pp99_L2_V1_veridical_freeview_isoFalse_fps144.mp4",""
"null","","","html-keyboard-response","365","920549","0.0-365.0","8vxb6zgp","","<span style=""color:Black; font-size:50px;"">Video 2</span>","null","","","","",""
"null","","","video-keyboard-response","366","923641","0.0-366.0","8vxb6zgp","","","null","","<span style=""color:Black; font-size:50px;"">Sandy","Sandy","STIM_SET_17/1592033.bmp_pp95_L2_V1_veridical_freeview_isoFalse_fps144.mp4",""
"","","","call-function","367","923641","0.0-367.0","8vxb6zgp","","","","","","","",""
"312.6149999999907","","","categorize-html","368","925959","0.0-368.0","8vxb6zgp","","Which video showed <span style=""font-size:30px"">Sandy's</span> attention?","50","","","","","true"
"null","","","html-keyboard-response","369","926463","0.0-369.0","8vxb6zgp",""," ","null","","","","",""
"","","","call-function","370","926464","0.0-370.0","8vxb6zgp","","","","","","","",""
"null","","","html-keyboard-response","371","927967","0.0-371.0","8vxb6zgp","","<span style=""color:Black; font-size:50px;"">Video 1</span>","null","","","","",""
"null","","","video-keyboard-response","372","931076","0.0-372.0","8vxb6zgp","","","null","","<span style=""color:Black; font-size:50px;"">Casey","Casey","STIM_SET_17/498272.bmp_pp99_L2_V1_veridical_freeview_isoFalse_fps144.mp4",""
"null","","","html-keyboard-response","373","932581","0.0-373.0","8vxb6zgp","","<span style=""color:Black; font-size:50px;"">Video 2</span>","null","","","","",""
"null","","","video-keyboard-response","374","935677","0.0-374.0","8vxb6zgp","","","null","","<span style=""color:Black; font-size:50px;"">Sandy","Sandy","STIM_SET_17/498272.bmp_pp95_L2_V1_veridical_freeview_isoFalse_fps144.mp4",""
"","","","call-function","375","935677","0.0-375.0","8vxb6zgp","","","","","","","",""
"332.42499999993015","","","categorize-html","376","938015","0.0-376.0","8vxb6zgp","","Which video showed <span style=""font-size:30px"">Sandy's</span> attention?","50","","","","","true"
"null","","","html-keyboard-response","377","938519","0.0-377.0","8vxb6zgp",""," ","null","","","","",""
"","","","call-function","378","938520","0.0-378.0","8vxb6zgp","","","","","","","",""
"null","","","html-keyboard-response","379","940022","0.0-379.0","8vxb6zgp","","<span style=""color:Black; font-size:50px;"">Video 1</span>","null","","","","",""
"null","","","video-keyboard-response","380","943121","0.0-380.0","8vxb6zgp","","","null","","<span style=""color:Black; font-size:50px;"">Sandy","Sandy","STIM_SET_17/713681.bmp_pp95_L2_V1_veridical_freeview_isoFalse_fps144.mp4",""
"null","","","html-keyboard-response","381","944623","0.0-381.0","8vxb6zgp","","<span style=""color:Black; font-size:50px;"">Video 2</span>","null","","","","",""
"null","","","video-keyboard-response","382","947689","0.0-382.0","8vxb6zgp","","","null","","<span style=""color:Black; font-size:50px;"">Casey","Casey","STIM_SET_17/713681.bmp_pp99_L2_V1_veridical_freeview_isoFalse_fps144.mp4",""
"","","","call-function","383","947689","0.0-383.0","8vxb6zgp","","","","","","","",""
"888.5","","","categorize-html","384","950582","0.0-384.0","8vxb6zgp","","Which video showed <span style=""font-size:30px"">Sandy's</span> attention?","49","","","","","true"
"null","","","html-keyboard-response","385","951084","0.0-385.0","8vxb6zgp",""," ","null","","","","",""
"","","","call-function","386","951085","0.0-386.0","8vxb6zgp","","","","","","","",""
"null","","","html-keyboard-response","387","952591","0.0-387.0","8vxb6zgp","","<span style=""color:Black; font-size:50px;"">Video 1</span>","null","","","","",""
"null","","","video-keyboard-response","388","955697","0.0-388.0","8vxb6zgp","","","null","","<span style=""color:Black; font-size:50px;"">Casey","Casey","STIM_SET_17/1160127.bmp_pp99_L2_V1_veridical_freeview_isoFalse_fps144.mp4",""
"null","","","html-keyboard-response","389","957200","0.0-389.0","8vxb6zgp","","<span style=""color:Black; font-size:50px;"">Video 2</span>","null","","","","",""
"null","","","video-keyboard-response","390","960267","0.0-390.0","8vxb6zgp","","","null","","<span style=""color:Black; font-size:50px;"">Sandy","Sandy","STIM_SET_17/1160127.bmp_pp95_L2_V1_veridical_freeview_isoFalse_fps144.mp4",""
"","","","call-function","391","960267","0.0-391.0","8vxb6zgp","","","","","","","",""
"406.84499999997206","","","categorize-html","392","962676","0.0-392.0","8vxb6zgp","","Which video showed <span style=""font-size:30px"">Sandy's</span> attention?","50","","","","","true"
"null","","","html-keyboard-response","393","963181","0.0-393.0","8vxb6zgp",""," ","null","","","","",""
"","","","call-function","394","963181","0.0-394.0","8vxb6zgp","","","","","","","",""
"null","","","html-keyboard-response","395","964685","0.0-395.0","8vxb6zgp","","<span style=""color:Black; font-size:50px;"">Video 1</span>","null","","","","",""
"null","","","video-keyboard-response","396","967744","0.0-396.0","8vxb6zgp","","","null","","<span style=""color:Black; font-size:50px;"">Casey","Casey","STIM_SET_17/498149.bmp_pp99_L2_V1_veridical_freeview_isoFalse_fps144.mp4",""
"null","","","html-keyboard-response","397","969250","0.0-397.0","8vxb6zgp","","<span style=""color:Black; font-size:50px;"">Video 2</span>","null","","","","",""
"null","","","video-keyboard-response","398","972319","0.0-398.0","8vxb6zgp","","","null","","<span style=""color:Black; font-size:50px;"">Sandy","Sandy","STIM_SET_17/498149.bmp_pp95_L2_V1_veridical_freeview_isoFalse_fps144.mp4",""
"","","","call-function","399","972320","0.0-399.0","8vxb6zgp","","","","","","","",""
"442.1699999999255","","","categorize-html","400","974767","0.0-400.0","8vxb6zgp","","Which video showed <span style=""font-size:30px"">Sandy's</span> attention?","50","","","","","true"
"null","","","html-keyboard-response","401","975271","0.0-401.0","8vxb6zgp",""," ","null","","","","",""
"","","","call-function","402","975271","0.0-402.0","8vxb6zgp","","","","","","","",""
"null","","","html-keyboard-response","403","976778","0.0-403.0","8vxb6zgp","","<span style=""color:Black; font-size:50px;"">Video 1</span>","null","","","","",""
"null","","","video-keyboard-response","404","979879","0.0-404.0","8vxb6zgp","","","null","","<span style=""color:Black; font-size:50px;"">Sandy","Sandy","STIM_SET_17/498281.bmp_pp95_L2_V1_veridical_freeview_isoFalse_fps144.mp4",""
"null","","","html-keyboard-response","405","981380","0.0-405.0","8vxb6zgp","","<span style=""color:Black; font-size:50px;"">Video 2</span>","null","","","","",""
"null","","","video-keyboard-response","406","984482","0.0-406.0","8vxb6zgp","","","null","","<span style=""color:Black; font-size:50px;"">Casey","Casey","STIM_SET_17/498281.bmp_pp99_L2_V1_veridical_freeview_isoFalse_fps144.mp4",""
"","","","call-function","407","984482","0.0-407.0","8vxb6zgp","","","","","","","",""
"439.7950000000419","","","categorize-html","408","986924","0.0-408.0","8vxb6zgp","","Which video showed <span style=""font-size:30px"">Sandy's</span> attention?","49","","","","","true"
"null","","","html-keyboard-response","409","987430","0.0-409.0","8vxb6zgp",""," ","null","","","","",""
"","","","call-function","410","987430","0.0-410.0","8vxb6zgp","","","","","","","",""
"null","","","html-keyboard-response","411","988935","0.0-411.0","8vxb6zgp","","<span style=""color:Black; font-size:50px;"">Video 1</span>","null","","","","",""
"null","","","video-keyboard-response","412","992047","0.0-412.0","8vxb6zgp","","","null","","<span style=""color:Black; font-size:50px;"">Casey","Casey","STIM_SET_17/1591961.bmp_pp99_L2_V1_veridical_freeview_isoFalse_fps144.mp4",""
"null","","","html-keyboard-response","413","993553","0.0-413.0","8vxb6zgp","","<span style=""color:Black; font-size:50px;"">Video 2</span>","null","","","","",""
"null","","","video-keyboard-response","414","996648","0.0-414.0","8vxb6zgp","","","null","","<span style=""color:Black; font-size:50px;"">Sandy","Sandy","STIM_SET_17/1591961.bmp_pp95_L2_V1_veridical_freeview_isoFalse_fps144.mp4",""
"","","","call-function","415","996648","0.0-415.0","8vxb6zgp","","","","","","","",""
"2329.569999999949","","","categorize-html","416","1000981","0.0-416.0","8vxb6zgp","","Which video showed <span style=""font-size:30px"">Sandy's</span> attention?","50","","","","","true"
"null","","","html-keyboard-response","417","1001485","0.0-417.0","8vxb6zgp",""," ","null","","","","",""
"65454.165000000154","","","instructions","418","1066939","0.0-418.0","8vxb6zgp","[{""page_index"":0,""viewing_time"":65116.96499999997},{""page_index"":1,""viewing_time"":165.6500000001397},{""page_index"":2,""viewing_time"":171.44499999983236}]","","","","","","",""
"1476.8500000000931","","","instructions","419","1068417","0.0-419.0","8vxb6zgp","[{""page_index"":0,""viewing_time"":458.69999999995343},{""page_index"":1,""viewing_time"":440.1400000001304},{""page_index"":2,""viewing_time"":577.9099999999162}]","","","","","","",""
"","","","call-function","420","1068417","0.0-420.0","8vxb6zgp","","","","","","","",""
"null","","","html-keyboard-response","421","1069919","0.0-421.0","8vxb6zgp","","<span style=""color:Black; font-size:50px;"">Video 1</span>","null","","","","",""
"null","","","video-keyboard-response","422","1072986","0.0-422.0","8vxb6zgp","","","null","","<span style=""color:Black; font-size:50px;"">Sandy","Sandy","STIM_SET_17/1592567.bmp_pp95_L2_V1_veridical_freeview_isoFalse_fps144.mp4",""
"null","","","html-keyboard-response","423","1074493","0.0-423.0","8vxb6zgp","","<span style=""color:Black; font-size:50px;"">Video 2</span>","null","","","","",""
"null","","","video-keyboard-response","424","1077555","0.0-424.0","8vxb6zgp","","","null","","<span style=""color:Black; font-size:50px;"">Casey","Casey","STIM_SET_17/1592567.bmp_pp99_L2_V1_veridical_freeview_isoFalse_fps144.mp4",""
"","","","call-function","425","1077555","0.0-425.0","8vxb6zgp","","","","","","","",""
"166.6799999999348","","","categorize-html","426","1079728","0.0-426.0","8vxb6zgp","","Which video showed <span style=""font-size:30px"">Sandy's</span> attention?","49","","","","","true"
"null","","","html-keyboard-response","427","1080230","0.0-427.0","8vxb6zgp",""," ","null","","","","",""
"","","","call-function","428","1080230","0.0-428.0","8vxb6zgp","","","","","","","",""
"null","","","html-keyboard-response","429","1081732","0.0-429.0","8vxb6zgp","","<span style=""color:Black; font-size:50px;"">Video 1</span>","null","","","","",""
"null","","","video-keyboard-response","430","1084792","0.0-430.0","8vxb6zgp","","","null","","<span style=""color:Black; font-size:50px;"">Casey","Casey","STIM_SET_17/150374.bmp_pp99_L2_V1_veridical_freeview_isoFalse_fps144.mp4",""
"null","","","html-keyboard-response","431","1086298","0.0-431.0","8vxb6zgp","","<span style=""color:Black; font-size:50px;"">Video 2</span>","null","","","","",""
"null","","","video-keyboard-response","432","1089367","0.0-432.0","8vxb6zgp","","","null","","<span style=""color:Black; font-size:50px;"">Sandy","Sandy","STIM_SET_17/150374.bmp_pp95_L2_V1_veridical_freeview_isoFalse_fps144.mp4",""
"","","","call-function","433","1089367","0.0-433.0","8vxb6zgp","","","","","","","",""
"274.8100000000559","","","categorize-html","434","1091647","0.0-434.0","8vxb6zgp","","Which video showed <span style=""font-size:30px"">Sandy's</span> attention?","50","","","","","true"
"null","","","html-keyboard-response","435","1092149","0.0-435.0","8vxb6zgp",""," ","null","","","","",""
"","","","call-function","436","1092150","0.0-436.0","8vxb6zgp","","","","","","","",""
"null","","","html-keyboard-response","437","1093654","0.0-437.0","8vxb6zgp","","<span style=""color:Black; font-size:50px;"">Video 1</span>","null","","","","",""
"null","","","video-keyboard-response","438","1096759","0.0-438.0","8vxb6zgp","","","null","","<span style=""color:Black; font-size:50px;"">Sandy","Sandy","STIM_SET_17/1159329.bmp_pp95_L2_V1_veridical_freeview_isoFalse_fps144.mp4",""
"null","","","html-keyboard-response","439","1098263","0.0-439.0","8vxb6zgp","","<span style=""color:Black; font-size:50px;"">Video 2</span>","null","","","","",""
"null","","","video-keyboard-response","440","1101360","0.0-440.0","8vxb6zgp","","","null","","<span style=""color:Black; font-size:50px;"">Casey","Casey","STIM_SET_17/1159329.bmp_pp99_L2_V1_veridical_freeview_isoFalse_fps144.mp4",""
"","","","call-function","441","1101360","0.0-441.0","8vxb6zgp","","","","","","","",""
"1417.4300000001676","","","categorize-html","442","1104784","0.0-442.0","8vxb6zgp","","Which video showed <span style=""font-size:30px"">Sandy's</span> attention?","49","","","","","true"
"null","","","html-keyboard-response","443","1105286","0.0-443.0","8vxb6zgp",""," ","null","","","","",""
"","","","call-function","444","1105286","0.0-444.0","8vxb6zgp","","","","","","","",""
"null","","","html-keyboard-response","445","1106792","0.0-445.0","8vxb6zgp","","<span style=""color:Black; font-size:50px;"">Video 1</span>","null","","","","",""
"null","","","video-keyboard-response","446","1109888","0.0-446.0","8vxb6zgp","","","null","","<span style=""color:Black; font-size:50px;"">Sandy","Sandy","STIM_SET_17/1592890.bmp_pp95_L2_V1_veridical_freeview_isoFalse_fps144.mp4",""
"null","","","html-keyboard-response","447","1111393","0.0-447.0","8vxb6zgp","","<span style=""color:Black; font-size:50px;"">Video 2</span>","null","","","","",""
"null","","","video-keyboard-response","448","1114497","0.0-448.0","8vxb6zgp","","","null","","<span style=""color:Black; font-size:50px;"">Casey","Casey","STIM_SET_17/1592890.bmp_pp99_L2_V1_veridical_freeview_isoFalse_fps144.mp4",""
"","","","call-function","449","1114497","0.0-449.0","8vxb6zgp","","","","","","","",""
"240.9899999999907","","","categorize-html","450","1116740","0.0-450.0","8vxb6zgp","","Which video showed <span style=""font-size:30px"">Sandy's</span> attention?","49","","","","","true"
"null","","","html-keyboard-response","451","1117243","0.0-451.0","8vxb6zgp",""," ","null","","","","",""
"","","","call-function","452","1117243","0.0-452.0","8vxb6zgp","","","","","","","",""
"null","","","html-keyboard-response","453","1118749","0.0-453.0","8vxb6zgp","","<span style=""color:Black; font-size:50px;"">Video 1</span>","null","","","","",""
"null","","","video-keyboard-response","454","1121861","0.0-454.0","8vxb6zgp","","","null","","<span style=""color:Black; font-size:50px;"">Casey","Casey","STIM_SET_17/713142.bmp_pp99_L2_V1_veridical_freeview_isoFalse_fps144.mp4",""
"null","","","html-keyboard-response","455","1123367","0.0-455.0","8vxb6zgp","","<span style=""color:Black; font-size:50px;"">Video 2</span>","null","","","","",""
"null","","","video-keyboard-response","456","1126469","0.0-456.0","8vxb6zgp","","","null","","<span style=""color:Black; font-size:50px;"">Sandy","Sandy","STIM_SET_17/713142.bmp_pp95_L2_V1_veridical_freeview_isoFalse_fps144.mp4",""
"","","","call-function","457","1126469","0.0-457.0","8vxb6zgp","","","","","","","",""
"265.45999999996275","","","categorize-html","458","1128738","0.0-458.0","8vxb6zgp","","Which video showed <span style=""font-size:30px"">Sandy's</span> attention?","50","","","","","true"
"null","","","html-keyboard-response","459","1129244","0.0-459.0","8vxb6zgp",""," ","null","","","","",""
"","","","call-function","460","1129245","0.0-460.0","8vxb6zgp","","","","","","","",""
"null","","","html-keyboard-response","461","1130749","0.0-461.0","8vxb6zgp","","<span style=""color:Black; font-size:50px;"">Video 1</span>","null","","","","",""
"null","","","video-keyboard-response","462","1133846","0.0-462.0","8vxb6zgp","","","null","","<span style=""color:Black; font-size:50px;"">Casey","Casey","STIM_SET_17/498396.bmp_pp99_L2_V1_veridical_freeview_isoFalse_fps144.mp4",""
"null","","","html-keyboard-response","463","1135350","0.0-463.0","8vxb6zgp","","<span style=""color:Black; font-size:50px;"">Video 2</span>","null","","","","",""
"null","","","video-keyboard-response","464","1138418","0.0-464.0","8vxb6zgp","","","null","","<span style=""color:Black; font-size:50px;"">Sandy","Sandy","STIM_SET_17/498396.bmp_pp95_L2_V1_veridical_freeview_isoFalse_fps144.mp4",""
"","","","call-function","465","1138419","0.0-465.0","8vxb6zgp","","","","","","","",""
"0.35499999998137355","","","categorize-html","466","1140422","0.0-466.0","8vxb6zgp","","Which video showed <span style=""font-size:30px"">Sandy's</span> attention?","50","","","","","true"
"null","","","html-keyboard-response","467","1140926","0.0-467.0","8vxb6zgp",""," ","null","","","","",""
"","","","call-function","468","1140926","0.0-468.0","8vxb6zgp","","","","","","","",""
"null","","","html-keyboard-response","469","1142429","0.0-469.0","8vxb6zgp","","<span style=""color:Black; font-size:50px;"">Video 1</span>","null","","","","",""
"null","","","video-keyboard-response","470","1145495","0.0-470.0","8vxb6zgp","","","null","","<span style=""color:Black; font-size:50px;"">Casey","Casey","STIM_SET_17/107909.bmp_pp99_L2_V1_veridical_freeview_isoFalse_fps144.mp4",""
"null","","","html-keyboard-response","471","1146999","0.0-471.0","8vxb6zgp","","<span style=""color:Black; font-size:50px;"">Video 2</span>","null","","","","",""
"null","","","video-keyboard-response","472","1150073","0.0-472.0","8vxb6zgp","","","null","","<span style=""color:Black; font-size:50px;"">Sandy","Sandy","STIM_SET_17/107909.bmp_pp95_L2_V1_veridical_freeview_isoFalse_fps144.mp4",""
"","","","call-function","473","1150074","0.0-473.0","8vxb6zgp","","","","","","","",""
"133.1950000000652","","","categorize-html","474","1152209","0.0-474.0","8vxb6zgp","","Which video showed <span style=""font-size:30px"">Sandy's</span> attention?","50","","","","","true"
"null","","","html-keyboard-response","475","1152711","0.0-475.0","8vxb6zgp",""," ","null","","","","",""
"","","","call-function","476","1152711","0.0-476.0","8vxb6zgp","","","","","","","",""
"null","","","html-keyboard-response","477","1154213","0.0-477.0","8vxb6zgp","","<span style=""color:Black; font-size:50px;"">Video 1</span>","null","","","","",""
"null","","","video-keyboard-response","478","1157291","0.0-478.0","8vxb6zgp","","","null","","<span style=""color:Black; font-size:50px;"">Sandy","Sandy","STIM_SET_17/1160168.bmp_pp95_L2_V1_veridical_freeview_isoFalse_fps144.mp4",""
"null","","","html-keyboard-response","479","1158796","0.0-479.0","8vxb6zgp","","<span style=""color:Black; font-size:50px;"">Video 2</span>","null","","","","",""
"null","","","video-keyboard-response","480","1161899","0.0-480.0","8vxb6zgp","","","null","","<span style=""color:Black; font-size:50px;"">Casey","Casey","STIM_SET_17/1160168.bmp_pp99_L2_V1_veridical_freeview_isoFalse_fps144.mp4",""
"","","","call-function","481","1161900","0.0-481.0","8vxb6zgp","","","","","","","",""
"1310.3850000000093","","","categorize-html","482","1165216","0.0-482.0","8vxb6zgp","","Which video showed <span style=""font-size:30px"">Sandy's</span> attention?","49","","","","","true"
"null","","","html-keyboard-response","483","1165719","0.0-483.0","8vxb6zgp",""," ","null","","","","",""
"","","","call-function","484","1165720","0.0-484.0","8vxb6zgp","","","","","","","",""
"null","","","html-keyboard-response","485","1167221","0.0-485.0","8vxb6zgp","","<span style=""color:Black; font-size:50px;"">Video 1</span>","null","","","","",""
"null","","","video-keyboard-response","486","1170331","0.0-486.0","8vxb6zgp","","","null","","<span style=""color:Black; font-size:50px;"">Casey","Casey","STIM_SET_17/1160093.bmp_pp99_L2_V1_veridical_freeview_isoFalse_fps144.mp4",""
"null","","","html-keyboard-response","487","1171833","0.0-487.0","8vxb6zgp","","<span style=""color:Black; font-size:50px;"">Video 2</span>","null","","","","",""
"null","","","video-keyboard-response","488","1174940","0.0-488.0","8vxb6zgp","","","null","","<span style=""color:Black; font-size:50px;"">Sandy","Sandy","STIM_SET_17/1160093.bmp_pp95_L2_V1_veridical_freeview_isoFalse_fps144.mp4",""
"","","","call-function","489","1174940","0.0-489.0","8vxb6zgp","","","","","","","",""
"269.81500000017695","","","categorize-html","490","1177216","0.0-490.0","8vxb6zgp","","Which video showed <span style=""font-size:30px"">Sandy's</span> attention?","50","","","","","true"
"null","","","html-keyboard-response","491","1177721","0.0-491.0","8vxb6zgp",""," ","null","","","","",""
"","","","call-function","492","1177721","0.0-492.0","8vxb6zgp","","","","","","","",""
"null","","","html-keyboard-response","493","1179226","0.0-493.0","8vxb6zgp","","<span style=""color:Black; font-size:50px;"">Video 1</span>","null","","","","",""
"null","","","video-keyboard-response","494","1182337","0.0-494.0","8vxb6zgp","","","null","","<span style=""color:Black; font-size:50px;"">Sandy","Sandy","STIM_SET_17/1159897.bmp_pp95_L2_V1_veridical_freeview_isoFalse_fps144.mp4",""
"null","","","html-keyboard-response","495","1183839","0.0-495.0","8vxb6zgp","","<span style=""color:Black; font-size:50px;"">Video 2</span>","null","","","","",""
"null","","","video-keyboard-response","496","1186938","0.0-496.0","8vxb6zgp","","","null","","<span style=""color:Black; font-size:50px;"">Casey","Casey","STIM_SET_17/1159897.bmp_pp99_L2_V1_veridical_freeview_isoFalse_fps144.mp4",""
"","","","call-function","497","1186938","0.0-497.0","8vxb6zgp","","","","","","","",""
"496.14999999990687","","","categorize-html","498","1189437","0.0-498.0","8vxb6zgp","","Which video showed <span style=""font-size:30px"">Sandy's</span> attention?","49","","","","","true"
"null","","","html-keyboard-response","499","1189940","0.0-499.0","8vxb6zgp",""," ","null","","","","",""
"4354.675000000047","","","instructions","500","1194295","0.0-500.0","8vxb6zgp","[{""page_index"":0,""viewing_time"":3619.005000000121},{""page_index"":1,""viewing_time"":423.2249999998603},{""page_index"":2,""viewing_time"":312.3300000000745}]","","","","","","",""
"1159.5250000001397","","","instructions","501","1195455","0.0-501.0","8vxb6zgp","[{""page_index"":0,""viewing_time"":340.1500000001397},{""page_index"":1,""viewing_time"":401.0999999998603},{""page_index"":2,""viewing_time"":418.16500000003725}]","","","","","","",""
"","","","call-function","502","1195456","0.0-502.0","8vxb6zgp","","","","","","","",""
"null","","","html-keyboard-response","503","1196957","0.0-503.0","8vxb6zgp","","<span style=""color:Black; font-size:50px;"">Video 1</span>","null","","","","",""
"null","","","video-keyboard-response","504","1200050","0.0-504.0","8vxb6zgp","","","null","","<span style=""color:Black; font-size:50px;"">Casey","Casey","STIM_SET_17/285946.bmp_pp99_L2_V1_veridical_freeview_isoFalse_fps144.mp4",""
"null","","","html-keyboard-response","505","1201553","0.0-505.0","8vxb6zgp","","<span style=""color:Black; font-size:50px;"">Video 2</span>","null","","","","",""
"null","","","video-keyboard-response","506","1204639","0.0-506.0","8vxb6zgp","","","null","","<span style=""color:Black; font-size:50px;"">Sandy","Sandy","STIM_SET_17/285946.bmp_pp95_L2_V1_veridical_freeview_isoFalse_fps144.mp4",""
"","","","call-function","507","1204640","0.0-507.0","8vxb6zgp","","","","","","","",""
"38.29000000003725","","","categorize-html","508","1206682","0.0-508.0","8vxb6zgp","","Which video showed <span style=""font-size:30px"">Sandy's</span> attention?","50","","","","","true"
"null","","","html-keyboard-response","509","1207188","0.0-509.0","8vxb6zgp",""," ","null","","","","",""
"","","","call-function","510","1207188","0.0-510.0","8vxb6zgp","","","","","","","",""
"null","","","html-keyboard-response","511","1208694","0.0-511.0","8vxb6zgp","","<span style=""color:Black; font-size:50px;"">Video 1</span>","null","","","","",""
"null","","","video-keyboard-response","512","1211768","0.0-512.0","8vxb6zgp","","","null","","<span style=""color:Black; font-size:50px;"">Sandy","Sandy","STIM_SET_17/1592038.bmp_pp95_L2_V1_veridical_freeview_isoFalse_fps144.mp4",""
"null","","","html-keyboard-response","513","1213271","0.0-513.0","8vxb6zgp","","<span style=""color:Black; font-size:50px;"">Video 2</span>","null","","","","",""
"null","","","video-keyboard-response","514","1216346","0.0-514.0","8vxb6zgp","","","null","","<span style=""color:Black; font-size:50px;"">Casey","Casey","STIM_SET_17/1592038.bmp_pp99_L2_V1_veridical_freeview_isoFalse_fps144.mp4",""
"","","","call-function","515","1216346","0.0-515.0","8vxb6zgp","","","","","","","",""
"80.27000000001863","","","categorize-html","516","1218430","0.0-516.0","8vxb6zgp","","Which video showed <span style=""font-size:30px"">Sandy's</span> attention?","49","","","","","true"
"null","","","html-keyboard-response","517","1218932","0.0-517.0","8vxb6zgp",""," ","null","","","","",""
"","","","call-function","518","1218933","0.0-518.0","8vxb6zgp","","","","","","","",""
"null","","","html-keyboard-response","519","1220436","0.0-519.0","8vxb6zgp","","<span style=""color:Black; font-size:50px;"">Video 1</span>","null","","","","",""
"null","","","video-keyboard-response","520","1223511","0.0-520.0","8vxb6zgp","","","null","","<span style=""color:Black; font-size:50px;"">Sandy","Sandy","STIM_SET_17/713585.bmp_pp95_L2_V1_veridical_freeview_isoFalse_fps144.mp4",""
"null","","","html-keyboard-response","521","1225015","0.0-521.0","8vxb6zgp","","<span style=""color:Black; font-size:50px;"">Video 2</span>","null","","","","",""
"null","","","video-keyboard-response","522","1228108","0.0-522.0","8vxb6zgp","","","null","","<span style=""color:Black; font-size:50px;"">Casey","Casey","STIM_SET_17/713585.bmp_pp99_L2_V1_veridical_freeview_isoFalse_fps144.mp4",""
"","","","call-function","523","1228108","0.0-523.0","8vxb6zgp","","","","","","","",""
"397.66500000003725","","","categorize-html","524","1230512","0.0-524.0","8vxb6zgp","","Which video showed <span style=""font-size:30px"">Sandy's</span> attention?","49","","","","","true"
"null","","","html-keyboard-response","525","1231018","0.0-525.0","8vxb6zgp",""," ","null","","","","",""
"","","","call-function","526","1231018","0.0-526.0","8vxb6zgp","","","","","","","",""
"null","","","html-keyboard-response","527","1232521","0.0-527.0","8vxb6zgp","","<span style=""color:Black; font-size:50px;"">Video 1</span>","null","","","","",""
"null","","","video-keyboard-response","528","1235610","0.0-528.0","8vxb6zgp","","","null","","<span style=""color:Black; font-size:50px;"">Casey","Casey","STIM_SET_17/1592620.bmp_pp99_L2_V1_veridical_freeview_isoFalse_fps144.mp4",""
"null","","","html-keyboard-response","529","1237115","0.0-529.0","8vxb6zgp","","<span style=""color:Black; font-size:50px;"">Video 2</span>","null","","","","",""
"null","","","video-keyboard-response","530","1240215","0.0-530.0","8vxb6zgp","","","null","","<span style=""color:Black; font-size:50px;"">Sandy","Sandy","STIM_SET_17/1592620.bmp_pp95_L2_V1_veridical_freeview_isoFalse_fps144.mp4",""
"","","","call-function","531","1240215","0.0-531.0","8vxb6zgp","","","","","","","",""
"43.139999999897555","","","categorize-html","532","1242260","0.0-532.0","8vxb6zgp","","Which video showed <span style=""font-size:30px"">Sandy's</span> attention?","50","","","","","true"
"null","","","html-keyboard-response","533","1242763","0.0-533.0","8vxb6zgp",""," ","null","","","","",""
"","","","call-function","534","1242764","0.0-534.0","8vxb6zgp","","","","","","","",""
"null","","","html-keyboard-response","535","1244268","0.0-535.0","8vxb6zgp","","<span style=""color:Black; font-size:50px;"">Video 1</span>","null","","","","",""
"null","","","video-keyboard-response","536","1247368","0.0-536.0","8vxb6zgp","","","null","","<span style=""color:Black; font-size:50px;"">Sandy","Sandy","STIM_SET_17/1591954.bmp_pp95_L2_V1_veridical_freeview_isoFalse_fps144.mp4",""
"null","","","html-keyboard-response","537","1248874","0.0-537.0","8vxb6zgp","","<span style=""color:Black; font-size:50px;"">Video 2</span>","null","","","","",""
"null","","","video-keyboard-response","538","1252005","0.0-538.0","8vxb6zgp","","","null","","<span style=""color:Black; font-size:50px;"">Casey","Casey","STIM_SET_17/1591954.bmp_pp99_L2_V1_veridical_freeview_isoFalse_fps144.mp4",""
"","","","call-function","539","1252005","0.0-539.0","8vxb6zgp","","","","","","","",""
"965.2950000001583","","","categorize-html","540","1254976","0.0-540.0","8vxb6zgp","","Which video showed <span style=""font-size:30px"">Sandy's</span> attention?","49","","","","","true"
"null","","","html-keyboard-response","541","1255479","0.0-541.0","8vxb6zgp",""," ","null","","","","",""
"","","","call-function","542","1255479","0.0-542.0","8vxb6zgp","","","","","","","",""
"null","","","html-keyboard-response","543","1256983","0.0-543.0","8vxb6zgp","","<span style=""color:Black; font-size:50px;"">Video 1</span>","null","","","","",""
"null","","","video-keyboard-response","544","1260069","0.0-544.0","8vxb6zgp","","","null","","<span style=""color:Black; font-size:50px;"">Sandy","Sandy","STIM_SET_17/150458.bmp_pp95_L2_V1_veridical_freeview_isoFalse_fps144.mp4",""
"null","","","html-keyboard-response","545","1261574","0.0-545.0","8vxb6zgp","","<span style=""color:Black; font-size:50px;"">Video 2</span>","null","","","","",""
"null","","","video-keyboard-response","546","1264679","0.0-546.0","8vxb6zgp","","","null","","<span style=""color:Black; font-size:50px;"">Casey","Casey","STIM_SET_17/150458.bmp_pp99_L2_V1_veridical_freeview_isoFalse_fps144.mp4",""
"","","","call-function","547","1264679","0.0-547.0","8vxb6zgp","","","","","","","",""
"263.71999999997206","","","categorize-html","548","1266949","0.0-548.0","8vxb6zgp","","Which video showed <span style=""font-size:30px"">Sandy's</span> attention?","49","","","","","true"
"null","","","html-keyboard-response","549","1267450","0.0-549.0","8vxb6zgp",""," ","null","","","","",""
"","","","call-function","550","1267450","0.0-550.0","8vxb6zgp","","","","","","","",""
"null","","","html-keyboard-response","551","1268952","0.0-551.0","8vxb6zgp","","<span style=""color:Black; font-size:50px;"">Video 1</span>","null","","","","",""
"null","","","video-keyboard-response","552","1272019","0.0-552.0","8vxb6zgp","","","null","","<span style=""color:Black; font-size:50px;"">Sandy","Sandy","STIM_SET_17/713381.bmp_pp95_L2_V1_veridical_freeview_isoFalse_fps144.mp4",""
"null","","","html-keyboard-response","553","1273526","0.0-553.0","8vxb6zgp","","<span style=""color:Black; font-size:50px;"">Video 2</span>","null","","","","",""
"null","","","video-keyboard-response","554","1276594","0.0-554.0","8vxb6zgp","","","null","","<span style=""color:Black; font-size:50px;"">Casey","Casey","STIM_SET_17/713381.bmp_pp99_L2_V1_veridical_freeview_isoFalse_fps144.mp4",""
"","","","call-function","555","1276595","0.0-555.0","8vxb6zgp","","","","","","","",""
"375.714999999851","","","categorize-html","556","1278974","0.0-556.0","8vxb6zgp","","Which video showed <span style=""font-size:30px"">Sandy's</span> attention?","49","","","","","true"
"null","","","html-keyboard-response","557","1279476","0.0-557.0","8vxb6zgp",""," ","null","","","","",""
"","","","call-function","558","1279477","0.0-558.0","8vxb6zgp","","","","","","","",""
"null","","","html-keyboard-response","559","1280982","0.0-559.0","8vxb6zgp","","<span style=""color:Black; font-size:50px;"">Video 1</span>","null","","","","",""
"null","","","video-keyboard-response","560","1284043","0.0-560.0","8vxb6zgp","","","null","","<span style=""color:Black; font-size:50px;"">Sandy","Sandy","STIM_SET_17/498221.bmp_pp95_L2_V1_veridical_freeview_isoFalse_fps144.mp4",""
"null","","","html-keyboard-response","561","1285547","0.0-561.0","8vxb6zgp","","<span style=""color:Black; font-size:50px;"">Video 2</span>","null","","","","",""
"null","","","video-keyboard-response","562","1288622","0.0-562.0","8vxb6zgp","","","null","","<span style=""color:Black; font-size:50px;"">Casey","Casey","STIM_SET_17/498221.bmp_pp99_L2_V1_veridical_freeview_isoFalse_fps144.mp4",""
"","","","call-function","563","1288623","0.0-563.0","8vxb6zgp","","","","","","","",""
"227.4899999999907","","","categorize-html","564","1290852","0.0-564.0","8vxb6zgp","","Which video showed <span style=""font-size:30px"">Sandy's</span> attention?","50","","","","","false"
"null","","","html-keyboard-response","565","1291356","0.0-565.0","8vxb6zgp",""," ","null","","","","",""
"","","","call-function","566","1291357","0.0-566.0","8vxb6zgp","","","","","","","",""
"null","","","html-keyboard-response","567","1292860","0.0-567.0","8vxb6zgp","","<span style=""color:Black; font-size:50px;"">Video 1</span>","null","","","","",""
"null","","","video-keyboard-response","568","1295948","0.0-568.0","8vxb6zgp","","","null","","<span style=""color:Black; font-size:50px;"">Sandy","Sandy","STIM_SET_17/1159775.bmp_pp95_L2_V1_veridical_freeview_isoFalse_fps144.mp4",""
"null","","","html-keyboard-response","569","1297454","0.0-569.0","8vxb6zgp","","<span style=""color:Black; font-size:50px;"">Video 2</span>","null","","","","",""
"null","","","video-keyboard-response","570","1300542","0.0-570.0","8vxb6zgp","","","null","","<span style=""color:Black; font-size:50px;"">Casey","Casey","STIM_SET_17/1159775.bmp_pp99_L2_V1_veridical_freeview_isoFalse_fps144.mp4",""
"","","","call-function","571","1300543","0.0-571.0","8vxb6zgp","","","","","","","",""
"167.39500000001863","","","categorize-html","572","1302716","0.0-572.0","8vxb6zgp","","Which video showed <span style=""font-size:30px"">Sandy's</span> attention?","49","","","","","true"
"null","","","html-keyboard-response","573","1303219","0.0-573.0","8vxb6zgp",""," ","null","","","","",""
"","","","call-function","574","1303220","0.0-574.0","8vxb6zgp","","","","","","","",""
"null","","","html-keyboard-response","575","1304724","0.0-575.0","8vxb6zgp","","<span style=""color:Black; font-size:50px;"">Video 1</span>","null","","","","",""
"null","","","video-keyboard-response","576","1307823","0.0-576.0","8vxb6zgp","","","null","","<span style=""color:Black; font-size:50px;"">Casey","Casey","STIM_SET_17/1159397.bmp_pp99_L2_V1_veridical_freeview_isoFalse_fps144.mp4",""
"null","","","html-keyboard-response","577","1309327","0.0-577.0","8vxb6zgp","","<span style=""color:Black; font-size:50px;"">Video 2</span>","null","","","","",""
"null","","","video-keyboard-response","578","1312429","0.0-578.0","8vxb6zgp","","","null","","<span style=""color:Black; font-size:50px;"">Sandy","Sandy","STIM_SET_17/1159397.bmp_pp95_L2_V1_veridical_freeview_isoFalse_fps144.mp4",""
"","","","call-function","579","1312429","0.0-579.0","8vxb6zgp","","","","","","","",""
"965.4050000000279","","","categorize-html","580","1315397","0.0-580.0","8vxb6zgp","","Which video showed <span style=""font-size:30px"">Sandy's</span> attention?","50","","","","","true"
"null","","","html-keyboard-response","581","1315904","0.0-581.0","8vxb6zgp",""," ","null","","","","",""
"2749.1650000000373","","","instructions","582","1318654","0.0-582.0","8vxb6zgp","[{""page_index"":0,""viewing_time"":2749.0500000000466}]","","","","","","",""
"959.934999999823","","","instructions","583","1319614","0.0-583.0","8vxb6zgp","[{""page_index"":0,""viewing_time"":959.8249999999534}]","","","","","","",""
"44161.544999999925","{""Q0"":""Interesting to see differences in attention pattern between Sandy and Casey""}","","survey-text","584","1363783","0.0-584.0","8vxb6zgp","","","","","","","",""
"56907.435000000056","{""Q0"":""In most examples, the differences between the two attention patterns are obvious, making it easy to judge correctly\n""}","","survey-text","585","1420695","0.0-585.0","8vxb6zgp","","","","","","","",""
"24569.330000000075","{""Q0"":""Occasionally I couldn't really tell the differences between the two attention patterns""}","","survey-text","586","1445267","0.0-586.0","8vxb6zgp","","","","","","","",""
"1064.5500000000466","","","instructions","587","1446332","0.0-587.0","8vxb6zgp","[{""page_index"":0,""viewing_time"":1064.3400000000838}]","","","","","","",""
"155675.47499999986","{""Experimenter_end"":[""Printed ID# 8vxb6zgp on consent form"",""Given subject SONA credit or payment"",""Given the subject debrief form""]}","[0]","survey-multi-select","588","1602010","0.0-588.0","8vxb6zgp","","","","","","","",""
