"rt","responses","question_order","trial_type","trial_index","time_elapsed","internal_node_id","ID","view_history","stimulus","key_press","value","agent","condition","image","correct"
"13646.664999999999","{""Experimenter"":[""Confirmed subject's identity (ID card)"",""Confirmed normal or corrected-to-normal vision"",""Obtained consent (signature and date)"",""Checked the test room lighting"",""Checked computer screen lighting"",""Checked distance from screen to chin rest (50cm)"",""Cleaned and adjusted chin rest"",""Counterbalanced the order of the tasks"",""Opened the experiment in Firefox"",""Made the experiment full screen"",""Encouraged subject to silence phone, put away distractors, etc.""]}","[0]","survey-multi-select","0","13655","0.0-0.0","h0bgkvns","","","","","","","",""
"110695.48","","","instructions","1","124352","0.0-1.0","h0bgkvns","[{""page_index"":0,""viewing_time"":110695.325}]","","","","","","",""
"11337.149999999994","{""Age"":2,""Sex"":1,""Gender"":1}","[0,1,2]","survey-likert","2","135692","0.0-2.0","h0bgkvns","","","","","","","",""
"1389.8699999999953","","","instructions","3","137083","0.0-3.0","h0bgkvns","[{""page_index"":0,""viewing_time"":1389.7649999999849}]","","","","","","",""
"13133.76999999999","","","instructions","4","150217","0.0-4.0","h0bgkvns","[{""page_index"":0,""viewing_time"":1164.5999999999767},{""page_index"":1,""viewing_time"":5676.915000000008},{""page_index"":2,""viewing_time"":6292.135000000009}]","","","","","","",""
"1794.7399999999907","","","instructions","5","152012","0.0-5.0","h0bgkvns","[{""page_index"":0,""viewing_time"":1794.6350000000093}]","","","","","","",""
"null","","","video-keyboard-response","6","155086","0.0-6.0","h0bgkvns","","","null","","","","",""
"29270.315000000002","","","instructions","7","184357","0.0-7.0","h0bgkvns","[{""page_index"":0,""viewing_time"":2621.2699999999895},{""page_index"":1,""viewing_time"":1943.0299999999988},{""page_index"":2,""viewing_time"":817.9150000000081},{""page_index"":3,""viewing_time"":9667.910000000003},{""page_index"":4,""viewing_time"":2824.070000000007},{""page_index"":5,""viewing_time"":4598.084999999992},{""page_index"":6,""viewing_time"":4292.8949999999895},{""page_index"":7,""viewing_time"":2505.015000000014}]","","","","","","",""
"4767.195000000007","","","instructions","8","189124","0.0-8.0","h0bgkvns","[{""page_index"":0,""viewing_time"":4766.8949999999895}]","","","","","","",""
"1210.8849999999802","","","instructions","9","190336","0.0-9.0","h0bgkvns","[{""page_index"":0,""viewing_time"":1210.7749999999942}]","","","","","","",""
"","","","call-function","10","190336","0.0-10.0","h0bgkvns","","","","","","","",""
"null","","","html-keyboard-response","11","191841","0.0-11.0","h0bgkvns","","<span style=""color:Black; font-size:50px;"">Video 1</span>","null","","","","",""
"null","","","video-keyboard-response","12","194931","0.0-12.0","h0bgkvns","","","null","","<span style=""color:Black; font-size:50px;"">Sandy","Sandy","STIM_SET_18/1159870.bmp_pp65_L3_V1_veridical_freeview_isoFalse_fps144.mp4",""
"null","","","html-keyboard-response","13","196437","0.0-13.0","h0bgkvns","","<span style=""color:Black; font-size:50px;"">Video 2</span>","null","","","","",""
"null","","","video-keyboard-response","14","199500","0.0-14.0","h0bgkvns","","","null","","<span style=""color:Black; font-size:50px;"">Casey","Casey","STIM_SET_18/1159870.bmp_pp59_L3_V1_veridical_freeview_isoFalse_fps144.mp4",""
"","","","call-function","15","199500","0.0-15.0","h0bgkvns","","","","","","","",""
"1430.960000000021","","","categorize-html","16","202938","0.0-16.0","h0bgkvns","","Which video showed <span style=""font-size:30px"">Sandy's</span> attention?","49","","","","","true"
"null","","","html-keyboard-response","17","203444","0.0-17.0","h0bgkvns",""," ","null","","","","",""
"","","","call-function","18","203444","0.0-18.0","h0bgkvns","","","","","","","",""
"null","","","html-keyboard-response","19","204946","0.0-19.0","h0bgkvns","","<span style=""color:Black; font-size:50px;"">Video 1</span>","null","","","","",""
"null","","","video-keyboard-response","20","208013","0.0-20.0","h0bgkvns","","","null","","<span style=""color:Black; font-size:50px;"">Casey","Casey","STIM_SET_18/1592971.bmp_pp59_L3_V1_veridical_freeview_isoFalse_fps144.mp4",""
"null","","","html-keyboard-response","21","209521","0.0-21.0","h0bgkvns","","<span style=""color:Black; font-size:50px;"">Video 2</span>","null","","","","",""
"null","","","video-keyboard-response","22","212610","0.0-22.0","h0bgkvns","","","null","","<span style=""color:Black; font-size:50px;"">Sandy","Sandy","STIM_SET_18/1592971.bmp_pp65_L3_V1_veridical_freeview_isoFalse_fps144.mp4",""
"","","","call-function","23","212610","0.0-23.0","h0bgkvns","","","","","","","",""
"711.6150000000198","","","categorize-html","24","215326","0.0-24.0","h0bgkvns","","Which video showed <span style=""font-size:30px"">Sandy's</span> attention?","50","","","","","true"
"null","","","html-keyboard-response","25","215832","0.0-25.0","h0bgkvns",""," ","null","","","","",""
"","","","call-function","26","215832","0.0-26.0","h0bgkvns","","","","","","","",""
"null","","","html-keyboard-response","27","217339","0.0-27.0","h0bgkvns","","<span style=""color:Black; font-size:50px;"">Video 1</span>","null","","","","",""
"null","","","video-keyboard-response","28","220425","0.0-28.0","h0bgkvns","","","null","","<span style=""color:Black; font-size:50px;"">Casey","Casey","STIM_SET_18/713689.bmp_pp59_L3_V1_veridical_freeview_isoFalse_fps144.mp4",""
"null","","","html-keyboard-response","29","221928","0.0-29.0","h0bgkvns","","<span style=""color:Black; font-size:50px;"">Video 2</span>","null","","","","",""
"null","","","video-keyboard-response","30","225033","0.0-30.0","h0bgkvns","","","null","","<span style=""color:Black; font-size:50px;"">Sandy","Sandy","STIM_SET_18/713689.bmp_pp65_L3_V1_veridical_freeview_isoFalse_fps144.mp4",""
"","","","call-function","31","225034","0.0-31.0","h0bgkvns","","","","","","","",""
"488.554999999993","","","categorize-html","32","227526","0.0-32.0","h0bgkvns","","Which video showed <span style=""font-size:30px"">Sandy's</span> attention?","50","","","","","true"
"null","","","html-keyboard-response","33","228030","0.0-33.0","h0bgkvns",""," ","null","","","","",""
"","","","call-function","34","228030","0.0-34.0","h0bgkvns","","","","","","","",""
"null","","","html-keyboard-response","35","229533","0.0-35.0","h0bgkvns","","<span style=""color:Black; font-size:50px;"">Video 1</span>","null","","","","",""
"null","","","video-keyboard-response","36","232640","0.0-36.0","h0bgkvns","","","null","","<span style=""color:Black; font-size:50px;"">Casey","Casey","STIM_SET_18/1592397.bmp_pp59_L3_V1_veridical_freeview_isoFalse_fps144.mp4",""
"null","","","html-keyboard-response","37","234144","0.0-37.0","h0bgkvns","","<span style=""color:Black; font-size:50px;"">Video 2</span>","null","","","","",""
"null","","","video-keyboard-response","38","237229","0.0-38.0","h0bgkvns","","","null","","<span style=""color:Black; font-size:50px;"">Sandy","Sandy","STIM_SET_18/1592397.bmp_pp65_L3_V1_veridical_freeview_isoFalse_fps144.mp4",""
"","","","call-function","39","237230","0.0-39.0","h0bgkvns","","","","","","","",""
"420.40499999999884","","","categorize-html","40","239655","0.0-40.0","h0bgkvns","","Which video showed <span style=""font-size:30px"">Sandy's</span> attention?","49","","","","","false"
"null","","","html-keyboard-response","41","240158","0.0-41.0","h0bgkvns",""," ","null","","","","",""
"","","","call-function","42","240158","0.0-42.0","h0bgkvns","","","","","","","",""
"null","","","html-keyboard-response","43","241661","0.0-43.0","h0bgkvns","","<span style=""color:Black; font-size:50px;"">Video 1</span>","null","","","","",""
"null","","","video-keyboard-response","44","244764","0.0-44.0","h0bgkvns","","","null","","<span style=""color:Black; font-size:50px;"">Casey","Casey","STIM_SET_18/1592129.bmp_pp59_L3_V1_veridical_freeview_isoFalse_fps144.mp4",""
"null","","","html-keyboard-response","45","246267","0.0-45.0","h0bgkvns","","<span style=""color:Black; font-size:50px;"">Video 2</span>","null","","","","",""
"null","","","video-keyboard-response","46","249381","0.0-46.0","h0bgkvns","","","null","","<span style=""color:Black; font-size:50px;"">Sandy","Sandy","STIM_SET_18/1592129.bmp_pp65_L3_V1_veridical_freeview_isoFalse_fps144.mp4",""
"","","","call-function","47","249381","0.0-47.0","h0bgkvns","","","","","","","",""
"420.8650000000198","","","categorize-html","48","251804","0.0-48.0","h0bgkvns","","Which video showed <span style=""font-size:30px"">Sandy's</span> attention?","49","","","","","false"
"null","","","html-keyboard-response","49","252308","0.0-49.0","h0bgkvns",""," ","null","","","","",""
"","","","call-function","50","252308","0.0-50.0","h0bgkvns","","","","","","","",""
"null","","","html-keyboard-response","51","253810","0.0-51.0","h0bgkvns","","<span style=""color:Black; font-size:50px;"">Video 1</span>","null","","","","",""
"null","","","video-keyboard-response","52","256914","0.0-52.0","h0bgkvns","","","null","","<span style=""color:Black; font-size:50px;"">Casey","Casey","STIM_SET_18/286034.bmp_pp59_L3_V1_veridical_freeview_isoFalse_fps144.mp4",""
"null","","","html-keyboard-response","53","258418","0.0-53.0","h0bgkvns","","<span style=""color:Black; font-size:50px;"">Video 2</span>","null","","","","",""
"null","","","video-keyboard-response","54","261497","0.0-54.0","h0bgkvns","","","null","","<span style=""color:Black; font-size:50px;"">Sandy","Sandy","STIM_SET_18/286034.bmp_pp65_L3_V1_veridical_freeview_isoFalse_fps144.mp4",""
"","","","call-function","55","261497","0.0-55.0","h0bgkvns","","","","","","","",""
"505.0250000000233","","","categorize-html","56","264006","0.0-56.0","h0bgkvns","","Which video showed <span style=""font-size:30px"">Sandy's</span> attention?","49","","","","","false"
"null","","","html-keyboard-response","57","264511","0.0-57.0","h0bgkvns",""," ","null","","","","",""
"","","","call-function","58","264511","0.0-58.0","h0bgkvns","","","","","","","",""
"null","","","html-keyboard-response","59","266017","0.0-59.0","h0bgkvns","","<span style=""color:Black; font-size:50px;"">Video 1</span>","null","","","","",""
"null","","","video-keyboard-response","60","269102","0.0-60.0","h0bgkvns","","","null","","<span style=""color:Black; font-size:50px;"">Sandy","Sandy","STIM_SET_18/1159293.bmp_pp65_L3_V1_veridical_freeview_isoFalse_fps144.mp4",""
"null","","","html-keyboard-response","61","270604","0.0-61.0","h0bgkvns","","<span style=""color:Black; font-size:50px;"">Video 2</span>","null","","","","",""
"null","","","video-keyboard-response","62","273662","0.0-62.0","h0bgkvns","","","null","","<span style=""color:Black; font-size:50px;"">Casey","Casey","STIM_SET_18/1159293.bmp_pp59_L3_V1_veridical_freeview_isoFalse_fps144.mp4",""
"","","","call-function","63","273663","0.0-63.0","h0bgkvns","","","","","","","",""
"475.52999999996973","","","categorize-html","64","276142","0.0-64.0","h0bgkvns","","Which video showed <span style=""font-size:30px"">Sandy's</span> attention?","49","","","","","true"
"null","","","html-keyboard-response","65","276645","0.0-65.0","h0bgkvns",""," ","null","","","","",""
"","","","call-function","66","276645","0.0-66.0","h0bgkvns","","","","","","","",""
"null","","","html-keyboard-response","67","278147","0.0-67.0","h0bgkvns","","<span style=""color:Black; font-size:50px;"">Video 1</span>","null","","","","",""
"null","","","video-keyboard-response","68","281267","0.0-68.0","h0bgkvns","","","null","","<span style=""color:Black; font-size:50px;"">Sandy","Sandy","STIM_SET_18/1160152.bmp_pp65_L3_V1_veridical_freeview_isoFalse_fps144.mp4",""
"null","","","html-keyboard-response","69","282774","0.0-69.0","h0bgkvns","","<span style=""color:Black; font-size:50px;"">Video 2</span>","null","","","","",""
"null","","","video-keyboard-response","70","285856","0.0-70.0","h0bgkvns","","","null","","<span style=""color:Black; font-size:50px;"">Casey","Casey","STIM_SET_18/1160152.bmp_pp59_L3_V1_veridical_freeview_isoFalse_fps144.mp4",""
"","","","call-function","71","285856","0.0-71.0","h0bgkvns","","","","","","","",""
"458.26500000001397","","","categorize-html","72","288317","0.0-72.0","h0bgkvns","","Which video showed <span style=""font-size:30px"">Sandy's</span> attention?","49","","","","","true"
"null","","","html-keyboard-response","73","288818","0.0-73.0","h0bgkvns",""," ","null","","","","",""
"","","","call-function","74","288818","0.0-74.0","h0bgkvns","","","","","","","",""
"null","","","html-keyboard-response","75","290322","0.0-75.0","h0bgkvns","","<span style=""color:Black; font-size:50px;"">Video 1</span>","null","","","","",""
"null","","","video-keyboard-response","76","293427","0.0-76.0","h0bgkvns","","","null","","<span style=""color:Black; font-size:50px;"">Sandy","Sandy","STIM_SET_18/1591920.bmp_pp65_L3_V1_veridical_freeview_isoFalse_fps144.mp4",""
"null","","","html-keyboard-response","77","294931","0.0-77.0","h0bgkvns","","<span style=""color:Black; font-size:50px;"">Video 2</span>","null","","","","",""
"null","","","video-keyboard-response","78","298029","0.0-78.0","h0bgkvns","","","null","","<span style=""color:Black; font-size:50px;"">Casey","Casey","STIM_SET_18/1591920.bmp_pp59_L3_V1_veridical_freeview_isoFalse_fps144.mp4",""
"","","","call-function","79","298029","0.0-79.0","h0bgkvns","","","","","","","",""
"421.1599999999744","","","categorize-html","80","300453","0.0-80.0","h0bgkvns","","Which video showed <span style=""font-size:30px"">Sandy's</span> attention?","50","","","","","false"
"null","","","html-keyboard-response","81","300957","0.0-81.0","h0bgkvns",""," ","null","","","","",""
"","","","call-function","82","300958","0.0-82.0","h0bgkvns","","","","","","","",""
"null","","","html-keyboard-response","83","302460","0.0-83.0","h0bgkvns","","<span style=""color:Black; font-size:50px;"">Video 1</span>","null","","","","",""
"null","","","video-keyboard-response","84","305564","0.0-84.0","h0bgkvns","","","null","","<span style=""color:Black; font-size:50px;"">Sandy","Sandy","STIM_SET_18/713620.bmp_pp65_L3_V1_veridical_freeview_isoFalse_fps144.mp4",""
"null","","","html-keyboard-response","85","307070","0.0-85.0","h0bgkvns","","<span style=""color:Black; font-size:50px;"">Video 2</span>","null","","","","",""
"null","","","video-keyboard-response","86","310164","0.0-86.0","h0bgkvns","","","null","","<span style=""color:Black; font-size:50px;"">Casey","Casey","STIM_SET_18/713620.bmp_pp59_L3_V1_veridical_freeview_isoFalse_fps144.mp4",""
"","","","call-function","87","310164","0.0-87.0","h0bgkvns","","","","","","","",""
"1446.070000000007","","","categorize-html","88","313612","0.0-88.0","h0bgkvns","","Which video showed <span style=""font-size:30px"">Sandy's</span> attention?","49","","","","","true"
"null","","","html-keyboard-response","89","314116","0.0-89.0","h0bgkvns",""," ","null","","","","",""
"4414.84500000003","","","instructions","90","318531","0.0-90.0","h0bgkvns","[{""page_index"":0,""viewing_time"":2086.9400000000023},{""page_index"":1,""viewing_time"":1458.859999999986},{""page_index"":2,""viewing_time"":868.9349999999977}]","","","","","","",""
"8601.794999999984","","","instructions","91","327133","0.0-91.0","h0bgkvns","[{""page_index"":0,""viewing_time"":5415.690000000002},{""page_index"":1,""viewing_time"":2197.9799999999814},{""page_index"":2,""viewing_time"":988.0100000000093}]","","","","","","",""
"","","","call-function","92","327133","0.0-92.0","h0bgkvns","","","","","","","",""
"null","","","html-keyboard-response","93","328639","0.0-93.0","h0bgkvns","","<span style=""color:Black; font-size:50px;"">Video 1</span>","null","","","","",""
"null","","","video-keyboard-response","94","331714","0.0-94.0","h0bgkvns","","","null","","<span style=""color:Black; font-size:50px;"">Casey","Casey","STIM_SET_18/713403.bmp_pp59_L3_V1_veridical_freeview_isoFalse_fps144.mp4",""
"null","","","html-keyboard-response","95","333219","0.0-95.0","h0bgkvns","","<span style=""color:Black; font-size:50px;"">Video 2</span>","null","","","","",""
"null","","","video-keyboard-response","96","336285","0.0-96.0","h0bgkvns","","","null","","<span style=""color:Black; font-size:50px;"">Sandy","Sandy","STIM_SET_18/713403.bmp_pp65_L3_V1_veridical_freeview_isoFalse_fps144.mp4",""
"","","","call-function","97","336285","0.0-97.0","h0bgkvns","","","","","","","",""
"1245.2000000000116","","","categorize-html","98","339535","0.0-98.0","h0bgkvns","","Which video showed <span style=""font-size:30px"">Sandy's</span> attention?","49","","","","","false"
"null","","","html-keyboard-response","99","340042","0.0-99.0","h0bgkvns",""," ","null","","","","",""
"","","","call-function","100","340042","0.0-100.0","h0bgkvns","","","","","","","",""
"null","","","html-keyboard-response","101","341546","0.0-101.0","h0bgkvns","","<span style=""color:Black; font-size:50px;"">Video 1</span>","null","","","","",""
"null","","","video-keyboard-response","102","344605","0.0-102.0","h0bgkvns","","","null","","<span style=""color:Black; font-size:50px;"">Casey","Casey","STIM_SET_18/713211.bmp_pp59_L3_V1_veridical_freeview_isoFalse_fps144.mp4",""
"null","","","html-keyboard-response","103","346108","0.0-103.0","h0bgkvns","","<span style=""color:Black; font-size:50px;"">Video 2</span>","null","","","","",""
"null","","","video-keyboard-response","104","349166","0.0-104.0","h0bgkvns","","","null","","<span style=""color:Black; font-size:50px;"">Sandy","Sandy","STIM_SET_18/713211.bmp_pp65_L3_V1_veridical_freeview_isoFalse_fps144.mp4",""
"","","","call-function","105","349166","0.0-105.0","h0bgkvns","","","","","","","",""
"1732.2999999999884","","","categorize-html","106","352902","0.0-106.0","h0bgkvns","","Which video showed <span style=""font-size:30px"">Sandy's</span> attention?","50","","","","","true"
"null","","","html-keyboard-response","107","353406","0.0-107.0","h0bgkvns",""," ","null","","","","",""
"","","","call-function","108","353406","0.0-108.0","h0bgkvns","","","","","","","",""
"null","","","html-keyboard-response","109","354909","0.0-109.0","h0bgkvns","","<span style=""color:Black; font-size:50px;"">Video 1</span>","null","","","","",""
"null","","","video-keyboard-response","110","358006","0.0-110.0","h0bgkvns","","","null","","<span style=""color:Black; font-size:50px;"">Sandy","Sandy","STIM_SET_18/1593058.bmp_pp65_L3_V1_veridical_freeview_isoFalse_fps144.mp4",""
"null","","","html-keyboard-response","111","359512","0.0-111.0","h0bgkvns","","<span style=""color:Black; font-size:50px;"">Video 2</span>","null","","","","",""
"null","","","video-keyboard-response","112","362618","0.0-112.0","h0bgkvns","","","null","","<span style=""color:Black; font-size:50px;"">Casey","Casey","STIM_SET_18/1593058.bmp_pp59_L3_V1_veridical_freeview_isoFalse_fps144.mp4",""
"","","","call-function","113","362618","0.0-113.0","h0bgkvns","","","","","","","",""
"400.23499999998603","","","categorize-html","114","365025","0.0-114.0","h0bgkvns","","Which video showed <span style=""font-size:30px"">Sandy's</span> attention?","50","","","","","false"
"null","","","html-keyboard-response","115","365530","0.0-115.0","h0bgkvns",""," ","null","","","","",""
"","","","call-function","116","365530","0.0-116.0","h0bgkvns","","","","","","","",""
"null","","","html-keyboard-response","117","367032","0.0-117.0","h0bgkvns","","<span style=""color:Black; font-size:50px;"">Video 1</span>","null","","","","",""
"null","","","video-keyboard-response","118","370136","0.0-118.0","h0bgkvns","","","null","","<span style=""color:Black; font-size:50px;"">Casey","Casey","STIM_SET_18/713640.bmp_pp59_L3_V1_veridical_freeview_isoFalse_fps144.mp4",""
"null","","","html-keyboard-response","119","371637","0.0-119.0","h0bgkvns","","<span style=""color:Black; font-size:50px;"">Video 2</span>","null","","","","",""
"null","","","video-keyboard-response","120","374734","0.0-120.0","h0bgkvns","","","null","","<span style=""color:Black; font-size:50px;"">Sandy","Sandy","STIM_SET_18/713640.bmp_pp65_L3_V1_veridical_freeview_isoFalse_fps144.mp4",""
"","","","call-function","121","374734","0.0-121.0","h0bgkvns","","","","","","","",""
"547.7299999999814","","","categorize-html","122","377284","0.0-122.0","h0bgkvns","","Which video showed <span style=""font-size:30px"">Sandy's</span> attention?","50","","","","","true"
"null","","","html-keyboard-response","123","377788","0.0-123.0","h0bgkvns",""," ","null","","","","",""
"","","","call-function","124","377789","0.0-124.0","h0bgkvns","","","","","","","",""
"null","","","html-keyboard-response","125","379291","0.0-125.0","h0bgkvns","","<span style=""color:Black; font-size:50px;"">Video 1</span>","null","","","","",""
"null","","","video-keyboard-response","126","382387","0.0-126.0","h0bgkvns","","","null","","<span style=""color:Black; font-size:50px;"">Sandy","Sandy","STIM_SET_18/150463.bmp_pp65_L3_V1_veridical_freeview_isoFalse_fps144.mp4",""
"null","","","html-keyboard-response","127","383890","0.0-127.0","h0bgkvns","","<span style=""color:Black; font-size:50px;"">Video 2</span>","null","","","","",""
"null","","","video-keyboard-response","128","387009","0.0-128.0","h0bgkvns","","","null","","<span style=""color:Black; font-size:50px;"">Casey","Casey","STIM_SET_18/150463.bmp_pp59_L3_V1_veridical_freeview_isoFalse_fps144.mp4",""
"","","","call-function","129","387010","0.0-129.0","h0bgkvns","","","","","","","",""
"696.5800000000163","","","categorize-html","130","389710","0.0-130.0","h0bgkvns","","Which video showed <span style=""font-size:30px"">Sandy's</span> attention?","50","","","","","false"
"null","","","html-keyboard-response","131","390213","0.0-131.0","h0bgkvns",""," ","null","","","","",""
"","","","call-function","132","390213","0.0-132.0","h0bgkvns","","","","","","","",""
"null","","","html-keyboard-response","133","391717","0.0-133.0","h0bgkvns","","<span style=""color:Black; font-size:50px;"">Video 1</span>","null","","","","",""
"null","","","video-keyboard-response","134","394787","0.0-134.0","h0bgkvns","","","null","","<span style=""color:Black; font-size:50px;"">Sandy","Sandy","STIM_SET_18/1592305.bmp_pp65_L3_V1_veridical_freeview_isoFalse_fps144.mp4",""
"null","","","html-keyboard-response","135","396289","0.0-135.0","h0bgkvns","","<span style=""color:Black; font-size:50px;"">Video 2</span>","null","","","","",""
"null","","","video-keyboard-response","136","399358","0.0-136.0","h0bgkvns","","","null","","<span style=""color:Black; font-size:50px;"">Casey","Casey","STIM_SET_18/1592305.bmp_pp59_L3_V1_veridical_freeview_isoFalse_fps144.mp4",""
"","","","call-function","137","399358","0.0-137.0","h0bgkvns","","","","","","","",""
"476.5999999999767","","","categorize-html","138","401837","0.0-138.0","h0bgkvns","","Which video showed <span style=""font-size:30px"">Sandy's</span> attention?","49","","","","","true"
"null","","","html-keyboard-response","139","402340","0.0-139.0","h0bgkvns",""," ","null","","","","",""
"","","","call-function","140","402341","0.0-140.0","h0bgkvns","","","","","","","",""
"null","","","html-keyboard-response","141","403844","0.0-141.0","h0bgkvns","","<span style=""color:Black; font-size:50px;"">Video 1</span>","null","","","","",""
"null","","","video-keyboard-response","142","406944","0.0-142.0","h0bgkvns","","","null","","<span style=""color:Black; font-size:50px;"">Casey","Casey","STIM_SET_18/1159777.bmp_pp59_L3_V1_veridical_freeview_isoFalse_fps144.mp4",""
"null","","","html-keyboard-response","143","408446","0.0-143.0","h0bgkvns","","<span style=""color:Black; font-size:50px;"">Video 2</span>","null","","","","",""
"null","","","video-keyboard-response","144","411517","0.0-144.0","h0bgkvns","","","null","","<span style=""color:Black; font-size:50px;"">Sandy","Sandy","STIM_SET_18/1159777.bmp_pp65_L3_V1_veridical_freeview_isoFalse_fps144.mp4",""
"","","","call-function","145","411517","0.0-145.0","h0bgkvns","","","","","","","",""
"533.1900000000023","","","categorize-html","146","414053","0.0-146.0","h0bgkvns","","Which video showed <span style=""font-size:30px"">Sandy's</span> attention?","50","","","","","true"
"null","","","html-keyboard-response","147","414556","0.0-147.0","h0bgkvns",""," ","null","","","","",""
"","","","call-function","148","414556","0.0-148.0","h0bgkvns","","","","","","","",""
"null","","","html-keyboard-response","149","416059","0.0-149.0","h0bgkvns","","<span style=""color:Black; font-size:50px;"">Video 1</span>","null","","","","",""
"null","","","video-keyboard-response","150","419131","0.0-150.0","h0bgkvns","","","null","","<span style=""color:Black; font-size:50px;"">Casey","Casey","STIM_SET_18/1592298.bmp_pp59_L3_V1_veridical_freeview_isoFalse_fps144.mp4",""
"null","","","html-keyboard-response","151","420637","0.0-151.0","h0bgkvns","","<span style=""color:Black; font-size:50px;"">Video 2</span>","null","","","","",""
"null","","","video-keyboard-response","152","423734","0.0-152.0","h0bgkvns","","","null","","<span style=""color:Black; font-size:50px;"">Sandy","Sandy","STIM_SET_18/1592298.bmp_pp65_L3_V1_veridical_freeview_isoFalse_fps144.mp4",""
"","","","call-function","153","423735","0.0-153.0","h0bgkvns","","","","","","","",""
"603.875","","","categorize-html","154","426343","0.0-154.0","h0bgkvns","","Which video showed <span style=""font-size:30px"">Sandy's</span> attention?","50","","","","","true"
"null","","","html-keyboard-response","155","426845","0.0-155.0","h0bgkvns",""," ","null","","","","",""
"","","","call-function","156","426845","0.0-156.0","h0bgkvns","","","","","","","",""
"null","","","html-keyboard-response","157","428347","0.0-157.0","h0bgkvns","","<span style=""color:Black; font-size:50px;"">Video 1</span>","null","","","","",""
"null","","","video-keyboard-response","158","431467","0.0-158.0","h0bgkvns","","","null","","<span style=""color:Black; font-size:50px;"">Sandy","Sandy","STIM_SET_18/713392.bmp_pp65_L3_V1_veridical_freeview_isoFalse_fps144.mp4",""
"null","","","html-keyboard-response","159","432968","0.0-159.0","h0bgkvns","","<span style=""color:Black; font-size:50px;"">Video 2</span>","null","","","","",""
"null","","","video-keyboard-response","160","436066","0.0-160.0","h0bgkvns","","","null","","<span style=""color:Black; font-size:50px;"">Casey","Casey","STIM_SET_18/713392.bmp_pp59_L3_V1_veridical_freeview_isoFalse_fps144.mp4",""
"","","","call-function","161","436067","0.0-161.0","h0bgkvns","","","","","","","",""
"511.6000000000349","","","categorize-html","162","438585","0.0-162.0","h0bgkvns","","Which video showed <span style=""font-size:30px"">Sandy's</span> attention?","50","","","","","false"
"null","","","html-keyboard-response","163","439087","0.0-163.0","h0bgkvns",""," ","null","","","","",""
"","","","call-function","164","439087","0.0-164.0","h0bgkvns","","","","","","","",""
"null","","","html-keyboard-response","165","440590","0.0-165.0","h0bgkvns","","<span style=""color:Black; font-size:50px;"">Video 1</span>","null","","","","",""
"null","","","video-keyboard-response","166","443680","0.0-166.0","h0bgkvns","","","null","","<span style=""color:Black; font-size:50px;"">Casey","Casey","STIM_SET_18/1160019.bmp_pp59_L3_V1_veridical_freeview_isoFalse_fps144.mp4",""
"null","","","html-keyboard-response","167","445182","0.0-167.0","h0bgkvns","","<span style=""color:Black; font-size:50px;"">Video 2</span>","null","","","","",""
"null","","","video-keyboard-response","168","448286","0.0-168.0","h0bgkvns","","","null","","<span style=""color:Black; font-size:50px;"">Sandy","Sandy","STIM_SET_18/1160019.bmp_pp65_L3_V1_veridical_freeview_isoFalse_fps144.mp4",""
"","","","call-function","169","448287","0.0-169.0","h0bgkvns","","","","","","","",""
"675.6199999999953","","","categorize-html","170","450967","0.0-170.0","h0bgkvns","","Which video showed <span style=""font-size:30px"">Sandy's</span> attention?","50","","","","","true"
"null","","","html-keyboard-response","171","451468","0.0-171.0","h0bgkvns",""," ","null","","","","",""
"4889.465000000026","","","instructions","172","456358","0.0-172.0","h0bgkvns","[{""page_index"":0,""viewing_time"":1977.390000000014},{""page_index"":1,""viewing_time"":1503.4899999999907},{""page_index"":2,""viewing_time"":1408.4749999999767}]","","","","","","",""
"2636.820000000007","","","instructions","173","458995","0.0-173.0","h0bgkvns","[{""page_index"":0,""viewing_time"":703.5750000000116},{""page_index"":1,""viewing_time"":1282.4249999999884},{""page_index"":2,""viewing_time"":650.6500000000233}]","","","","","","",""
"","","","call-function","174","458996","0.0-174.0","h0bgkvns","","","","","","","",""
"null","","","html-keyboard-response","175","460498","0.0-175.0","h0bgkvns","","<span style=""color:Black; font-size:50px;"">Video 1</span>","null","","","","",""
"null","","","video-keyboard-response","176","463562","0.0-176.0","h0bgkvns","","","null","","<span style=""color:Black; font-size:50px;"">Casey","Casey","STIM_SET_18/1593102.bmp_pp59_L3_V1_veridical_freeview_isoFalse_fps144.mp4",""
"null","","","html-keyboard-response","177","465069","0.0-177.0","h0bgkvns","","<span style=""color:Black; font-size:50px;"">Video 2</span>","null","","","","",""
"null","","","video-keyboard-response","178","468137","0.0-178.0","h0bgkvns","","","null","","<span style=""color:Black; font-size:50px;"">Sandy","Sandy","STIM_SET_18/1593102.bmp_pp65_L3_V1_veridical_freeview_isoFalse_fps144.mp4",""
"","","","call-function","179","468138","0.0-179.0","h0bgkvns","","","","","","","",""
"744.7149999999674","","","categorize-html","180","470889","0.0-180.0","h0bgkvns","","Which video showed <span style=""font-size:30px"">Sandy's</span> attention?","50","","","","","true"
"null","","","html-keyboard-response","181","471395","0.0-181.0","h0bgkvns",""," ","null","","","","",""
"","","","call-function","182","471395","0.0-182.0","h0bgkvns","","","","","","","",""
"null","","","html-keyboard-response","183","472900","0.0-183.0","h0bgkvns","","<span style=""color:Black; font-size:50px;"">Video 1</span>","null","","","","",""
"null","","","video-keyboard-response","184","475979","0.0-184.0","h0bgkvns","","","null","","<span style=""color:Black; font-size:50px;"">Casey","Casey","STIM_SET_18/1592951.bmp_pp59_L3_V1_veridical_freeview_isoFalse_fps144.mp4",""
"null","","","html-keyboard-response","185","477485","0.0-185.0","h0bgkvns","","<span style=""color:Black; font-size:50px;"">Video 2</span>","null","","","","",""
"null","","","video-keyboard-response","186","480594","0.0-186.0","h0bgkvns","","","null","","<span style=""color:Black; font-size:50px;"">Sandy","Sandy","STIM_SET_18/1592951.bmp_pp65_L3_V1_veridical_freeview_isoFalse_fps144.mp4",""
"","","","call-function","187","480594","0.0-187.0","h0bgkvns","","","","","","","",""
"432.10999999998603","","","categorize-html","188","483029","0.0-188.0","h0bgkvns","","Which video showed <span style=""font-size:30px"">Sandy's</span> attention?","50","","","","","true"
"null","","","html-keyboard-response","189","483534","0.0-189.0","h0bgkvns",""," ","null","","","","",""
"","","","call-function","190","483535","0.0-190.0","h0bgkvns","","","","","","","",""
"null","","","html-keyboard-response","191","485038","0.0-191.0","h0bgkvns","","<span style=""color:Black; font-size:50px;"">Video 1</span>","null","","","","",""
"null","","","video-keyboard-response","192","488103","0.0-192.0","h0bgkvns","","","null","","<span style=""color:Black; font-size:50px;"">Sandy","Sandy","STIM_SET_18/1159379.bmp_pp65_L3_V1_veridical_freeview_isoFalse_fps144.mp4",""
"null","","","html-keyboard-response","193","489608","0.0-193.0","h0bgkvns","","<span style=""color:Black; font-size:50px;"">Video 2</span>","null","","","","",""
"null","","","video-keyboard-response","194","492699","0.0-194.0","h0bgkvns","","","null","","<span style=""color:Black; font-size:50px;"">Casey","Casey","STIM_SET_18/1159379.bmp_pp59_L3_V1_veridical_freeview_isoFalse_fps144.mp4",""
"","","","call-function","195","492700","0.0-195.0","h0bgkvns","","","","","","","",""
"566.6550000000279","","","categorize-html","196","495272","0.0-196.0","h0bgkvns","","Which video showed <span style=""font-size:30px"">Sandy's</span> attention?","50","","","","","false"
"null","","","html-keyboard-response","197","495777","0.0-197.0","h0bgkvns",""," ","null","","","","",""
"","","","call-function","198","495777","0.0-198.0","h0bgkvns","","","","","","","",""
"null","","","html-keyboard-response","199","497283","0.0-199.0","h0bgkvns","","<span style=""color:Black; font-size:50px;"">Video 1</span>","null","","","","",""
"null","","","video-keyboard-response","200","500385","0.0-200.0","h0bgkvns","","","null","","<span style=""color:Black; font-size:50px;"">Sandy","Sandy","STIM_SET_18/285896.bmp_pp65_L3_V1_veridical_freeview_isoFalse_fps144.mp4",""
"null","","","html-keyboard-response","201","501886","0.0-201.0","h0bgkvns","","<span style=""color:Black; font-size:50px;"">Video 2</span>","null","","","","",""
"null","","","video-keyboard-response","202","504988","0.0-202.0","h0bgkvns","","","null","","<span style=""color:Black; font-size:50px;"">Casey","Casey","STIM_SET_18/285896.bmp_pp59_L3_V1_veridical_freeview_isoFalse_fps144.mp4",""
"","","","call-function","203","504988","0.0-203.0","h0bgkvns","","","","","","","",""
"350.48499999998603","","","categorize-html","204","507343","0.0-204.0","h0bgkvns","","Which video showed <span style=""font-size:30px"">Sandy's</span> attention?","50","","","","","false"
"null","","","html-keyboard-response","205","507848","0.0-205.0","h0bgkvns",""," ","null","","","","",""
"","","","call-function","206","507848","0.0-206.0","h0bgkvns","","","","","","","",""
"null","","","html-keyboard-response","207","509351","0.0-207.0","h0bgkvns","","<span style=""color:Black; font-size:50px;"">Video 1</span>","null","","","","",""
"null","","","video-keyboard-response","208","512457","0.0-208.0","h0bgkvns","","","null","","<span style=""color:Black; font-size:50px;"">Sandy","Sandy","STIM_SET_18/1159621.bmp_pp65_L3_V1_veridical_freeview_isoFalse_fps144.mp4",""
"null","","","html-keyboard-response","209","513963","0.0-209.0","h0bgkvns","","<span style=""color:Black; font-size:50px;"">Video 2</span>","null","","","","",""
"null","","","video-keyboard-response","210","517058","0.0-210.0","h0bgkvns","","","null","","<span style=""color:Black; font-size:50px;"">Casey","Casey","STIM_SET_18/1159621.bmp_pp59_L3_V1_veridical_freeview_isoFalse_fps144.mp4",""
"","","","call-function","211","517058","0.0-211.0","h0bgkvns","","","","","","","",""
"440.52999999996973","","","categorize-html","212","519505","0.0-212.0","h0bgkvns","","Which video showed <span style=""font-size:30px"">Sandy's</span> attention?","50","","","","","false"
"null","","","html-keyboard-response","213","520007","0.0-213.0","h0bgkvns",""," ","null","","","","",""
"","","","call-function","214","520007","0.0-214.0","h0bgkvns","","","","","","","",""
"null","","","html-keyboard-response","215","521510","0.0-215.0","h0bgkvns","","<span style=""color:Black; font-size:50px;"">Video 1</span>","null","","","","",""
"null","","","video-keyboard-response","216","524639","0.0-216.0","h0bgkvns","","","null","","<span style=""color:Black; font-size:50px;"">Sandy","Sandy","STIM_SET_18/1592727.bmp_pp65_L3_V1_veridical_freeview_isoFalse_fps144.mp4",""
"null","","","html-keyboard-response","217","526141","0.0-217.0","h0bgkvns","","<span style=""color:Black; font-size:50px;"">Video 2</span>","null","","","","",""
"null","","","video-keyboard-response","218","529208","0.0-218.0","h0bgkvns","","","null","","<span style=""color:Black; font-size:50px;"">Casey","Casey","STIM_SET_18/1592727.bmp_pp59_L3_V1_veridical_freeview_isoFalse_fps144.mp4",""
"","","","call-function","219","529209","0.0-219.0","h0bgkvns","","","","","","","",""
"5050.034999999916","","","categorize-html","220","536261","0.0-220.0","h0bgkvns","","Which video showed <span style=""font-size:30px"">Sandy's</span> attention?","50","","","","","false"
"null","","","html-keyboard-response","221","536767","0.0-221.0","h0bgkvns",""," ","null","","","","",""
"","","","call-function","222","536767","0.0-222.0","h0bgkvns","","","","","","","",""
"null","","","html-keyboard-response","223","538274","0.0-223.0","h0bgkvns","","<span style=""color:Black; font-size:50px;"">Video 1</span>","null","","","","",""
"null","","","video-keyboard-response","224","541341","0.0-224.0","h0bgkvns","","","null","","<span style=""color:Black; font-size:50px;"">Sandy","Sandy","STIM_SET_18/713718.bmp_pp65_L3_V1_veridical_freeview_isoFalse_fps144.mp4",""
"null","","","html-keyboard-response","225","542844","0.0-225.0","h0bgkvns","","<span style=""color:Black; font-size:50px;"">Video 2</span>","null","","","","",""
"null","","","video-keyboard-response","226","545904","0.0-226.0","h0bgkvns","","","null","","<span style=""color:Black; font-size:50px;"">Casey","Casey","STIM_SET_18/713718.bmp_pp59_L3_V1_veridical_freeview_isoFalse_fps144.mp4",""
"","","","call-function","227","545905","0.0-227.0","h0bgkvns","","","","","","","",""
"1273.670000000042","","","categorize-html","228","549184","0.0-228.0","h0bgkvns","","Which video showed <span style=""font-size:30px"">Sandy's</span> attention?","50","","","","","false"
"null","","","html-keyboard-response","229","549690","0.0-229.0","h0bgkvns",""," ","null","","","","",""
"","","","call-function","230","549690","0.0-230.0","h0bgkvns","","","","","","","",""
"null","","","html-keyboard-response","231","551195","0.0-231.0","h0bgkvns","","<span style=""color:Black; font-size:50px;"">Video 1</span>","null","","","","",""
"null","","","video-keyboard-response","232","554268","0.0-232.0","h0bgkvns","","","null","","<span style=""color:Black; font-size:50px;"">Sandy","Sandy","STIM_SET_18/498151.bmp_pp65_L3_V1_veridical_freeview_isoFalse_fps144.mp4",""
"null","","","html-keyboard-response","233","555774","0.0-233.0","h0bgkvns","","<span style=""color:Black; font-size:50px;"">Video 2</span>","null","","","","",""
"null","","","video-keyboard-response","234","558876","0.0-234.0","h0bgkvns","","","null","","<span style=""color:Black; font-size:50px;"">Casey","Casey","STIM_SET_18/498151.bmp_pp59_L3_V1_veridical_freeview_isoFalse_fps144.mp4",""
"","","","call-function","235","558876","0.0-235.0","h0bgkvns","","","","","","","",""
"1110.2099999999627","","","categorize-html","236","561993","0.0-236.0","h0bgkvns","","Which video showed <span style=""font-size:30px"">Sandy's</span> attention?","50","","","","","false"
"null","","","html-keyboard-response","237","562496","0.0-237.0","h0bgkvns",""," ","null","","","","",""
"","","","call-function","238","562496","0.0-238.0","h0bgkvns","","","","","","","",""
"null","","","html-keyboard-response","239","564001","0.0-239.0","h0bgkvns","","<span style=""color:Black; font-size:50px;"">Video 1</span>","null","","","","",""
"null","","","video-keyboard-response","240","567091","0.0-240.0","h0bgkvns","","","null","","<span style=""color:Black; font-size:50px;"">Casey","Casey","STIM_SET_18/713089.bmp_pp59_L3_V1_veridical_freeview_isoFalse_fps144.mp4",""
"null","","","html-keyboard-response","241","568593","0.0-241.0","h0bgkvns","","<span style=""color:Black; font-size:50px;"">Video 2</span>","null","","","","",""
"null","","","video-keyboard-response","242","571694","0.0-242.0","h0bgkvns","","","null","","<span style=""color:Black; font-size:50px;"">Sandy","Sandy","STIM_SET_18/713089.bmp_pp65_L3_V1_veridical_freeview_isoFalse_fps144.mp4",""
"","","","call-function","243","571694","0.0-243.0","h0bgkvns","","","","","","","",""
"516.2900000000373","","","categorize-html","244","574217","0.0-244.0","h0bgkvns","","Which video showed <span style=""font-size:30px"">Sandy's</span> attention?","50","","","","","true"
"null","","","html-keyboard-response","245","574720","0.0-245.0","h0bgkvns",""," ","null","","","","",""
"","","","call-function","246","574720","0.0-246.0","h0bgkvns","","","","","","","",""
"null","","","html-keyboard-response","247","576224","0.0-247.0","h0bgkvns","","<span style=""color:Black; font-size:50px;"">Video 1</span>","null","","","","",""
"null","","","video-keyboard-response","248","579323","0.0-248.0","h0bgkvns","","","null","","<span style=""color:Black; font-size:50px;"">Casey","Casey","STIM_SET_18/1159648.bmp_pp59_L3_V1_veridical_freeview_isoFalse_fps144.mp4",""
"null","","","html-keyboard-response","249","580828","0.0-249.0","h0bgkvns","","<span style=""color:Black; font-size:50px;"">Video 2</span>","null","","","","",""
"null","","","video-keyboard-response","250","583941","0.0-250.0","h0bgkvns","","","null","","<span style=""color:Black; font-size:50px;"">Sandy","Sandy","STIM_SET_18/1159648.bmp_pp65_L3_V1_veridical_freeview_isoFalse_fps144.mp4",""
"","","","call-function","251","583942","0.0-251.0","h0bgkvns","","","","","","","",""
"780.8000000000466","","","categorize-html","252","586727","0.0-252.0","h0bgkvns","","Which video showed <span style=""font-size:30px"">Sandy's</span> attention?","50","","","","","true"
"null","","","html-keyboard-response","253","587232","0.0-253.0","h0bgkvns",""," ","null","","","","",""
"4006.7900000000373","","","instructions","254","591239","0.0-254.0","h0bgkvns","[{""page_index"":0,""viewing_time"":1800.704999999958},{""page_index"":1,""viewing_time"":1310.8850000000093},{""page_index"":2,""viewing_time"":895.0950000000885}]","","","","","","",""
"2518.234999999986","","","instructions","255","593758","0.0-255.0","h0bgkvns","[{""page_index"":0,""viewing_time"":705.6500000000233},{""page_index"":1,""viewing_time"":1248.9499999999534},{""page_index"":2,""viewing_time"":563.5250000000233}]","","","","","","",""
"","","","call-function","256","593758","0.0-256.0","h0bgkvns","","","","","","","",""
"null","","","html-keyboard-response","257","595262","0.0-257.0","h0bgkvns","","<span style=""color:Black; font-size:50px;"">Video 1</span>","null","","","","",""
"null","","","video-keyboard-response","258","598324","0.0-258.0","h0bgkvns","","","null","","<span style=""color:Black; font-size:50px;"">Sandy","Sandy","STIM_SET_18/1592693.bmp_pp65_L3_V1_veridical_freeview_isoFalse_fps144.mp4",""
"null","","","html-keyboard-response","259","599826","0.0-259.0","h0bgkvns","","<span style=""color:Black; font-size:50px;"">Video 2</span>","null","","","","",""
"null","","","video-keyboard-response","260","602926","0.0-260.0","h0bgkvns","","","null","","<span style=""color:Black; font-size:50px;"">Casey","Casey","STIM_SET_18/1592693.bmp_pp59_L3_V1_veridical_freeview_isoFalse_fps144.mp4",""
"","","","call-function","261","602927","0.0-261.0","h0bgkvns","","","","","","","",""
"483.92499999993015","","","categorize-html","262","605417","0.0-262.0","h0bgkvns","","Which video showed <span style=""font-size:30px"">Sandy's</span> attention?","50","","","","","false"
"null","","","html-keyboard-response","263","605918","0.0-263.0","h0bgkvns",""," ","null","","","","",""
"","","","call-function","264","605919","0.0-264.0","h0bgkvns","","","","","","","",""
"null","","","html-keyboard-response","265","607424","0.0-265.0","h0bgkvns","","<span style=""color:Black; font-size:50px;"">Video 1</span>","null","","","","",""
"null","","","video-keyboard-response","266","610511","0.0-266.0","h0bgkvns","","","null","","<span style=""color:Black; font-size:50px;"">Sandy","Sandy","STIM_SET_18/150296.bmp_pp65_L3_V1_veridical_freeview_isoFalse_fps144.mp4",""
"null","","","html-keyboard-response","267","612014","0.0-267.0","h0bgkvns","","<span style=""color:Black; font-size:50px;"">Video 2</span>","null","","","","",""
"null","","","video-keyboard-response","268","615074","0.0-268.0","h0bgkvns","","","null","","<span style=""color:Black; font-size:50px;"">Casey","Casey","STIM_SET_18/150296.bmp_pp59_L3_V1_veridical_freeview_isoFalse_fps144.mp4",""
"","","","call-function","269","615074","0.0-269.0","h0bgkvns","","","","","","","",""
"352.125","","","categorize-html","270","617430","0.0-270.0","h0bgkvns","","Which video showed <span style=""font-size:30px"">Sandy's</span> attention?","49","","","","","true"
"null","","","html-keyboard-response","271","617933","0.0-271.0","h0bgkvns",""," ","null","","","","",""
"","","","call-function","272","617933","0.0-272.0","h0bgkvns","","","","","","","",""
"null","","","html-keyboard-response","273","619437","0.0-273.0","h0bgkvns","","<span style=""color:Black; font-size:50px;"">Video 1</span>","null","","","","",""
"null","","","video-keyboard-response","274","622513","0.0-274.0","h0bgkvns","","","null","","<span style=""color:Black; font-size:50px;"">Sandy","Sandy","STIM_SET_18/1159675.bmp_pp65_L3_V1_veridical_freeview_isoFalse_fps144.mp4",""
"null","","","html-keyboard-response","275","624014","0.0-275.0","h0bgkvns","","<span style=""color:Black; font-size:50px;"">Video 2</span>","null","","","","",""
"null","","","video-keyboard-response","276","627116","0.0-276.0","h0bgkvns","","","null","","<span style=""color:Black; font-size:50px;"">Casey","Casey","STIM_SET_18/1159675.bmp_pp59_L3_V1_veridical_freeview_isoFalse_fps144.mp4",""
"","","","call-function","277","627116","0.0-277.0","h0bgkvns","","","","","","","",""
"694.7299999999814","","","categorize-html","278","629816","0.0-278.0","h0bgkvns","","Which video showed <span style=""font-size:30px"">Sandy's</span> attention?","49","","","","","true"
"null","","","html-keyboard-response","279","630319","0.0-279.0","h0bgkvns",""," ","null","","","","",""
"","","","call-function","280","630319","0.0-280.0","h0bgkvns","","","","","","","",""
"null","","","html-keyboard-response","281","631826","0.0-281.0","h0bgkvns","","<span style=""color:Black; font-size:50px;"">Video 1</span>","null","","","","",""
"null","","","video-keyboard-response","282","634926","0.0-282.0","h0bgkvns","","","null","","<span style=""color:Black; font-size:50px;"">Casey","Casey","STIM_SET_18/1159482.bmp_pp59_L3_V1_veridical_freeview_isoFalse_fps144.mp4",""
"null","","","html-keyboard-response","283","636432","0.0-283.0","h0bgkvns","","<span style=""color:Black; font-size:50px;"">Video 2</span>","null","","","","",""
"null","","","video-keyboard-response","284","639522","0.0-284.0","h0bgkvns","","","null","","<span style=""color:Black; font-size:50px;"">Sandy","Sandy","STIM_SET_18/1159482.bmp_pp65_L3_V1_veridical_freeview_isoFalse_fps144.mp4",""
"","","","call-function","285","639522","0.0-285.0","h0bgkvns","","","","","","","",""
"456.84499999997206","","","categorize-html","286","641984","0.0-286.0","h0bgkvns","","Which video showed <span style=""font-size:30px"">Sandy's</span> attention?","50","","","","","true"
"null","","","html-keyboard-response","287","642490","0.0-287.0","h0bgkvns",""," ","null","","","","",""
"","","","call-function","288","642491","0.0-288.0","h0bgkvns","","","","","","","",""
"null","","","html-keyboard-response","289","643996","0.0-289.0","h0bgkvns","","<span style=""color:Black; font-size:50px;"">Video 1</span>","null","","","","",""
"null","","","video-keyboard-response","290","647080","0.0-290.0","h0bgkvns","","","null","","<span style=""color:Black; font-size:50px;"">Casey","Casey","STIM_SET_18/1159446.bmp_pp59_L3_V1_veridical_freeview_isoFalse_fps144.mp4",""
"null","","","html-keyboard-response","291","648582","0.0-291.0","h0bgkvns","","<span style=""color:Black; font-size:50px;"">Video 2</span>","null","","","","",""
"null","","","video-keyboard-response","292","651672","0.0-292.0","h0bgkvns","","","null","","<span style=""color:Black; font-size:50px;"">Sandy","Sandy","STIM_SET_18/1159446.bmp_pp65_L3_V1_veridical_freeview_isoFalse_fps144.mp4",""
"","","","call-function","293","651672","0.0-293.0","h0bgkvns","","","","","","","",""
"594.7850000000326","","","categorize-html","294","654269","0.0-294.0","h0bgkvns","","Which video showed <span style=""font-size:30px"">Sandy's</span> attention?","50","","","","","true"
"null","","","html-keyboard-response","295","654773","0.0-295.0","h0bgkvns",""," ","null","","","","",""
"","","","call-function","296","654773","0.0-296.0","h0bgkvns","","","","","","","",""
"null","","","html-keyboard-response","297","656279","0.0-297.0","h0bgkvns","","<span style=""color:Black; font-size:50px;"">Video 1</span>","null","","","","",""
"null","","","video-keyboard-response","298","659377","0.0-298.0","h0bgkvns","","","null","","<span style=""color:Black; font-size:50px;"">Sandy","Sandy","STIM_SET_18/1591858.bmp_pp65_L3_V1_veridical_freeview_isoFalse_fps144.mp4",""
"null","","","html-keyboard-response","299","660880","0.0-299.0","h0bgkvns","","<span style=""color:Black; font-size:50px;"">Video 2</span>","null","","","","",""
"null","","","video-keyboard-response","300","663939","0.0-300.0","h0bgkvns","","","null","","<span style=""color:Black; font-size:50px;"">Casey","Casey","STIM_SET_18/1591858.bmp_pp59_L3_V1_veridical_freeview_isoFalse_fps144.mp4",""
"","","","call-function","301","663939","0.0-301.0","h0bgkvns","","","","","","","",""
"559.8499999999767","","","categorize-html","302","666504","0.0-302.0","h0bgkvns","","Which video showed <span style=""font-size:30px"">Sandy's</span> attention?","49","","","","","true"
"null","","","html-keyboard-response","303","667007","0.0-303.0","h0bgkvns",""," ","null","","","","",""
"","","","call-function","304","667007","0.0-304.0","h0bgkvns","","","","","","","",""
"null","","","html-keyboard-response","305","668510","0.0-305.0","h0bgkvns","","<span style=""color:Black; font-size:50px;"">Video 1</span>","null","","","","",""
"null","","","video-keyboard-response","306","671604","0.0-306.0","h0bgkvns","","","null","","<span style=""color:Black; font-size:50px;"">Casey","Casey","STIM_SET_18/1593112.bmp_pp59_L3_V1_veridical_freeview_isoFalse_fps144.mp4",""
"null","","","html-keyboard-response","307","673107","0.0-307.0","h0bgkvns","","<span style=""color:Black; font-size:50px;"">Video 2</span>","null","","","","",""
"null","","","video-keyboard-response","308","676187","0.0-308.0","h0bgkvns","","","null","","<span style=""color:Black; font-size:50px;"">Sandy","Sandy","STIM_SET_18/1593112.bmp_pp65_L3_V1_veridical_freeview_isoFalse_fps144.mp4",""
"","","","call-function","309","676187","0.0-309.0","h0bgkvns","","","","","","","",""
"463.53999999992084","","","categorize-html","310","678656","0.0-310.0","h0bgkvns","","Which video showed <span style=""font-size:30px"">Sandy's</span> attention?","49","","","","","false"
"null","","","html-keyboard-response","311","679162","0.0-311.0","h0bgkvns",""," ","null","","","","",""
"","","","call-function","312","679162","0.0-312.0","h0bgkvns","","","","","","","",""
"null","","","html-keyboard-response","313","680664","0.0-313.0","h0bgkvns","","<span style=""color:Black; font-size:50px;"">Video 1</span>","null","","","","",""
"null","","","video-keyboard-response","314","683738","0.0-314.0","h0bgkvns","","","null","","<span style=""color:Black; font-size:50px;"">Casey","Casey","STIM_SET_18/713679.bmp_pp59_L3_V1_veridical_freeview_isoFalse_fps144.mp4",""
"null","","","html-keyboard-response","315","685240","0.0-315.0","h0bgkvns","","<span style=""color:Black; font-size:50px;"">Video 2</span>","null","","","","",""
"null","","","video-keyboard-response","316","688317","0.0-316.0","h0bgkvns","","","null","","<span style=""color:Black; font-size:50px;"">Sandy","Sandy","STIM_SET_18/713679.bmp_pp65_L3_V1_veridical_freeview_isoFalse_fps144.mp4",""
"","","","call-function","317","688317","0.0-317.0","h0bgkvns","","","","","","","",""
"389.5350000000326","","","categorize-html","318","690711","0.0-318.0","h0bgkvns","","Which video showed <span style=""font-size:30px"">Sandy's</span> attention?","50","","","","","true"
"null","","","html-keyboard-response","319","691215","0.0-319.0","h0bgkvns",""," ","null","","","","",""
"","","","call-function","320","691215","0.0-320.0","h0bgkvns","","","","","","","",""
"null","","","html-keyboard-response","321","692718","0.0-321.0","h0bgkvns","","<span style=""color:Black; font-size:50px;"">Video 1</span>","null","","","","",""
"null","","","video-keyboard-response","322","695816","0.0-322.0","h0bgkvns","","","null","","<span style=""color:Black; font-size:50px;"">Casey","Casey","STIM_SET_18/1592241.bmp_pp59_L3_V1_veridical_freeview_isoFalse_fps144.mp4",""
"null","","","html-keyboard-response","323","697322","0.0-323.0","h0bgkvns","","<span style=""color:Black; font-size:50px;"">Video 2</span>","null","","","","",""
"null","","","video-keyboard-response","324","700439","0.0-324.0","h0bgkvns","","","null","","<span style=""color:Black; font-size:50px;"">Sandy","Sandy","STIM_SET_18/1592241.bmp_pp65_L3_V1_veridical_freeview_isoFalse_fps144.mp4",""
"","","","call-function","325","700440","0.0-325.0","h0bgkvns","","","","","","","",""
"347.0550000000512","","","categorize-html","326","702791","0.0-326.0","h0bgkvns","","Which video showed <span style=""font-size:30px"">Sandy's</span> attention?","49","","","","","false"
"null","","","html-keyboard-response","327","703294","0.0-327.0","h0bgkvns",""," ","null","","","","",""
"","","","call-function","328","703295","0.0-328.0","h0bgkvns","","","","","","","",""
"null","","","html-keyboard-response","329","704797","0.0-329.0","h0bgkvns","","<span style=""color:Black; font-size:50px;"">Video 1</span>","null","","","","",""
"null","","","video-keyboard-response","330","707902","0.0-330.0","h0bgkvns","","","null","","<span style=""color:Black; font-size:50px;"">Casey","Casey","STIM_SET_18/713780.bmp_pp59_L3_V1_veridical_freeview_isoFalse_fps144.mp4",""
"null","","","html-keyboard-response","331","709405","0.0-331.0","h0bgkvns","","<span style=""color:Black; font-size:50px;"">Video 2</span>","null","","","","",""
"null","","","video-keyboard-response","332","712503","0.0-332.0","h0bgkvns","","","null","","<span style=""color:Black; font-size:50px;"">Sandy","Sandy","STIM_SET_18/713780.bmp_pp65_L3_V1_veridical_freeview_isoFalse_fps144.mp4",""
"","","","call-function","333","712503","0.0-333.0","h0bgkvns","","","","","","","",""
"1603.9349999999395","","","categorize-html","334","716110","0.0-334.0","h0bgkvns","","Which video showed <span style=""font-size:30px"">Sandy's</span> attention?","50","","","","","true"
"null","","","html-keyboard-response","335","716613","0.0-335.0","h0bgkvns",""," ","null","","","","",""
"3946.405000000028","","","instructions","336","720560","0.0-336.0","h0bgkvns","[{""page_index"":0,""viewing_time"":1720.4600000000792},{""page_index"":1,""viewing_time"":1534.9649999999674},{""page_index"":2,""viewing_time"":690.875}]","","","","","","",""
"2787.6300000000047","","","instructions","337","723348","0.0-337.0","h0bgkvns","[{""page_index"":0,""viewing_time"":993.6850000000559},{""page_index"":1,""viewing_time"":1068.9000000000233},{""page_index"":2,""viewing_time"":724.9399999999441}]","","","","","","",""
"","","","call-function","338","723348","0.0-338.0","h0bgkvns","","","","","","","",""
"null","","","html-keyboard-response","339","724853","0.0-339.0","h0bgkvns","","<span style=""color:Black; font-size:50px;"">Video 1</span>","null","","","","",""
"null","","","video-keyboard-response","340","727924","0.0-340.0","h0bgkvns","","","null","","<span style=""color:Black; font-size:50px;"">Sandy","Sandy","STIM_SET_18/1159991.bmp_pp65_L3_V1_veridical_freeview_isoFalse_fps144.mp4",""
"null","","","html-keyboard-response","341","729430","0.0-341.0","h0bgkvns","","<span style=""color:Black; font-size:50px;"">Video 2</span>","null","","","","",""
"null","","","video-keyboard-response","342","732529","0.0-342.0","h0bgkvns","","","null","","<span style=""color:Black; font-size:50px;"">Casey","Casey","STIM_SET_18/1159991.bmp_pp59_L3_V1_veridical_freeview_isoFalse_fps144.mp4",""
"","","","call-function","343","732530","0.0-343.0","h0bgkvns","","","","","","","",""
"401.1149999999907","","","categorize-html","344","734937","0.0-344.0","h0bgkvns","","Which video showed <span style=""font-size:30px"">Sandy's</span> attention?","50","","","","","false"
"null","","","html-keyboard-response","345","735440","0.0-345.0","h0bgkvns",""," ","null","","","","",""
"","","","call-function","346","735441","0.0-346.0","h0bgkvns","","","","","","","",""
"null","","","html-keyboard-response","347","736943","0.0-347.0","h0bgkvns","","<span style=""color:Black; font-size:50px;"">Video 1</span>","null","","","","",""
"null","","","video-keyboard-response","348","740019","0.0-348.0","h0bgkvns","","","null","","<span style=""color:Black; font-size:50px;"">Sandy","Sandy","STIM_SET_18/285610.bmp_pp65_L3_V1_veridical_freeview_isoFalse_fps144.mp4",""
"null","","","html-keyboard-response","349","741522","0.0-349.0","h0bgkvns","","<span style=""color:Black; font-size:50px;"">Video 2</span>","null","","","","",""
"null","","","video-keyboard-response","350","744589","0.0-350.0","h0bgkvns","","","null","","<span style=""color:Black; font-size:50px;"">Casey","Casey","STIM_SET_18/285610.bmp_pp59_L3_V1_veridical_freeview_isoFalse_fps144.mp4",""
"","","","call-function","351","744590","0.0-351.0","h0bgkvns","","","","","","","",""
"645.0199999999022","","","categorize-html","352","747238","0.0-352.0","h0bgkvns","","Which video showed <span style=""font-size:30px"">Sandy's</span> attention?","49","","","","","true"
"null","","","html-keyboard-response","353","747743","0.0-353.0","h0bgkvns",""," ","null","","","","",""
"","","","call-function","354","747744","0.0-354.0","h0bgkvns","","","","","","","",""
"null","","","html-keyboard-response","355","749246","0.0-355.0","h0bgkvns","","<span style=""color:Black; font-size:50px;"">Video 1</span>","null","","","","",""
"null","","","video-keyboard-response","356","752313","0.0-356.0","h0bgkvns","","","null","","<span style=""color:Black; font-size:50px;"">Sandy","Sandy","STIM_SET_18/285751.bmp_pp65_L3_V1_veridical_freeview_isoFalse_fps144.mp4",""
"null","","","html-keyboard-response","357","753819","0.0-357.0","h0bgkvns","","<span style=""color:Black; font-size:50px;"">Video 2</span>","null","","","","",""
"null","","","video-keyboard-response","358","756896","0.0-358.0","h0bgkvns","","","null","","<span style=""color:Black; font-size:50px;"">Casey","Casey","STIM_SET_18/285751.bmp_pp59_L3_V1_veridical_freeview_isoFalse_fps144.mp4",""
"","","","call-function","359","756897","0.0-359.0","h0bgkvns","","","","","","","",""
"473.9200000000419","","","categorize-html","360","759375","0.0-360.0","h0bgkvns","","Which video showed <span style=""font-size:30px"">Sandy's</span> attention?","49","","","","","true"
"null","","","html-keyboard-response","361","759881","0.0-361.0","h0bgkvns",""," ","null","","","","",""
"","","","call-function","362","759881","0.0-362.0","h0bgkvns","","","","","","","",""
"null","","","html-keyboard-response","363","761388","0.0-363.0","h0bgkvns","","<span style=""color:Black; font-size:50px;"">Video 1</span>","null","","","","",""
"null","","","video-keyboard-response","364","764475","0.0-364.0","h0bgkvns","","","null","","<span style=""color:Black; font-size:50px;"">Sandy","Sandy","STIM_SET_18/1592314.bmp_pp65_L3_V1_veridical_freeview_isoFalse_fps144.mp4",""
"null","","","html-keyboard-response","365","765977","0.0-365.0","h0bgkvns","","<span style=""color:Black; font-size:50px;"">Video 2</span>","null","","","","",""
"null","","","video-keyboard-response","366","769067","0.0-366.0","h0bgkvns","","","null","","<span style=""color:Black; font-size:50px;"">Casey","Casey","STIM_SET_18/1592314.bmp_pp59_L3_V1_veridical_freeview_isoFalse_fps144.mp4",""
"","","","call-function","367","769067","0.0-367.0","h0bgkvns","","","","","","","",""
"1055.530000000028","","","categorize-html","368","772131","0.0-368.0","h0bgkvns","","Which video showed <span style=""font-size:30px"">Sandy's</span> attention?","50","","","","","false"
"null","","","html-keyboard-response","369","772635","0.0-369.0","h0bgkvns",""," ","null","","","","",""
"","","","call-function","370","772635","0.0-370.0","h0bgkvns","","","","","","","",""
"null","","","html-keyboard-response","371","774142","0.0-371.0","h0bgkvns","","<span style=""color:Black; font-size:50px;"">Video 1</span>","null","","","","",""
"null","","","video-keyboard-response","372","777245","0.0-372.0","h0bgkvns","","","null","","<span style=""color:Black; font-size:50px;"">Casey","Casey","STIM_SET_18/713742.bmp_pp59_L3_V1_veridical_freeview_isoFalse_fps144.mp4",""
"null","","","html-keyboard-response","373","778748","0.0-373.0","h0bgkvns","","<span style=""color:Black; font-size:50px;"">Video 2</span>","null","","","","",""
"null","","","video-keyboard-response","374","781852","0.0-374.0","h0bgkvns","","","null","","<span style=""color:Black; font-size:50px;"">Sandy","Sandy","STIM_SET_18/713742.bmp_pp65_L3_V1_veridical_freeview_isoFalse_fps144.mp4",""
"","","","call-function","375","781853","0.0-375.0","h0bgkvns","","","","","","","",""
"854.6149999999907","","","categorize-html","376","784713","0.0-376.0","h0bgkvns","","Which video showed <span style=""font-size:30px"">Sandy's</span> attention?","50","","","","","true"
"null","","","html-keyboard-response","377","785219","0.0-377.0","h0bgkvns",""," ","null","","","","",""
"","","","call-function","378","785220","0.0-378.0","h0bgkvns","","","","","","","",""
"null","","","html-keyboard-response","379","786722","0.0-379.0","h0bgkvns","","<span style=""color:Black; font-size:50px;"">Video 1</span>","null","","","","",""
"null","","","video-keyboard-response","380","789821","0.0-380.0","h0bgkvns","","","null","","<span style=""color:Black; font-size:50px;"">Sandy","Sandy","STIM_SET_18/1159470.bmp_pp65_L3_V1_veridical_freeview_isoFalse_fps144.mp4",""
"null","","","html-keyboard-response","381","791323","0.0-381.0","h0bgkvns","","<span style=""color:Black; font-size:50px;"">Video 2</span>","null","","","","",""
"null","","","video-keyboard-response","382","794412","0.0-382.0","h0bgkvns","","","null","","<span style=""color:Black; font-size:50px;"">Casey","Casey","STIM_SET_18/1159470.bmp_pp59_L3_V1_veridical_freeview_isoFalse_fps144.mp4",""
"","","","call-function","383","794413","0.0-383.0","h0bgkvns","","","","","","","",""
"926.0799999999581","","","categorize-html","384","797345","0.0-384.0","h0bgkvns","","Which video showed <span style=""font-size:30px"">Sandy's</span> attention?","49","","","","","true"
"null","","","html-keyboard-response","385","797848","0.0-385.0","h0bgkvns",""," ","null","","","","",""
"","","","call-function","386","797849","0.0-386.0","h0bgkvns","","","","","","","",""
"null","","","html-keyboard-response","387","799352","0.0-387.0","h0bgkvns","","<span style=""color:Black; font-size:50px;"">Video 1</span>","null","","","","",""
"null","","","video-keyboard-response","388","802451","0.0-388.0","h0bgkvns","","","null","","<span style=""color:Black; font-size:50px;"">Sandy","Sandy","STIM_SET_18/150384.bmp_pp65_L3_V1_veridical_freeview_isoFalse_fps144.mp4",""
"null","","","html-keyboard-response","389","803956","0.0-389.0","h0bgkvns","","<span style=""color:Black; font-size:50px;"">Video 2</span>","null","","","","",""
"null","","","video-keyboard-response","390","807070","0.0-390.0","h0bgkvns","","","null","","<span style=""color:Black; font-size:50px;"">Casey","Casey","STIM_SET_18/150384.bmp_pp59_L3_V1_veridical_freeview_isoFalse_fps144.mp4",""
"","","","call-function","391","807071","0.0-391.0","h0bgkvns","","","","","","","",""
"1500.2300000000978","","","categorize-html","392","810577","0.0-392.0","h0bgkvns","","Which video showed <span style=""font-size:30px"">Sandy's</span> attention?","49","","","","","true"
"null","","","html-keyboard-response","393","811080","0.0-393.0","h0bgkvns",""," ","null","","","","",""
"","","","call-function","394","811080","0.0-394.0","h0bgkvns","","","","","","","",""
"null","","","html-keyboard-response","395","812586","0.0-395.0","h0bgkvns","","<span style=""color:Black; font-size:50px;"">Video 1</span>","null","","","","",""
"null","","","video-keyboard-response","396","815662","0.0-396.0","h0bgkvns","","","null","","<span style=""color:Black; font-size:50px;"">Casey","Casey","STIM_SET_18/1592619.bmp_pp59_L3_V1_veridical_freeview_isoFalse_fps144.mp4",""
"null","","","html-keyboard-response","397","817167","0.0-397.0","h0bgkvns","","<span style=""color:Black; font-size:50px;"">Video 2</span>","null","","","","",""
"null","","","video-keyboard-response","398","820244","0.0-398.0","h0bgkvns","","","null","","<span style=""color:Black; font-size:50px;"">Sandy","Sandy","STIM_SET_18/1592619.bmp_pp65_L3_V1_veridical_freeview_isoFalse_fps144.mp4",""
"","","","call-function","399","820245","0.0-399.0","h0bgkvns","","","","","","","",""
"366.3649999999907","","","categorize-html","400","822614","0.0-400.0","h0bgkvns","","Which video showed <span style=""font-size:30px"">Sandy's</span> attention?","50","","","","","true"
"null","","","html-keyboard-response","401","823116","0.0-401.0","h0bgkvns",""," ","null","","","","",""
"","","","call-function","402","823116","0.0-402.0","h0bgkvns","","","","","","","",""
"null","","","html-keyboard-response","403","824621","0.0-403.0","h0bgkvns","","<span style=""color:Black; font-size:50px;"">Video 1</span>","null","","","","",""
"null","","","video-keyboard-response","404","827690","0.0-404.0","h0bgkvns","","","null","","<span style=""color:Black; font-size:50px;"">Sandy","Sandy","STIM_SET_18/1592804.bmp_pp65_L3_V1_veridical_freeview_isoFalse_fps144.mp4",""
"null","","","html-keyboard-response","405","829197","0.0-405.0","h0bgkvns","","<span style=""color:Black; font-size:50px;"">Video 2</span>","null","","","","",""
"null","","","video-keyboard-response","406","832303","0.0-406.0","h0bgkvns","","","null","","<span style=""color:Black; font-size:50px;"">Casey","Casey","STIM_SET_18/1592804.bmp_pp59_L3_V1_veridical_freeview_isoFalse_fps144.mp4",""
"","","","call-function","407","832304","0.0-407.0","h0bgkvns","","","","","","","",""
"627.0899999999674","","","categorize-html","408","834934","0.0-408.0","h0bgkvns","","Which video showed <span style=""font-size:30px"">Sandy's</span> attention?","49","","","","","true"
"null","","","html-keyboard-response","409","835440","0.0-409.0","h0bgkvns",""," ","null","","","","",""
"","","","call-function","410","835441","0.0-410.0","h0bgkvns","","","","","","","",""
"null","","","html-keyboard-response","411","836947","0.0-411.0","h0bgkvns","","<span style=""color:Black; font-size:50px;"">Video 1</span>","null","","","","",""
"null","","","video-keyboard-response","412","840043","0.0-412.0","h0bgkvns","","","null","","<span style=""color:Black; font-size:50px;"">Casey","Casey","STIM_SET_18/1160158.bmp_pp59_L3_V1_veridical_freeview_isoFalse_fps144.mp4",""
"null","","","html-keyboard-response","413","841545","0.0-413.0","h0bgkvns","","<span style=""color:Black; font-size:50px;"">Video 2</span>","null","","","","",""
"null","","","video-keyboard-response","414","844639","0.0-414.0","h0bgkvns","","","null","","<span style=""color:Black; font-size:50px;"">Sandy","Sandy","STIM_SET_18/1160158.bmp_pp65_L3_V1_veridical_freeview_isoFalse_fps144.mp4",""
"","","","call-function","415","844640","0.0-415.0","h0bgkvns","","","","","","","",""
"1243.4799999999814","","","categorize-html","416","847887","0.0-416.0","h0bgkvns","","Which video showed <span style=""font-size:30px"">Sandy's</span> attention?","49","","","","","false"
"null","","","html-keyboard-response","417","848391","0.0-417.0","h0bgkvns",""," ","null","","","","",""
"2814.4649999999674","","","instructions","418","851206","0.0-418.0","h0bgkvns","[{""page_index"":0,""viewing_time"":1416.344999999972},{""page_index"":1,""viewing_time"":937.3699999999953},{""page_index"":2,""viewing_time"":460.6450000000186}]","","","","","","",""
"2748.70000000007","","","instructions","419","853955","0.0-419.0","h0bgkvns","[{""page_index"":0,""viewing_time"":1542.6650000000373},{""page_index"":1,""viewing_time"":701.859999999986},{""page_index"":2,""viewing_time"":504.0699999999488}]","","","","","","",""
"","","","call-function","420","853955","0.0-420.0","h0bgkvns","","","","","","","",""
"null","","","html-keyboard-response","421","855460","0.0-421.0","h0bgkvns","","<span style=""color:Black; font-size:50px;"">Video 1</span>","null","","","","",""
"null","","","video-keyboard-response","422","858554","0.0-422.0","h0bgkvns","","","null","","<span style=""color:Black; font-size:50px;"">Sandy","Sandy","STIM_SET_18/1593241.bmp_pp65_L3_V1_veridical_freeview_isoFalse_fps144.mp4",""
"null","","","html-keyboard-response","423","860056","0.0-423.0","h0bgkvns","","<span style=""color:Black; font-size:50px;"">Video 2</span>","null","","","","",""
"null","","","video-keyboard-response","424","863149","0.0-424.0","h0bgkvns","","","null","","<span style=""color:Black; font-size:50px;"">Casey","Casey","STIM_SET_18/1593241.bmp_pp59_L3_V1_veridical_freeview_isoFalse_fps144.mp4",""
"","","","call-function","425","863149","0.0-425.0","h0bgkvns","","","","","","","",""
"429.6850000000559","","","categorize-html","426","865584","0.0-426.0","h0bgkvns","","Which video showed <span style=""font-size:30px"">Sandy's</span> attention?","49","","","","","true"
"null","","","html-keyboard-response","427","866089","0.0-427.0","h0bgkvns",""," ","null","","","","",""
"","","","call-function","428","866089","0.0-428.0","h0bgkvns","","","","","","","",""
"null","","","html-keyboard-response","429","867595","0.0-429.0","h0bgkvns","","<span style=""color:Black; font-size:50px;"">Video 1</span>","null","","","","",""
"null","","","video-keyboard-response","430","870664","0.0-430.0","h0bgkvns","","","null","","<span style=""color:Black; font-size:50px;"">Casey","Casey","STIM_SET_18/1592289.bmp_pp59_L3_V1_veridical_freeview_isoFalse_fps144.mp4",""
"null","","","html-keyboard-response","431","872168","0.0-431.0","h0bgkvns","","<span style=""color:Black; font-size:50px;"">Video 2</span>","null","","","","",""
"null","","","video-keyboard-response","432","875258","0.0-432.0","h0bgkvns","","","null","","<span style=""color:Black; font-size:50px;"">Sandy","Sandy","STIM_SET_18/1592289.bmp_pp65_L3_V1_veridical_freeview_isoFalse_fps144.mp4",""
"","","","call-function","433","875259","0.0-433.0","h0bgkvns","","","","","","","",""
"328.3399999999674","","","categorize-html","434","877591","0.0-434.0","h0bgkvns","","Which video showed <span style=""font-size:30px"">Sandy's</span> attention?","50","","","","","true"
"null","","","html-keyboard-response","435","878094","0.0-435.0","h0bgkvns",""," ","null","","","","",""
"","","","call-function","436","878094","0.0-436.0","h0bgkvns","","","","","","","",""
"null","","","html-keyboard-response","437","879598","0.0-437.0","h0bgkvns","","<span style=""color:Black; font-size:50px;"">Video 1</span>","null","","","","",""
"null","","","video-keyboard-response","438","882660","0.0-438.0","h0bgkvns","","","null","","<span style=""color:Black; font-size:50px;"">Sandy","Sandy","STIM_SET_18/498170.bmp_pp65_L3_V1_veridical_freeview_isoFalse_fps144.mp4",""
"null","","","html-keyboard-response","439","884162","0.0-439.0","h0bgkvns","","<span style=""color:Black; font-size:50px;"">Video 2</span>","null","","","","",""
"null","","","video-keyboard-response","440","887228","0.0-440.0","h0bgkvns","","","null","","<span style=""color:Black; font-size:50px;"">Casey","Casey","STIM_SET_18/498170.bmp_pp59_L3_V1_veridical_freeview_isoFalse_fps144.mp4",""
"","","","call-function","441","887228","0.0-441.0","h0bgkvns","","","","","","","",""
"614.8499999999767","","","categorize-html","442","889845","0.0-442.0","h0bgkvns","","Which video showed <span style=""font-size:30px"">Sandy's</span> attention?","49","","","","","true"
"null","","","html-keyboard-response","443","890347","0.0-443.0","h0bgkvns",""," ","null","","","","",""
"","","","call-function","444","890348","0.0-444.0","h0bgkvns","","","","","","","",""
"null","","","html-keyboard-response","445","891854","0.0-445.0","h0bgkvns","","<span style=""color:Black; font-size:50px;"">Video 1</span>","null","","","","",""
"null","","","video-keyboard-response","446","894930","0.0-446.0","h0bgkvns","","","null","","<span style=""color:Black; font-size:50px;"">Casey","Casey","STIM_SET_18/713666.bmp_pp59_L3_V1_veridical_freeview_isoFalse_fps144.mp4",""
"null","","","html-keyboard-response","447","896432","0.0-447.0","h0bgkvns","","<span style=""color:Black; font-size:50px;"">Video 2</span>","null","","","","",""
"null","","","video-keyboard-response","448","899523","0.0-448.0","h0bgkvns","","","null","","<span style=""color:Black; font-size:50px;"">Sandy","Sandy","STIM_SET_18/713666.bmp_pp65_L3_V1_veridical_freeview_isoFalse_fps144.mp4",""
"","","","call-function","449","899523","0.0-449.0","h0bgkvns","","","","","","","",""
"519.7950000000419","","","categorize-html","450","902048","0.0-450.0","h0bgkvns","","Which video showed <span style=""font-size:30px"">Sandy's</span> attention?","50","","","","","true"
"null","","","html-keyboard-response","451","902550","0.0-451.0","h0bgkvns",""," ","null","","","","",""
"","","","call-function","452","902551","0.0-452.0","h0bgkvns","","","","","","","",""
"null","","","html-keyboard-response","453","904052","0.0-453.0","h0bgkvns","","<span style=""color:Black; font-size:50px;"">Video 1</span>","null","","","","",""
"null","","","video-keyboard-response","454","907149","0.0-454.0","h0bgkvns","","","null","","<span style=""color:Black; font-size:50px;"">Sandy","Sandy","STIM_SET_18/285684.bmp_pp65_L3_V1_veridical_freeview_isoFalse_fps144.mp4",""
"null","","","html-keyboard-response","455","908652","0.0-455.0","h0bgkvns","","<span style=""color:Black; font-size:50px;"">Video 2</span>","null","","","","",""
"null","","","video-keyboard-response","456","911752","0.0-456.0","h0bgkvns","","","null","","<span style=""color:Black; font-size:50px;"">Casey","Casey","STIM_SET_18/285684.bmp_pp59_L3_V1_veridical_freeview_isoFalse_fps144.mp4",""
"","","","call-function","457","911752","0.0-457.0","h0bgkvns","","","","","","","",""
"954.9899999999907","","","categorize-html","458","914714","0.0-458.0","h0bgkvns","","Which video showed <span style=""font-size:30px"">Sandy's</span> attention?","49","","","","","true"
"null","","","html-keyboard-response","459","915219","0.0-459.0","h0bgkvns",""," ","null","","","","",""
"","","","call-function","460","915220","0.0-460.0","h0bgkvns","","","","","","","",""
"null","","","html-keyboard-response","461","916726","0.0-461.0","h0bgkvns","","<span style=""color:Black; font-size:50px;"">Video 1</span>","null","","","","",""
"null","","","video-keyboard-response","462","919813","0.0-462.0","h0bgkvns","","","null","","<span style=""color:Black; font-size:50px;"">Sandy","Sandy","STIM_SET_18/1592201.bmp_pp65_L3_V1_veridical_freeview_isoFalse_fps144.mp4",""
"null","","","html-keyboard-response","463","921318","0.0-463.0","h0bgkvns","","<span style=""color:Black; font-size:50px;"">Video 2</span>","null","","","","",""
"null","","","video-keyboard-response","464","924421","0.0-464.0","h0bgkvns","","","null","","<span style=""color:Black; font-size:50px;"">Casey","Casey","STIM_SET_18/1592201.bmp_pp59_L3_V1_veridical_freeview_isoFalse_fps144.mp4",""
"","","","call-function","465","924422","0.0-465.0","h0bgkvns","","","","","","","",""
"685.5300000000279","","","categorize-html","466","927115","0.0-466.0","h0bgkvns","","Which video showed <span style=""font-size:30px"">Sandy's</span> attention?","50","","","","","false"
"null","","","html-keyboard-response","467","927621","0.0-467.0","h0bgkvns",""," ","null","","","","",""
"","","","call-function","468","927622","0.0-468.0","h0bgkvns","","","","","","","",""
"null","","","html-keyboard-response","469","929123","0.0-469.0","h0bgkvns","","<span style=""color:Black; font-size:50px;"">Video 1</span>","null","","","","",""
"null","","","video-keyboard-response","470","932233","0.0-470.0","h0bgkvns","","","null","","<span style=""color:Black; font-size:50px;"">Casey","Casey","STIM_SET_18/713684.bmp_pp59_L3_V1_veridical_freeview_isoFalse_fps144.mp4",""
"null","","","html-keyboard-response","471","933734","0.0-471.0","h0bgkvns","","<span style=""color:Black; font-size:50px;"">Video 2</span>","null","","","","",""
"null","","","video-keyboard-response","472","936809","0.0-472.0","h0bgkvns","","","null","","<span style=""color:Black; font-size:50px;"">Sandy","Sandy","STIM_SET_18/713684.bmp_pp65_L3_V1_veridical_freeview_isoFalse_fps144.mp4",""
"","","","call-function","473","936809","0.0-473.0","h0bgkvns","","","","","","","",""
"641.5899999999674","","","categorize-html","474","939456","0.0-474.0","h0bgkvns","","Which video showed <span style=""font-size:30px"">Sandy's</span> attention?","49","","","","","false"
"null","","","html-keyboard-response","475","939959","0.0-475.0","h0bgkvns",""," ","null","","","","",""
"","","","call-function","476","939960","0.0-476.0","h0bgkvns","","","","","","","",""
"null","","","html-keyboard-response","477","941463","0.0-477.0","h0bgkvns","","<span style=""color:Black; font-size:50px;"">Video 1</span>","null","","","","",""
"null","","","video-keyboard-response","478","944566","0.0-478.0","h0bgkvns","","","null","","<span style=""color:Black; font-size:50px;"">Sandy","Sandy","STIM_SET_18/1159515.bmp_pp65_L3_V1_veridical_freeview_isoFalse_fps144.mp4",""
"null","","","html-keyboard-response","479","946070","0.0-479.0","h0bgkvns","","<span style=""color:Black; font-size:50px;"">Video 2</span>","null","","","","",""
"null","","","video-keyboard-response","480","949137","0.0-480.0","h0bgkvns","","","null","","<span style=""color:Black; font-size:50px;"">Casey","Casey","STIM_SET_18/1159515.bmp_pp59_L3_V1_veridical_freeview_isoFalse_fps144.mp4",""
"","","","call-function","481","949137","0.0-481.0","h0bgkvns","","","","","","","",""
"362.3549999999814","","","categorize-html","482","951505","0.0-482.0","h0bgkvns","","Which video showed <span style=""font-size:30px"">Sandy's</span> attention?","49","","","","","true"
"null","","","html-keyboard-response","483","952011","0.0-483.0","h0bgkvns",""," ","null","","","","",""
"","","","call-function","484","952011","0.0-484.0","h0bgkvns","","","","","","","",""
"null","","","html-keyboard-response","485","953515","0.0-485.0","h0bgkvns","","<span style=""color:Black; font-size:50px;"">Video 1</span>","null","","","","",""
"null","","","video-keyboard-response","486","956583","0.0-486.0","h0bgkvns","","","null","","<span style=""color:Black; font-size:50px;"">Casey","Casey","STIM_SET_18/498261.bmp_pp59_L3_V1_veridical_freeview_isoFalse_fps144.mp4",""
"null","","","html-keyboard-response","487","958087","0.0-487.0","h0bgkvns","","<span style=""color:Black; font-size:50px;"">Video 2</span>","null","","","","",""
"null","","","video-keyboard-response","488","961181","0.0-488.0","h0bgkvns","","","null","","<span style=""color:Black; font-size:50px;"">Sandy","Sandy","STIM_SET_18/498261.bmp_pp65_L3_V1_veridical_freeview_isoFalse_fps144.mp4",""
"","","","call-function","489","961181","0.0-489.0","h0bgkvns","","","","","","","",""
"790.1700000000419","","","categorize-html","490","963975","0.0-490.0","h0bgkvns","","Which video showed <span style=""font-size:30px"">Sandy's</span> attention?","50","","","","","true"
"null","","","html-keyboard-response","491","964481","0.0-491.0","h0bgkvns",""," ","null","","","","",""
"","","","call-function","492","964481","0.0-492.0","h0bgkvns","","","","","","","",""
"null","","","html-keyboard-response","493","965986","0.0-493.0","h0bgkvns","","<span style=""color:Black; font-size:50px;"">Video 1</span>","null","","","","",""
"null","","","video-keyboard-response","494","969104","0.0-494.0","h0bgkvns","","","null","","<span style=""color:Black; font-size:50px;"">Sandy","Sandy","STIM_SET_18/713274.bmp_pp65_L3_V1_veridical_freeview_isoFalse_fps144.mp4",""
"null","","","html-keyboard-response","495","970607","0.0-495.0","h0bgkvns","","<span style=""color:Black; font-size:50px;"">Video 2</span>","null","","","","",""
"null","","","video-keyboard-response","496","973709","0.0-496.0","h0bgkvns","","","null","","<span style=""color:Black; font-size:50px;"">Casey","Casey","STIM_SET_18/713274.bmp_pp59_L3_V1_veridical_freeview_isoFalse_fps144.mp4",""
"","","","call-function","497","973709","0.0-497.0","h0bgkvns","","","","","","","",""
"446.125","","","categorize-html","498","976159","0.0-498.0","h0bgkvns","","Which video showed <span style=""font-size:30px"">Sandy's</span> attention?","49","","","","","true"
"null","","","html-keyboard-response","499","976662","0.0-499.0","h0bgkvns",""," ","null","","","","",""
"2323.7900000000373","","","instructions","500","978987","0.0-500.0","h0bgkvns","[{""page_index"":0,""viewing_time"":1538.609999999986},{""page_index"":1,""viewing_time"":377.5100000000093},{""page_index"":2,""viewing_time"":407.5600000000559}]","","","","","","",""
"1662.5400000000373","","","instructions","501","980649","0.0-501.0","h0bgkvns","[{""page_index"":0,""viewing_time"":673.3649999999907},{""page_index"":1,""viewing_time"":885.1350000000093},{""page_index"":2,""viewing_time"":103.91500000003725}]","","","","","","",""
"","","","call-function","502","980650","0.0-502.0","h0bgkvns","","","","","","","",""
"null","","","html-keyboard-response","503","982153","0.0-503.0","h0bgkvns","","<span style=""color:Black; font-size:50px;"">Video 1</span>","null","","","","",""
"null","","","video-keyboard-response","504","985258","0.0-504.0","h0bgkvns","","","null","","<span style=""color:Black; font-size:50px;"">Sandy","Sandy","STIM_SET_18/150496.bmp_pp65_L3_V1_veridical_freeview_isoFalse_fps144.mp4",""
"null","","","html-keyboard-response","505","986765","0.0-505.0","h0bgkvns","","<span style=""color:Black; font-size:50px;"">Video 2</span>","null","","","","",""
"null","","","video-keyboard-response","506","989854","0.0-506.0","h0bgkvns","","","null","","<span style=""color:Black; font-size:50px;"">Casey","Casey","STIM_SET_18/150496.bmp_pp59_L3_V1_veridical_freeview_isoFalse_fps144.mp4",""
"","","","call-function","507","989854","0.0-507.0","h0bgkvns","","","","","","","",""
"429.1699999999255","","","categorize-html","508","992286","0.0-508.0","h0bgkvns","","Which video showed <span style=""font-size:30px"">Sandy's</span> attention?","49","","","","","true"
"null","","","html-keyboard-response","509","992789","0.0-509.0","h0bgkvns",""," ","null","","","","",""
"","","","call-function","510","992789","0.0-510.0","h0bgkvns","","","","","","","",""
"null","","","html-keyboard-response","511","994293","0.0-511.0","h0bgkvns","","<span style=""color:Black; font-size:50px;"">Video 1</span>","null","","","","",""
"null","","","video-keyboard-response","512","997390","0.0-512.0","h0bgkvns","","","null","","<span style=""color:Black; font-size:50px;"">Casey","Casey","STIM_SET_18/497926.bmp_pp59_L3_V1_veridical_freeview_isoFalse_fps144.mp4",""
"null","","","html-keyboard-response","513","998897","0.0-513.0","h0bgkvns","","<span style=""color:Black; font-size:50px;"">Video 2</span>","null","","","","",""
"null","","","video-keyboard-response","514","1001966","0.0-514.0","h0bgkvns","","","null","","<span style=""color:Black; font-size:50px;"">Sandy","Sandy","STIM_SET_18/497926.bmp_pp65_L3_V1_veridical_freeview_isoFalse_fps144.mp4",""
"","","","call-function","515","1001967","0.0-515.0","h0bgkvns","","","","","","","",""
"652.6550000000279","","","categorize-html","516","1004622","0.0-516.0","h0bgkvns","","Which video showed <span style=""font-size:30px"">Sandy's</span> attention?","49","","","","","false"
"null","","","html-keyboard-response","517","1005123","0.0-517.0","h0bgkvns",""," ","null","","","","",""
"","","","call-function","518","1005123","0.0-518.0","h0bgkvns","","","","","","","",""
"null","","","html-keyboard-response","519","1006626","0.0-519.0","h0bgkvns","","<span style=""color:Black; font-size:50px;"">Video 1</span>","null","","","","",""
"null","","","video-keyboard-response","520","1009715","0.0-520.0","h0bgkvns","","","null","","<span style=""color:Black; font-size:50px;"">Casey","Casey","STIM_SET_18/1592519.bmp_pp59_L3_V1_veridical_freeview_isoFalse_fps144.mp4",""
"null","","","html-keyboard-response","521","1011220","0.0-521.0","h0bgkvns","","<span style=""color:Black; font-size:50px;"">Video 2</span>","null","","","","",""
"null","","","video-keyboard-response","522","1014294","0.0-522.0","h0bgkvns","","","null","","<span style=""color:Black; font-size:50px;"">Sandy","Sandy","STIM_SET_18/1592519.bmp_pp65_L3_V1_veridical_freeview_isoFalse_fps144.mp4",""
"","","","call-function","523","1014294","0.0-523.0","h0bgkvns","","","","","","","",""
"701.4749999999767","","","categorize-html","524","1017000","0.0-524.0","h0bgkvns","","Which video showed <span style=""font-size:30px"">Sandy's</span> attention?","50","","","","","true"
"null","","","html-keyboard-response","525","1017504","0.0-525.0","h0bgkvns",""," ","null","","","","",""
"","","","call-function","526","1017505","0.0-526.0","h0bgkvns","","","","","","","",""
"null","","","html-keyboard-response","527","1019007","0.0-527.0","h0bgkvns","","<span style=""color:Black; font-size:50px;"">Video 1</span>","null","","","","",""
"null","","","video-keyboard-response","528","1022069","0.0-528.0","h0bgkvns","","","null","","<span style=""color:Black; font-size:50px;"">Sandy","Sandy","STIM_SET_18/1159497.bmp_pp65_L3_V1_veridical_freeview_isoFalse_fps144.mp4",""
"null","","","html-keyboard-response","529","1023575","0.0-529.0","h0bgkvns","","<span style=""color:Black; font-size:50px;"">Video 2</span>","null","","","","",""
"null","","","video-keyboard-response","530","1026641","0.0-530.0","h0bgkvns","","","null","","<span style=""color:Black; font-size:50px;"">Casey","Casey","STIM_SET_18/1159497.bmp_pp59_L3_V1_veridical_freeview_isoFalse_fps144.mp4",""
"","","","call-function","531","1026641","0.0-531.0","h0bgkvns","","","","","","","",""
"602.1450000000186","","","categorize-html","532","1029248","0.0-532.0","h0bgkvns","","Which video showed <span style=""font-size:30px"">Sandy's</span> attention?","50","","","","","false"
"null","","","html-keyboard-response","533","1029750","0.0-533.0","h0bgkvns",""," ","null","","","","",""
"","","","call-function","534","1029750","0.0-534.0","h0bgkvns","","","","","","","",""
"null","","","html-keyboard-response","535","1031256","0.0-535.0","h0bgkvns","","<span style=""color:Black; font-size:50px;"">Video 1</span>","null","","","","",""
"null","","","video-keyboard-response","536","1034341","0.0-536.0","h0bgkvns","","","null","","<span style=""color:Black; font-size:50px;"">Sandy","Sandy","STIM_SET_18/1592921.bmp_pp65_L3_V1_veridical_freeview_isoFalse_fps144.mp4",""
"null","","","html-keyboard-response","537","1035846","0.0-537.0","h0bgkvns","","<span style=""color:Black; font-size:50px;"">Video 2</span>","null","","","","",""
"null","","","video-keyboard-response","538","1038942","0.0-538.0","h0bgkvns","","","null","","<span style=""color:Black; font-size:50px;"">Casey","Casey","STIM_SET_18/1592921.bmp_pp59_L3_V1_veridical_freeview_isoFalse_fps144.mp4",""
"","","","call-function","539","1038942","0.0-539.0","h0bgkvns","","","","","","","",""
"949.1600000000326","","","categorize-html","540","1041894","0.0-540.0","h0bgkvns","","Which video showed <span style=""font-size:30px"">Sandy's</span> attention?","49","","","","","true"
"null","","","html-keyboard-response","541","1042400","0.0-541.0","h0bgkvns",""," ","null","","","","",""
"","","","call-function","542","1042401","0.0-542.0","h0bgkvns","","","","","","","",""
"null","","","html-keyboard-response","543","1043902","0.0-543.0","h0bgkvns","","<span style=""color:Black; font-size:50px;"">Video 1</span>","null","","","","",""
"null","","","video-keyboard-response","544","1046988","0.0-544.0","h0bgkvns","","","null","","<span style=""color:Black; font-size:50px;"">Casey","Casey","STIM_SET_18/498039.bmp_pp59_L3_V1_veridical_freeview_isoFalse_fps144.mp4",""
"null","","","html-keyboard-response","545","1048492","0.0-545.0","h0bgkvns","","<span style=""color:Black; font-size:50px;"">Video 2</span>","null","","","","",""
"null","","","video-keyboard-response","546","1051586","0.0-546.0","h0bgkvns","","","null","","<span style=""color:Black; font-size:50px;"">Sandy","Sandy","STIM_SET_18/498039.bmp_pp65_L3_V1_veridical_freeview_isoFalse_fps144.mp4",""
"","","","call-function","547","1051587","0.0-547.0","h0bgkvns","","","","","","","",""
"408.8950000000186","","","categorize-html","548","1054001","0.0-548.0","h0bgkvns","","Which video showed <span style=""font-size:30px"">Sandy's</span> attention?","50","","","","","true"
"null","","","html-keyboard-response","549","1054504","0.0-549.0","h0bgkvns",""," ","null","","","","",""
"","","","call-function","550","1054504","0.0-550.0","h0bgkvns","","","","","","","",""
"null","","","html-keyboard-response","551","1056011","0.0-551.0","h0bgkvns","","<span style=""color:Black; font-size:50px;"">Video 1</span>","null","","","","",""
"null","","","video-keyboard-response","552","1059136","0.0-552.0","h0bgkvns","","","null","","<span style=""color:Black; font-size:50px;"">Sandy","Sandy","STIM_SET_18/498092.bmp_pp65_L3_V1_veridical_freeview_isoFalse_fps144.mp4",""
"null","","","html-keyboard-response","553","1060639","0.0-553.0","h0bgkvns","","<span style=""color:Black; font-size:50px;"">Video 2</span>","null","","","","",""
"null","","","video-keyboard-response","554","1063727","0.0-554.0","h0bgkvns","","","null","","<span style=""color:Black; font-size:50px;"">Casey","Casey","STIM_SET_18/498092.bmp_pp59_L3_V1_veridical_freeview_isoFalse_fps144.mp4",""
"","","","call-function","555","1063728","0.0-555.0","h0bgkvns","","","","","","","",""
"604.0300000000279","","","categorize-html","556","1066335","0.0-556.0","h0bgkvns","","Which video showed <span style=""font-size:30px"">Sandy's</span> attention?","49","","","","","true"
"null","","","html-keyboard-response","557","1066838","0.0-557.0","h0bgkvns",""," ","null","","","","",""
"","","","call-function","558","1066839","0.0-558.0","h0bgkvns","","","","","","","",""
"null","","","html-keyboard-response","559","1068341","0.0-559.0","h0bgkvns","","<span style=""color:Black; font-size:50px;"">Video 1</span>","null","","","","",""
"null","","","video-keyboard-response","560","1071417","0.0-560.0","h0bgkvns","","","null","","<span style=""color:Black; font-size:50px;"">Sandy","Sandy","STIM_SET_18/498304.bmp_pp65_L3_V1_veridical_freeview_isoFalse_fps144.mp4",""
"null","","","html-keyboard-response","561","1072921","0.0-561.0","h0bgkvns","","<span style=""color:Black; font-size:50px;"">Video 2</span>","null","","","","",""
"null","","","video-keyboard-response","562","1076017","0.0-562.0","h0bgkvns","","","null","","<span style=""color:Black; font-size:50px;"">Casey","Casey","STIM_SET_18/498304.bmp_pp59_L3_V1_veridical_freeview_isoFalse_fps144.mp4",""
"","","","call-function","563","1076018","0.0-563.0","h0bgkvns","","","","","","","",""
"457.6950000000652","","","categorize-html","564","1078480","0.0-564.0","h0bgkvns","","Which video showed <span style=""font-size:30px"">Sandy's</span> attention?","49","","","","","true"
"null","","","html-keyboard-response","565","1078983","0.0-565.0","h0bgkvns",""," ","null","","","","",""
"","","","call-function","566","1078984","0.0-566.0","h0bgkvns","","","","","","","",""
"null","","","html-keyboard-response","567","1080490","0.0-567.0","h0bgkvns","","<span style=""color:Black; font-size:50px;"">Video 1</span>","null","","","","",""
"null","","","video-keyboard-response","568","1083552","0.0-568.0","h0bgkvns","","","null","","<span style=""color:Black; font-size:50px;"">Sandy","Sandy","STIM_SET_18/713519.bmp_pp65_L3_V1_veridical_freeview_isoFalse_fps144.mp4",""
"null","","","html-keyboard-response","569","1085059","0.0-569.0","h0bgkvns","","<span style=""color:Black; font-size:50px;"">Video 2</span>","null","","","","",""
"null","","","video-keyboard-response","570","1088134","0.0-570.0","h0bgkvns","","","null","","<span style=""color:Black; font-size:50px;"">Casey","Casey","STIM_SET_18/713519.bmp_pp59_L3_V1_veridical_freeview_isoFalse_fps144.mp4",""
"","","","call-function","571","1088135","0.0-571.0","h0bgkvns","","","","","","","",""
"404.80000000004657","","","categorize-html","572","1090543","0.0-572.0","h0bgkvns","","Which video showed <span style=""font-size:30px"">Sandy's</span> attention?","49","","","","","true"
"null","","","html-keyboard-response","573","1091045","0.0-573.0","h0bgkvns",""," ","null","","","","",""
"","","","call-function","574","1091046","0.0-574.0","h0bgkvns","","","","","","","",""
"null","","","html-keyboard-response","575","1092552","0.0-575.0","h0bgkvns","","<span style=""color:Black; font-size:50px;"">Video 1</span>","null","","","","",""
"null","","","video-keyboard-response","576","1095630","0.0-576.0","h0bgkvns","","","null","","<span style=""color:Black; font-size:50px;"">Sandy","Sandy","STIM_SET_18/61537.bmp_pp65_L3_V1_veridical_freeview_isoFalse_fps144.mp4",""
"null","","","html-keyboard-response","577","1097131","0.0-577.0","h0bgkvns","","<span style=""color:Black; font-size:50px;"">Video 2</span>","null","","","","",""
"null","","","video-keyboard-response","578","1100215","0.0-578.0","h0bgkvns","","","null","","<span style=""color:Black; font-size:50px;"">Casey","Casey","STIM_SET_18/61537.bmp_pp59_L3_V1_veridical_freeview_isoFalse_fps144.mp4",""
"","","","call-function","579","1100215","0.0-579.0","h0bgkvns","","","","","","","",""
"516.3850000000093","","","categorize-html","580","1102737","0.0-580.0","h0bgkvns","","Which video showed <span style=""font-size:30px"">Sandy's</span> attention?","50","","","","","false"
"null","","","html-keyboard-response","581","1103239","0.0-581.0","h0bgkvns",""," ","null","","","","",""
"2089.810000000056","","","instructions","582","1105329","0.0-582.0","h0bgkvns","[{""page_index"":0,""viewing_time"":2089.685000000056}]","","","","","","",""
"4159.604999999981","","","instructions","583","1109489","0.0-583.0","h0bgkvns","[{""page_index"":0,""viewing_time"":4159.495000000112}]","","","","","","",""
"62036.92000000016","{""Q0"":""I actually enjoyed this study a lot and was really engaged. I think by the end, I got the hang out of it, although it was somewhat challenging.""}","","survey-text","584","1171532","0.0-584.0","h0bgkvns","","","","","","","",""
"82855.54999999981","{""Q0"":""I noticed that Sandy's attention didn't stay in one place for long, did not fixate as long on text or faces, and especially tended towards (oftentimes irrelevant) background points.""}","","survey-text","585","1254391","0.0-585.0","h0bgkvns","","","","","","","",""
"39092.840000000084","{""Q0"":""Sometimes I was fairly confident that I knew which one was Sandy's/Casey's but it would be wrong. Also, there were some pictures were the attention points did almost the same exact movement.""}","","survey-text","586","1293488","0.0-586.0","h0bgkvns","","","","","","","",""
"1734.3599999998696","","","instructions","587","1295223","0.0-587.0","h0bgkvns","[{""page_index"":0,""viewing_time"":1733.8799999998882}]","","","","","","",""
"217027.08499999996","{""Experimenter_end"":[""Printed ID# h0bgkvns on consent form"",""Given subject SONA credit or payment"",""Given the subject debrief form""]}","[0]","survey-multi-select","588","1512253","0.0-588.0","h0bgkvns","","","","","","","",""
