"rt","responses","question_order","trial_type","trial_index","time_elapsed","internal_node_id","ID","view_history","stimulus","key_press","value","agent","condition","image","correct"
"27144.320000000003","{""Experimenter"":[""Confirmed subject's identity (ID card)"",""Confirmed normal or corrected-to-normal vision"",""Obtained consent (signature and date)"",""Checked the test room lighting"",""Checked computer screen lighting"",""Checked distance from screen to chin rest (50cm)"",""Cleaned and adjusted chin rest"",""Counterbalanced the order of the tasks"",""Opened the experiment in Firefox"",""Made the experiment full screen"",""Encouraged subject to silence phone, put away distractors, etc.""]}","[0]","survey-multi-select","0","27153","0.0-0.0","vsy95au8","","","","","","","",""
"315306.795","","","instructions","1","342462","0.0-1.0","vsy95au8","[{""page_index"":0,""viewing_time"":315306.645}]","","","","","","",""
"8924.690000000002","{""Age"":1,""Sex"":1,""Gender"":1}","[0,1,2]","survey-likert","2","351389","0.0-2.0","vsy95au8","","","","","","","",""
"1340.2050000000163","","","instructions","3","352730","0.0-3.0","vsy95au8","[{""page_index"":0,""viewing_time"":1340.0950000000303}]","","","","","","",""
"20378.244999999995","","","instructions","4","373109","0.0-4.0","vsy95au8","[{""page_index"":0,""viewing_time"":2682.4049999999697},{""page_index"":1,""viewing_time"":12481.900000000023},{""page_index"":2,""viewing_time"":5213.820000000007}]","","","","","","",""
"3567.8250000000116","","","instructions","5","376677","0.0-5.0","vsy95au8","[{""page_index"":0,""viewing_time"":3567.7200000000303}]","","","","","","",""
"null","","","video-keyboard-response","6","379752","0.0-6.0","vsy95au8","","","null","","","","",""
"59137.294999999984","","","instructions","7","438890","0.0-7.0","vsy95au8","[{""page_index"":0,""viewing_time"":6043.255000000005},{""page_index"":1,""viewing_time"":4921.979999999981},{""page_index"":2,""viewing_time"":2024.975000000035},{""page_index"":3,""viewing_time"":7894.024999999965},{""page_index"":4,""viewing_time"":7911.34500000003},{""page_index"":5,""viewing_time"":12424.700000000012},{""page_index"":6,""viewing_time"":14668.070000000007},{""page_index"":7,""viewing_time"":3248.819999999949}]","","","","","","",""
"10336.034999999974","","","instructions","8","449226","0.0-8.0","vsy95au8","[{""page_index"":0,""viewing_time"":10335.784999999974}]","","","","","","",""
"3190.4099999999744","","","instructions","9","452417","0.0-9.0","vsy95au8","[{""page_index"":0,""viewing_time"":3190.2999999999884}]","","","","","","",""
"","","","call-function","10","452417","0.0-10.0","vsy95au8","","","","","","","",""
"null","","","html-keyboard-response","11","453919","0.0-11.0","vsy95au8","","<span style=""color:Black; font-size:50px;"">Video 1</span>","null","","","","",""
"null","","","video-keyboard-response","12","457030","0.0-12.0","vsy95au8","","","null","","<span style=""color:Black; font-size:50px;"">Sandy","Sandy","STIM_SET_19/1160204.bmp_pp53_L2_V1_veridical_freeview_isoFalse_fps144.mp4",""
"null","","","html-keyboard-response","13","458536","0.0-13.0","vsy95au8","","<span style=""color:Black; font-size:50px;"">Video 2</span>","null","","","","",""
"null","","","video-keyboard-response","14","461613","0.0-14.0","vsy95au8","","","null","","<span style=""color:Black; font-size:50px;"">Casey","Casey","STIM_SET_19/1160204.bmp_pp96_L2_V1_veridical_freeview_isoFalse_fps144.mp4",""
"","","","call-function","15","461613","0.0-15.0","vsy95au8","","","","","","","",""
"3378.75","","","categorize-html","16","466993","0.0-16.0","vsy95au8","","Which video showed <span style=""font-size:30px"">Sandy's</span> attention?","49","","","","","true"
"null","","","html-keyboard-response","17","467497","0.0-17.0","vsy95au8",""," ","null","","","","",""
"","","","call-function","18","467498","0.0-18.0","vsy95au8","","","","","","","",""
"null","","","html-keyboard-response","19","469002","0.0-19.0","vsy95au8","","<span style=""color:Black; font-size:50px;"">Video 1</span>","null","","","","",""
"null","","","video-keyboard-response","20","472083","0.0-20.0","vsy95au8","","","null","","<span style=""color:Black; font-size:50px;"">Sandy","Sandy","STIM_SET_19/713381.bmp_pp53_L2_V1_veridical_freeview_isoFalse_fps144.mp4",""
"null","","","html-keyboard-response","21","473586","0.0-21.0","vsy95au8","","<span style=""color:Black; font-size:50px;"">Video 2</span>","null","","","","",""
"null","","","video-keyboard-response","22","476656","0.0-22.0","vsy95au8","","","null","","<span style=""color:Black; font-size:50px;"">Casey","Casey","STIM_SET_19/713381.bmp_pp96_L2_V1_veridical_freeview_isoFalse_fps144.mp4",""
"","","","call-function","23","476656","0.0-23.0","vsy95au8","","","","","","","",""
"5366.784999999974","","","categorize-html","24","484026","0.0-24.0","vsy95au8","","Which video showed <span style=""font-size:30px"">Sandy's</span> attention?","49","","","","","true"
"null","","","html-keyboard-response","25","484529","0.0-25.0","vsy95au8",""," ","null","","","","",""
"","","","call-function","26","484529","0.0-26.0","vsy95au8","","","","","","","",""
"null","","","html-keyboard-response","27","486032","0.0-27.0","vsy95au8","","<span style=""color:Black; font-size:50px;"">Video 1</span>","null","","","","",""
"null","","","video-keyboard-response","28","489153","0.0-28.0","vsy95au8","","","null","","<span style=""color:Black; font-size:50px;"">Sandy","Sandy","STIM_SET_19/150374.bmp_pp53_L2_V1_veridical_freeview_isoFalse_fps144.mp4",""
"null","","","html-keyboard-response","29","490659","0.0-29.0","vsy95au8","","<span style=""color:Black; font-size:50px;"">Video 2</span>","null","","","","",""
"null","","","video-keyboard-response","30","493754","0.0-30.0","vsy95au8","","","null","","<span style=""color:Black; font-size:50px;"">Casey","Casey","STIM_SET_19/150374.bmp_pp96_L2_V1_veridical_freeview_isoFalse_fps144.mp4",""
"","","","call-function","31","493754","0.0-31.0","vsy95au8","","","","","","","",""
"949.0749999999534","","","categorize-html","32","496709","0.0-32.0","vsy95au8","","Which video showed <span style=""font-size:30px"">Sandy's</span> attention?","49","","","","","true"
"null","","","html-keyboard-response","33","497215","0.0-33.0","vsy95au8",""," ","null","","","","",""
"","","","call-function","34","497216","0.0-34.0","vsy95au8","","","","","","","",""
"null","","","html-keyboard-response","35","498721","0.0-35.0","vsy95au8","","<span style=""color:Black; font-size:50px;"">Video 1</span>","null","","","","",""
"null","","","video-keyboard-response","36","501819","0.0-36.0","vsy95au8","","","null","","<span style=""color:Black; font-size:50px;"">Sandy","Sandy","STIM_SET_19/713585.bmp_pp53_L2_V1_veridical_freeview_isoFalse_fps144.mp4",""
"null","","","html-keyboard-response","37","503322","0.0-37.0","vsy95au8","","<span style=""color:Black; font-size:50px;"">Video 2</span>","null","","","","",""
"null","","","video-keyboard-response","38","506413","0.0-38.0","vsy95au8","","","null","","<span style=""color:Black; font-size:50px;"">Casey","Casey","STIM_SET_19/713585.bmp_pp96_L2_V1_veridical_freeview_isoFalse_fps144.mp4",""
"","","","call-function","39","506413","0.0-39.0","vsy95au8","","","","","","","",""
"7682.275000000023","","","categorize-html","40","516102","0.0-40.0","vsy95au8","","Which video showed <span style=""font-size:30px"">Sandy's</span> attention?","50","","","","","false"
"null","","","html-keyboard-response","41","516604","0.0-41.0","vsy95au8",""," ","null","","","","",""
"","","","call-function","42","516604","0.0-42.0","vsy95au8","","","","","","","",""
"null","","","html-keyboard-response","43","518107","0.0-43.0","vsy95au8","","<span style=""color:Black; font-size:50px;"">Video 1</span>","null","","","","",""
"null","","","video-keyboard-response","44","521188","0.0-44.0","vsy95au8","","","null","","<span style=""color:Black; font-size:50px;"">Sandy","Sandy","STIM_SET_19/150280.bmp_pp53_L2_V1_veridical_freeview_isoFalse_fps144.mp4",""
"null","","","html-keyboard-response","45","522692","0.0-45.0","vsy95au8","","<span style=""color:Black; font-size:50px;"">Video 2</span>","null","","","","",""
"null","","","video-keyboard-response","46","525754","0.0-46.0","vsy95au8","","","null","","<span style=""color:Black; font-size:50px;"">Casey","Casey","STIM_SET_19/150280.bmp_pp96_L2_V1_veridical_freeview_isoFalse_fps144.mp4",""
"","","","call-function","47","525754","0.0-47.0","vsy95au8","","","","","","","",""
"1053.045000000042","","","categorize-html","48","528811","0.0-48.0","vsy95au8","","Which video showed <span style=""font-size:30px"">Sandy's</span> attention?","50","","","","","false"
"null","","","html-keyboard-response","49","529316","0.0-49.0","vsy95au8",""," ","null","","","","",""
"","","","call-function","50","529317","0.0-50.0","vsy95au8","","","","","","","",""
"null","","","html-keyboard-response","51","530818","0.0-51.0","vsy95au8","","<span style=""color:Black; font-size:50px;"">Video 1</span>","null","","","","",""
"null","","","video-keyboard-response","52","533935","0.0-52.0","vsy95au8","","","null","","<span style=""color:Black; font-size:50px;"">Casey","Casey","STIM_SET_19/1160227.bmp_pp96_L2_V1_veridical_freeview_isoFalse_fps144.mp4",""
"null","","","html-keyboard-response","53","535438","0.0-53.0","vsy95au8","","<span style=""color:Black; font-size:50px;"">Video 2</span>","null","","","","",""
"null","","","video-keyboard-response","54","538534","0.0-54.0","vsy95au8","","","null","","<span style=""color:Black; font-size:50px;"">Sandy","Sandy","STIM_SET_19/1160227.bmp_pp53_L2_V1_veridical_freeview_isoFalse_fps144.mp4",""
"","","","call-function","55","538534","0.0-55.0","vsy95au8","","","","","","","",""
"2136.984999999986","","","categorize-html","56","542678","0.0-56.0","vsy95au8","","Which video showed <span style=""font-size:30px"">Sandy's</span> attention?","49","","","","","false"
"null","","","html-keyboard-response","57","543181","0.0-57.0","vsy95au8",""," ","null","","","","",""
"","","","call-function","58","543181","0.0-58.0","vsy95au8","","","","","","","",""
"null","","","html-keyboard-response","59","544684","0.0-59.0","vsy95au8","","<span style=""color:Black; font-size:50px;"">Video 1</span>","null","","","","",""
"null","","","video-keyboard-response","60","547763","0.0-60.0","vsy95au8","","","null","","<span style=""color:Black; font-size:50px;"">Sandy","Sandy","STIM_SET_19/1592394.bmp_pp53_L2_V1_veridical_freeview_isoFalse_fps144.mp4",""
"null","","","html-keyboard-response","61","549265","0.0-61.0","vsy95au8","","<span style=""color:Black; font-size:50px;"">Video 2</span>","null","","","","",""
"null","","","video-keyboard-response","62","552374","0.0-62.0","vsy95au8","","","null","","<span style=""color:Black; font-size:50px;"">Casey","Casey","STIM_SET_19/1592394.bmp_pp96_L2_V1_veridical_freeview_isoFalse_fps144.mp4",""
"","","","call-function","63","552374","0.0-63.0","vsy95au8","","","","","","","",""
"3057.1350000000093","","","categorize-html","64","557434","0.0-64.0","vsy95au8","","Which video showed <span style=""font-size:30px"">Sandy's</span> attention?","49","","","","","true"
"null","","","html-keyboard-response","65","557938","0.0-65.0","vsy95au8",""," ","null","","","","",""
"","","","call-function","66","557939","0.0-66.0","vsy95au8","","","","","","","",""
"null","","","html-keyboard-response","67","559441","0.0-67.0","vsy95au8","","<span style=""color:Black; font-size:50px;"">Video 1</span>","null","","","","",""
"null","","","video-keyboard-response","68","562576","0.0-68.0","vsy95au8","","","null","","<span style=""color:Black; font-size:50px;"">Casey","Casey","STIM_SET_19/713135.bmp_pp96_L2_V1_veridical_freeview_isoFalse_fps144.mp4",""
"null","","","html-keyboard-response","69","564080","0.0-69.0","vsy95au8","","<span style=""color:Black; font-size:50px;"">Video 2</span>","null","","","","",""
"null","","","video-keyboard-response","70","567199","0.0-70.0","vsy95au8","","","null","","<span style=""color:Black; font-size:50px;"">Sandy","Sandy","STIM_SET_19/713135.bmp_pp53_L2_V1_veridical_freeview_isoFalse_fps144.mp4",""
"","","","call-function","71","567200","0.0-71.0","vsy95au8","","","","","","","",""
"839.7099999999627","","","categorize-html","72","570045","0.0-72.0","vsy95au8","","Which video showed <span style=""font-size:30px"">Sandy's</span> attention?","49","","","","","false"
"null","","","html-keyboard-response","73","570551","0.0-73.0","vsy95au8",""," ","null","","","","",""
"","","","call-function","74","570552","0.0-74.0","vsy95au8","","","","","","","",""
"null","","","html-keyboard-response","75","572053","0.0-75.0","vsy95au8","","<span style=""color:Black; font-size:50px;"">Video 1</span>","null","","","","",""
"null","","","video-keyboard-response","76","575193","0.0-76.0","vsy95au8","","","null","","<span style=""color:Black; font-size:50px;"">Casey","Casey","STIM_SET_19/1159847.bmp_pp96_L2_V1_veridical_freeview_isoFalse_fps144.mp4",""
"null","","","html-keyboard-response","77","576698","0.0-77.0","vsy95au8","","<span style=""color:Black; font-size:50px;"">Video 2</span>","null","","","","",""
"null","","","video-keyboard-response","78","579821","0.0-78.0","vsy95au8","","","null","","<span style=""color:Black; font-size:50px;"">Sandy","Sandy","STIM_SET_19/1159847.bmp_pp53_L2_V1_veridical_freeview_isoFalse_fps144.mp4",""
"","","","call-function","79","579822","0.0-79.0","vsy95au8","","","","","","","",""
"5817.644999999902","","","categorize-html","80","587642","0.0-80.0","vsy95au8","","Which video showed <span style=""font-size:30px"">Sandy's</span> attention?","49","","","","","false"
"null","","","html-keyboard-response","81","588144","0.0-81.0","vsy95au8",""," ","null","","","","",""
"","","","call-function","82","588144","0.0-82.0","vsy95au8","","","","","","","",""
"null","","","html-keyboard-response","83","589650","0.0-83.0","vsy95au8","","<span style=""color:Black; font-size:50px;"">Video 1</span>","null","","","","",""
"null","","","video-keyboard-response","84","592731","0.0-84.0","vsy95au8","","","null","","<span style=""color:Black; font-size:50px;"">Sandy","Sandy","STIM_SET_19/713328.bmp_pp53_L2_V1_veridical_freeview_isoFalse_fps144.mp4",""
"null","","","html-keyboard-response","85","594233","0.0-85.0","vsy95au8","","<span style=""color:Black; font-size:50px;"">Video 2</span>","null","","","","",""
"null","","","video-keyboard-response","86","597300","0.0-86.0","vsy95au8","","","null","","<span style=""color:Black; font-size:50px;"">Casey","Casey","STIM_SET_19/713328.bmp_pp96_L2_V1_veridical_freeview_isoFalse_fps144.mp4",""
"","","","call-function","87","597301","0.0-87.0","vsy95au8","","","","","","","",""
"2058.530000000028","","","categorize-html","88","601362","0.0-88.0","vsy95au8","","Which video showed <span style=""font-size:30px"">Sandy's</span> attention?","50","","","","","false"
"null","","","html-keyboard-response","89","601862","0.0-89.0","vsy95au8",""," ","null","","","","",""
"4050.715000000084","","","instructions","90","605913","0.0-90.0","vsy95au8","[{""page_index"":0,""viewing_time"":1261.4650000000838},{""page_index"":1,""viewing_time"":1622.0749999999534},{""page_index"":2,""viewing_time"":1167.0700000000652}]","","","","","","",""
"4876.7200000000885","","","instructions","91","610790","0.0-91.0","vsy95au8","[{""page_index"":0,""viewing_time"":1046.8400000000838},{""page_index"":1,""viewing_time"":2644.7649999998976},{""page_index"":2,""viewing_time"":1185.0050000000047}]","","","","","","",""
"","","","call-function","92","610791","0.0-92.0","vsy95au8","","","","","","","",""
"null","","","html-keyboard-response","93","612293","0.0-93.0","vsy95au8","","<span style=""color:Black; font-size:50px;"">Video 1</span>","null","","","","",""
"null","","","video-keyboard-response","94","615376","0.0-94.0","vsy95au8","","","null","","<span style=""color:Black; font-size:50px;"">Casey","Casey","STIM_SET_19/713512.bmp_pp96_L2_V1_veridical_freeview_isoFalse_fps144.mp4",""
"null","","","html-keyboard-response","95","616880","0.0-95.0","vsy95au8","","<span style=""color:Black; font-size:50px;"">Video 2</span>","null","","","","",""
"null","","","video-keyboard-response","96","619964","0.0-96.0","vsy95au8","","","null","","<span style=""color:Black; font-size:50px;"">Sandy","Sandy","STIM_SET_19/713512.bmp_pp53_L2_V1_veridical_freeview_isoFalse_fps144.mp4",""
"","","","call-function","97","619965","0.0-97.0","vsy95au8","","","","","","","",""
"2562.3549999999814","","","categorize-html","98","624533","0.0-98.0","vsy95au8","","Which video showed <span style=""font-size:30px"">Sandy's</span> attention?","49","","","","","false"
"null","","","html-keyboard-response","99","625035","0.0-99.0","vsy95au8",""," ","null","","","","",""
"","","","call-function","100","625036","0.0-100.0","vsy95au8","","","","","","","",""
"null","","","html-keyboard-response","101","626540","0.0-101.0","vsy95au8","","<span style=""color:Black; font-size:50px;"">Video 1</span>","null","","","","",""
"null","","","video-keyboard-response","102","629625","0.0-102.0","vsy95au8","","","null","","<span style=""color:Black; font-size:50px;"">Sandy","Sandy","STIM_SET_19/1159724.bmp_pp53_L2_V1_veridical_freeview_isoFalse_fps144.mp4",""
"null","","","html-keyboard-response","103","631128","0.0-103.0","vsy95au8","","<span style=""color:Black; font-size:50px;"">Video 2</span>","null","","","","",""
"null","","","video-keyboard-response","104","634189","0.0-104.0","vsy95au8","","","null","","<span style=""color:Black; font-size:50px;"">Casey","Casey","STIM_SET_19/1159724.bmp_pp96_L2_V1_veridical_freeview_isoFalse_fps144.mp4",""
"","","","call-function","105","634189","0.0-105.0","vsy95au8","","","","","","","",""
"2746.5050000000047","","","categorize-html","106","638939","0.0-106.0","vsy95au8","","Which video showed <span style=""font-size:30px"">Sandy's</span> attention?","50","","","","","false"
"null","","","html-keyboard-response","107","639444","0.0-107.0","vsy95au8",""," ","null","","","","",""
"","","","call-function","108","639444","0.0-108.0","vsy95au8","","","","","","","",""
"null","","","html-keyboard-response","109","640950","0.0-109.0","vsy95au8","","<span style=""color:Black; font-size:50px;"">Video 1</span>","null","","","","",""
"null","","","video-keyboard-response","110","644039","0.0-110.0","vsy95au8","","","null","","<span style=""color:Black; font-size:50px;"">Casey","Casey","STIM_SET_19/498226.bmp_pp96_L2_V1_veridical_freeview_isoFalse_fps144.mp4",""
"null","","","html-keyboard-response","111","645541","0.0-111.0","vsy95au8","","<span style=""color:Black; font-size:50px;"">Video 2</span>","null","","","","",""
"null","","","video-keyboard-response","112","648653","0.0-112.0","vsy95au8","","","null","","<span style=""color:Black; font-size:50px;"">Sandy","Sandy","STIM_SET_19/498226.bmp_pp53_L2_V1_veridical_freeview_isoFalse_fps144.mp4",""
"","","","call-function","113","648653","0.0-113.0","vsy95au8","","","","","","","",""
"1569.844999999972","","","categorize-html","114","652230","0.0-114.0","vsy95au8","","Which video showed <span style=""font-size:30px"">Sandy's</span> attention?","49","","","","","false"
"null","","","html-keyboard-response","115","652731","0.0-115.0","vsy95au8",""," ","null","","","","",""
"","","","call-function","116","652732","0.0-116.0","vsy95au8","","","","","","","",""
"null","","","html-keyboard-response","117","654235","0.0-117.0","vsy95au8","","<span style=""color:Black; font-size:50px;"">Video 1</span>","null","","","","",""
"null","","","video-keyboard-response","118","657349","0.0-118.0","vsy95au8","","","null","","<span style=""color:Black; font-size:50px;"">Casey","Casey","STIM_SET_19/1159335.bmp_pp96_L2_V1_veridical_freeview_isoFalse_fps144.mp4",""
"null","","","html-keyboard-response","119","658856","0.0-119.0","vsy95au8","","<span style=""color:Black; font-size:50px;"">Video 2</span>","null","","","","",""
"null","","","video-keyboard-response","120","661963","0.0-120.0","vsy95au8","","","null","","<span style=""color:Black; font-size:50px;"">Sandy","Sandy","STIM_SET_19/1159335.bmp_pp53_L2_V1_veridical_freeview_isoFalse_fps144.mp4",""
"","","","call-function","121","661964","0.0-121.0","vsy95au8","","","","","","","",""
"1643.405000000028","","","categorize-html","122","665612","0.0-122.0","vsy95au8","","Which video showed <span style=""font-size:30px"">Sandy's</span> attention?","50","","","","","true"
"null","","","html-keyboard-response","123","666114","0.0-123.0","vsy95au8",""," ","null","","","","",""
"","","","call-function","124","666114","0.0-124.0","vsy95au8","","","","","","","",""
"null","","","html-keyboard-response","125","667617","0.0-125.0","vsy95au8","","<span style=""color:Black; font-size:50px;"">Video 1</span>","null","","","","",""
"null","","","video-keyboard-response","126","670755","0.0-126.0","vsy95au8","","","null","","<span style=""color:Black; font-size:50px;"">Casey","Casey","STIM_SET_19/61574.bmp_pp96_L2_V1_veridical_freeview_isoFalse_fps144.mp4",""
"null","","","html-keyboard-response","127","672259","0.0-127.0","vsy95au8","","<span style=""color:Black; font-size:50px;"">Video 2</span>","null","","","","",""
"null","","","video-keyboard-response","128","675399","0.0-128.0","vsy95au8","","","null","","<span style=""color:Black; font-size:50px;"">Sandy","Sandy","STIM_SET_19/61574.bmp_pp53_L2_V1_veridical_freeview_isoFalse_fps144.mp4",""
"","","","call-function","129","675399","0.0-129.0","vsy95au8","","","","","","","",""
"712.1800000000512","","","categorize-html","130","678114","0.0-130.0","vsy95au8","","Which video showed <span style=""font-size:30px"">Sandy's</span> attention?","49","","","","","false"
"null","","","html-keyboard-response","131","678616","0.0-131.0","vsy95au8",""," ","null","","","","",""
"","","","call-function","132","678616","0.0-132.0","vsy95au8","","","","","","","",""
"null","","","html-keyboard-response","133","680120","0.0-133.0","vsy95au8","","<span style=""color:Black; font-size:50px;"">Video 1</span>","null","","","","",""
"null","","","video-keyboard-response","134","683197","0.0-134.0","vsy95au8","","","null","","<span style=""color:Black; font-size:50px;"">Casey","Casey","STIM_SET_19/1160049.bmp_pp96_L2_V1_veridical_freeview_isoFalse_fps144.mp4",""
"null","","","html-keyboard-response","135","684699","0.0-135.0","vsy95au8","","<span style=""color:Black; font-size:50px;"">Video 2</span>","null","","","","",""
"null","","","video-keyboard-response","136","687803","0.0-136.0","vsy95au8","","","null","","<span style=""color:Black; font-size:50px;"">Sandy","Sandy","STIM_SET_19/1160049.bmp_pp53_L2_V1_veridical_freeview_isoFalse_fps144.mp4",""
"","","","call-function","137","687803","0.0-137.0","vsy95au8","","","","","","","",""
"1012.2850000000326","","","categorize-html","138","690818","0.0-138.0","vsy95au8","","Which video showed <span style=""font-size:30px"">Sandy's</span> attention?","50","","","","","true"
"null","","","html-keyboard-response","139","691324","0.0-139.0","vsy95au8",""," ","null","","","","",""
"","","","call-function","140","691324","0.0-140.0","vsy95au8","","","","","","","",""
"null","","","html-keyboard-response","141","692830","0.0-141.0","vsy95au8","","<span style=""color:Black; font-size:50px;"">Video 1</span>","null","","","","",""
"null","","","video-keyboard-response","142","695994","0.0-142.0","vsy95au8","","","null","","<span style=""color:Black; font-size:50px;"">Sandy","Sandy","STIM_SET_19/498149.bmp_pp53_L2_V1_veridical_freeview_isoFalse_fps144.mp4",""
"null","","","html-keyboard-response","143","697497","0.0-143.0","vsy95au8","","<span style=""color:Black; font-size:50px;"">Video 2</span>","null","","","","",""
"null","","","video-keyboard-response","144","700574","0.0-144.0","vsy95au8","","","null","","<span style=""color:Black; font-size:50px;"">Casey","Casey","STIM_SET_19/498149.bmp_pp96_L2_V1_veridical_freeview_isoFalse_fps144.mp4",""
"","","","call-function","145","700574","0.0-145.0","vsy95au8","","","","","","","",""
"1929.530000000028","","","categorize-html","146","704508","0.0-146.0","vsy95au8","","Which video showed <span style=""font-size:30px"">Sandy's</span> attention?","49","","","","","true"
"null","","","html-keyboard-response","147","705010","0.0-147.0","vsy95au8",""," ","null","","","","",""
"","","","call-function","148","705011","0.0-148.0","vsy95au8","","","","","","","",""
"null","","","html-keyboard-response","149","706516","0.0-149.0","vsy95au8","","<span style=""color:Black; font-size:50px;"">Video 1</span>","null","","","","",""
"null","","","video-keyboard-response","150","711031","0.0-150.0","vsy95au8","","","null","","<span style=""color:Black; font-size:50px;"">Casey","Casey","STIM_SET_19/1592193.bmp_pp96_L2_V1_veridical_freeview_isoFalse_fps144.mp4",""
"null","","","html-keyboard-response","151","712537","0.0-151.0","vsy95au8","","<span style=""color:Black; font-size:50px;"">Video 2</span>","null","","","","",""
"null","","","video-keyboard-response","152","715641","0.0-152.0","vsy95au8","","","null","","<span style=""color:Black; font-size:50px;"">Sandy","Sandy","STIM_SET_19/1592193.bmp_pp53_L2_V1_veridical_freeview_isoFalse_fps144.mp4",""
"","","","call-function","153","715642","0.0-153.0","vsy95au8","","","","","","","",""
"1077.5800000000745","","","categorize-html","154","718722","0.0-154.0","vsy95au8","","Which video showed <span style=""font-size:30px"">Sandy's</span> attention?","49","","","","","false"
"null","","","html-keyboard-response","155","719224","0.0-155.0","vsy95au8",""," ","null","","","","",""
"","","","call-function","156","719224","0.0-156.0","vsy95au8","","","","","","","",""
"null","","","html-keyboard-response","157","720725","0.0-157.0","vsy95au8","","<span style=""color:Black; font-size:50px;"">Video 1</span>","null","","","","",""
"null","","","video-keyboard-response","158","723849","0.0-158.0","vsy95au8","","","null","","<span style=""color:Black; font-size:50px;"">Sandy","Sandy","STIM_SET_19/713749.bmp_pp53_L2_V1_veridical_freeview_isoFalse_fps144.mp4",""
"null","","","html-keyboard-response","159","725354","0.0-159.0","vsy95au8","","<span style=""color:Black; font-size:50px;"">Video 2</span>","null","","","","",""
"null","","","video-keyboard-response","160","728453","0.0-160.0","vsy95au8","","","null","","<span style=""color:Black; font-size:50px;"">Casey","Casey","STIM_SET_19/713749.bmp_pp96_L2_V1_veridical_freeview_isoFalse_fps144.mp4",""
"","","","call-function","161","728454","0.0-161.0","vsy95au8","","","","","","","",""
"457.76500000001397","","","categorize-html","162","730916","0.0-162.0","vsy95au8","","Which video showed <span style=""font-size:30px"">Sandy's</span> attention?","50","","","","","false"
"null","","","html-keyboard-response","163","731419","0.0-163.0","vsy95au8",""," ","null","","","","",""
"","","","call-function","164","731419","0.0-164.0","vsy95au8","","","","","","","",""
"null","","","html-keyboard-response","165","732921","0.0-165.0","vsy95au8","","<span style=""color:Black; font-size:50px;"">Video 1</span>","null","","","","",""
"null","","","video-keyboard-response","166","736036","0.0-166.0","vsy95au8","","","null","","<span style=""color:Black; font-size:50px;"">Sandy","Sandy","STIM_SET_19/1592656.bmp_pp53_L2_V1_veridical_freeview_isoFalse_fps144.mp4",""
"null","","","html-keyboard-response","167","737540","0.0-167.0","vsy95au8","","<span style=""color:Black; font-size:50px;"">Video 2</span>","null","","","","",""
"null","","","video-keyboard-response","168","740647","0.0-168.0","vsy95au8","","","null","","<span style=""color:Black; font-size:50px;"">Casey","Casey","STIM_SET_19/1592656.bmp_pp96_L2_V1_veridical_freeview_isoFalse_fps144.mp4",""
"","","","call-function","169","740648","0.0-169.0","vsy95au8","","","","","","","",""
"727.8099999999395","","","categorize-html","170","743378","0.0-170.0","vsy95au8","","Which video showed <span style=""font-size:30px"">Sandy's</span> attention?","49","","","","","true"
"null","","","html-keyboard-response","171","743880","0.0-171.0","vsy95au8",""," ","null","","","","",""
"14794.07500000007","","","instructions","172","758674","0.0-172.0","vsy95au8","[{""page_index"":0,""viewing_time"":1988.9000000000233},{""page_index"":1,""viewing_time"":11971.06500000006},{""page_index"":2,""viewing_time"":833.8999999999069}]","","","","","","",""
"2128.6350000000093","","","instructions","173","760803","0.0-173.0","vsy95au8","[{""page_index"":0,""viewing_time"":662.6300000000047},{""page_index"":1,""viewing_time"":490.8549999999814},{""page_index"":2,""viewing_time"":975.0450000000419}]","","","","","","",""
"","","","call-function","174","760804","0.0-174.0","vsy95au8","","","","","","","",""
"null","","","html-keyboard-response","175","762306","0.0-175.0","vsy95au8","","<span style=""color:Black; font-size:50px;"">Video 1</span>","null","","","","",""
"null","","","video-keyboard-response","176","765385","0.0-176.0","vsy95au8","","","null","","<span style=""color:Black; font-size:50px;"">Casey","Casey","STIM_SET_19/1592567.bmp_pp96_L2_V1_veridical_freeview_isoFalse_fps144.mp4",""
"null","","","html-keyboard-response","177","766889","0.0-177.0","vsy95au8","","<span style=""color:Black; font-size:50px;"">Video 2</span>","null","","","","",""
"null","","","video-keyboard-response","178","769988","0.0-178.0","vsy95au8","","","null","","<span style=""color:Black; font-size:50px;"">Sandy","Sandy","STIM_SET_19/1592567.bmp_pp53_L2_V1_veridical_freeview_isoFalse_fps144.mp4",""
"","","","call-function","179","769988","0.0-179.0","vsy95au8","","","","","","","",""
"3099.1500000000233","","","categorize-html","180","775094","0.0-180.0","vsy95au8","","Which video showed <span style=""font-size:30px"">Sandy's</span> attention?","49","","","","","false"
"null","","","html-keyboard-response","181","775596","0.0-181.0","vsy95au8",""," ","null","","","","",""
"","","","call-function","182","775597","0.0-182.0","vsy95au8","","","","","","","",""
"null","","","html-keyboard-response","183","777103","0.0-183.0","vsy95au8","","<span style=""color:Black; font-size:50px;"">Video 1</span>","null","","","","",""
"null","","","video-keyboard-response","184","780169","0.0-184.0","vsy95au8","","","null","","<span style=""color:Black; font-size:50px;"">Sandy","Sandy","STIM_SET_19/1592251.bmp_pp53_L2_V1_veridical_freeview_isoFalse_fps144.mp4",""
"null","","","html-keyboard-response","185","781675","0.0-185.0","vsy95au8","","<span style=""color:Black; font-size:50px;"">Video 2</span>","null","","","","",""
"null","","","video-keyboard-response","186","784754","0.0-186.0","vsy95au8","","","null","","<span style=""color:Black; font-size:50px;"">Casey","Casey","STIM_SET_19/1592251.bmp_pp96_L2_V1_veridical_freeview_isoFalse_fps144.mp4",""
"","","","call-function","187","784755","0.0-187.0","vsy95au8","","","","","","","",""
"1340.609999999986","","","categorize-html","188","788099","0.0-188.0","vsy95au8","","Which video showed <span style=""font-size:30px"">Sandy's</span> attention?","50","","","","","false"
"null","","","html-keyboard-response","189","788606","0.0-189.0","vsy95au8",""," ","null","","","","",""
"","","","call-function","190","788607","0.0-190.0","vsy95au8","","","","","","","",""
"null","","","html-keyboard-response","191","790110","0.0-191.0","vsy95au8","","<span style=""color:Black; font-size:50px;"">Video 1</span>","null","","","","",""
"null","","","video-keyboard-response","192","793214","0.0-192.0","vsy95au8","","","null","","<span style=""color:Black; font-size:50px;"">Casey","Casey","STIM_SET_19/1159775.bmp_pp96_L2_V1_veridical_freeview_isoFalse_fps144.mp4",""
"null","","","html-keyboard-response","193","794717","0.0-193.0","vsy95au8","","<span style=""color:Black; font-size:50px;"">Video 2</span>","null","","","","",""
"null","","","video-keyboard-response","194","797824","0.0-194.0","vsy95au8","","","null","","<span style=""color:Black; font-size:50px;"">Sandy","Sandy","STIM_SET_19/1159775.bmp_pp53_L2_V1_veridical_freeview_isoFalse_fps144.mp4",""
"","","","call-function","195","797824","0.0-195.0","vsy95au8","","","","","","","",""
"2391.6450000000186","","","categorize-html","196","802220","0.0-196.0","vsy95au8","","Which video showed <span style=""font-size:30px"">Sandy's</span> attention?","50","","","","","true"
"null","","","html-keyboard-response","197","802724","0.0-197.0","vsy95au8",""," ","null","","","","",""
"","","","call-function","198","802724","0.0-198.0","vsy95au8","","","","","","","",""
"null","","","html-keyboard-response","199","804226","0.0-199.0","vsy95au8","","<span style=""color:Black; font-size:50px;"">Video 1</span>","null","","","","",""
"null","","","video-keyboard-response","200","807337","0.0-200.0","vsy95au8","","","null","","<span style=""color:Black; font-size:50px;"">Casey","Casey","STIM_SET_19/1160155.bmp_pp96_L2_V1_veridical_freeview_isoFalse_fps144.mp4",""
"null","","","html-keyboard-response","201","808839","0.0-201.0","vsy95au8","","<span style=""color:Black; font-size:50px;"">Video 2</span>","null","","","","",""
"null","","","video-keyboard-response","202","811961","0.0-202.0","vsy95au8","","","null","","<span style=""color:Black; font-size:50px;"">Sandy","Sandy","STIM_SET_19/1160155.bmp_pp53_L2_V1_veridical_freeview_isoFalse_fps144.mp4",""
"","","","call-function","203","811962","0.0-203.0","vsy95au8","","","","","","","",""
"2613.935000000056","","","categorize-html","204","816580","0.0-204.0","vsy95au8","","Which video showed <span style=""font-size:30px"">Sandy's</span> attention?","50","","","","","true"
"null","","","html-keyboard-response","205","817081","0.0-205.0","vsy95au8",""," ","null","","","","",""
"","","","call-function","206","817082","0.0-206.0","vsy95au8","","","","","","","",""
"null","","","html-keyboard-response","207","818586","0.0-207.0","vsy95au8","","<span style=""color:Black; font-size:50px;"">Video 1</span>","null","","","","",""
"null","","","video-keyboard-response","208","821712","0.0-208.0","vsy95au8","","","null","","<span style=""color:Black; font-size:50px;"">Casey","Casey","STIM_SET_19/1592367.bmp_pp96_L2_V1_veridical_freeview_isoFalse_fps144.mp4",""
"null","","","html-keyboard-response","209","823214","0.0-209.0","vsy95au8","","<span style=""color:Black; font-size:50px;"">Video 2</span>","null","","","","",""
"null","","","video-keyboard-response","210","826323","0.0-210.0","vsy95au8","","","null","","<span style=""color:Black; font-size:50px;"">Sandy","Sandy","STIM_SET_19/1592367.bmp_pp53_L2_V1_veridical_freeview_isoFalse_fps144.mp4",""
"","","","call-function","211","826324","0.0-211.0","vsy95au8","","","","","","","",""
"1219.9049999999115","","","categorize-html","212","829546","0.0-212.0","vsy95au8","","Which video showed <span style=""font-size:30px"">Sandy's</span> attention?","50","","","","","true"
"null","","","html-keyboard-response","213","830050","0.0-213.0","vsy95au8",""," ","null","","","","",""
"","","","call-function","214","830050","0.0-214.0","vsy95au8","","","","","","","",""
"null","","","html-keyboard-response","215","831552","0.0-215.0","vsy95au8","","<span style=""color:Black; font-size:50px;"">Video 1</span>","null","","","","",""
"null","","","video-keyboard-response","216","834631","0.0-216.0","vsy95au8","","","null","","<span style=""color:Black; font-size:50px;"">Sandy","Sandy","STIM_SET_19/107955.bmp_pp53_L2_V1_veridical_freeview_isoFalse_fps144.mp4",""
"null","","","html-keyboard-response","217","836134","0.0-217.0","vsy95au8","","<span style=""color:Black; font-size:50px;"">Video 2</span>","null","","","","",""
"null","","","video-keyboard-response","218","839217","0.0-218.0","vsy95au8","","","null","","<span style=""color:Black; font-size:50px;"">Casey","Casey","STIM_SET_19/107955.bmp_pp96_L2_V1_veridical_freeview_isoFalse_fps144.mp4",""
"","","","call-function","219","839218","0.0-219.0","vsy95au8","","","","","","","",""
"1949.9799999999814","","","categorize-html","220","843174","0.0-220.0","vsy95au8","","Which video showed <span style=""font-size:30px"">Sandy's</span> attention?","49","","","","","true"
"null","","","html-keyboard-response","221","843678","0.0-221.0","vsy95au8",""," ","null","","","","",""
"","","","call-function","222","843679","0.0-222.0","vsy95au8","","","","","","","",""
"null","","","html-keyboard-response","223","845182","0.0-223.0","vsy95au8","","<span style=""color:Black; font-size:50px;"">Video 1</span>","null","","","","",""
"null","","","video-keyboard-response","224","848254","0.0-224.0","vsy95au8","","","null","","<span style=""color:Black; font-size:50px;"">Casey","Casey","STIM_SET_19/1159325.bmp_pp96_L2_V1_veridical_freeview_isoFalse_fps144.mp4",""
"null","","","html-keyboard-response","225","849757","0.0-225.0","vsy95au8","","<span style=""color:Black; font-size:50px;"">Video 2</span>","null","","","","",""
"null","","","video-keyboard-response","226","852843","0.0-226.0","vsy95au8","","","null","","<span style=""color:Black; font-size:50px;"">Sandy","Sandy","STIM_SET_19/1159325.bmp_pp53_L2_V1_veridical_freeview_isoFalse_fps144.mp4",""
"","","","call-function","227","852843","0.0-227.0","vsy95au8","","","","","","","",""
"1260.844999999972","","","categorize-html","228","856106","0.0-228.0","vsy95au8","","Which video showed <span style=""font-size:30px"">Sandy's</span> attention?","50","","","","","true"
"null","","","html-keyboard-response","229","856611","0.0-229.0","vsy95au8",""," ","null","","","","",""
"","","","call-function","230","856612","0.0-230.0","vsy95au8","","","","","","","",""
"null","","","html-keyboard-response","231","858114","0.0-231.0","vsy95au8","","<span style=""color:Black; font-size:50px;"">Video 1</span>","null","","","","",""
"null","","","video-keyboard-response","232","861233","0.0-232.0","vsy95au8","","","null","","<span style=""color:Black; font-size:50px;"">Sandy","Sandy","STIM_SET_19/1159904.bmp_pp53_L2_V1_veridical_freeview_isoFalse_fps144.mp4",""
"null","","","html-keyboard-response","233","862739","0.0-233.0","vsy95au8","","<span style=""color:Black; font-size:50px;"">Video 2</span>","null","","","","",""
"null","","","video-keyboard-response","234","865824","0.0-234.0","vsy95au8","","","null","","<span style=""color:Black; font-size:50px;"">Casey","Casey","STIM_SET_19/1159904.bmp_pp96_L2_V1_veridical_freeview_isoFalse_fps144.mp4",""
"","","","call-function","235","865824","0.0-235.0","vsy95au8","","","","","","","",""
"751.8449999999721","","","categorize-html","236","868579","0.0-236.0","vsy95au8","","Which video showed <span style=""font-size:30px"">Sandy's</span> attention?","50","","","","","false"
"null","","","html-keyboard-response","237","869083","0.0-237.0","vsy95au8",""," ","null","","","","",""
"","","","call-function","238","869084","0.0-238.0","vsy95au8","","","","","","","",""
"null","","","html-keyboard-response","239","870586","0.0-239.0","vsy95au8","","<span style=""color:Black; font-size:50px;"">Video 1</span>","null","","","","",""
"null","","","video-keyboard-response","240","873698","0.0-240.0","vsy95au8","","","null","","<span style=""color:Black; font-size:50px;"">Sandy","Sandy","STIM_SET_19/1591954.bmp_pp53_L2_V1_veridical_freeview_isoFalse_fps144.mp4",""
"null","","","html-keyboard-response","241","875203","0.0-241.0","vsy95au8","","<span style=""color:Black; font-size:50px;"">Video 2</span>","null","","","","",""
"null","","","video-keyboard-response","242","878311","0.0-242.0","vsy95au8","","","null","","<span style=""color:Black; font-size:50px;"">Casey","Casey","STIM_SET_19/1591954.bmp_pp96_L2_V1_veridical_freeview_isoFalse_fps144.mp4",""
"","","","call-function","243","878311","0.0-243.0","vsy95au8","","","","","","","",""
"2304.32500000007","","","categorize-html","244","882620","0.0-244.0","vsy95au8","","Which video showed <span style=""font-size:30px"">Sandy's</span> attention?","49","","","","","true"
"null","","","html-keyboard-response","245","883123","0.0-245.0","vsy95au8",""," ","null","","","","",""
"","","","call-function","246","883124","0.0-246.0","vsy95au8","","","","","","","",""
"null","","","html-keyboard-response","247","884626","0.0-247.0","vsy95au8","","<span style=""color:Black; font-size:50px;"">Video 1</span>","null","","","","",""
"null","","","video-keyboard-response","248","887739","0.0-248.0","vsy95au8","","","null","","<span style=""color:Black; font-size:50px;"">Sandy","Sandy","STIM_SET_19/107964.bmp_pp53_L2_V1_veridical_freeview_isoFalse_fps144.mp4",""
"null","","","html-keyboard-response","249","889240","0.0-249.0","vsy95au8","","<span style=""color:Black; font-size:50px;"">Video 2</span>","null","","","","",""
"null","","","video-keyboard-response","250","892362","0.0-250.0","vsy95au8","","","null","","<span style=""color:Black; font-size:50px;"">Casey","Casey","STIM_SET_19/107964.bmp_pp96_L2_V1_veridical_freeview_isoFalse_fps144.mp4",""
"","","","call-function","251","892362","0.0-251.0","vsy95au8","","","","","","","",""
"1005.625","","","categorize-html","252","895374","0.0-252.0","vsy95au8","","Which video showed <span style=""font-size:30px"">Sandy's</span> attention?","50","","","","","false"
"null","","","html-keyboard-response","253","895876","0.0-253.0","vsy95au8",""," ","null","","","","",""
"5858.485000000102","","","instructions","254","901735","0.0-254.0","vsy95au8","[{""page_index"":0,""viewing_time"":4414.735000000102},{""page_index"":1,""viewing_time"":817.6699999999255},{""page_index"":2,""viewing_time"":625.9699999999721}]","","","","","","",""
"2410.5899999999674","","","instructions","255","904146","0.0-255.0","vsy95au8","[{""page_index"":0,""viewing_time"":659.4499999999534},{""page_index"":1,""viewing_time"":718.1300000000047},{""page_index"":2,""viewing_time"":1032.8950000000186}]","","","","","","",""
"","","","call-function","256","904146","0.0-256.0","vsy95au8","","","","","","","",""
"null","","","html-keyboard-response","257","905652","0.0-257.0","vsy95au8","","<span style=""color:Black; font-size:50px;"">Video 1</span>","null","","","","",""
"null","","","video-keyboard-response","258","908744","0.0-258.0","vsy95au8","","","null","","<span style=""color:Black; font-size:50px;"">Sandy","Sandy","STIM_SET_19/1591859.bmp_pp53_L2_V1_veridical_freeview_isoFalse_fps144.mp4",""
"null","","","html-keyboard-response","259","910245","0.0-259.0","vsy95au8","","<span style=""color:Black; font-size:50px;"">Video 2</span>","null","","","","",""
"null","","","video-keyboard-response","260","913305","0.0-260.0","vsy95au8","","","null","","<span style=""color:Black; font-size:50px;"">Casey","Casey","STIM_SET_19/1591859.bmp_pp96_L2_V1_veridical_freeview_isoFalse_fps144.mp4",""
"","","","call-function","261","913306","0.0-261.0","vsy95au8","","","","","","","",""
"2302.189999999944","","","categorize-html","262","917610","0.0-262.0","vsy95au8","","Which video showed <span style=""font-size:30px"">Sandy's</span> attention?","49","","","","","true"
"null","","","html-keyboard-response","263","918114","0.0-263.0","vsy95au8",""," ","null","","","","",""
"","","","call-function","264","918114","0.0-264.0","vsy95au8","","","","","","","",""
"null","","","html-keyboard-response","265","919619","0.0-265.0","vsy95au8","","<span style=""color:Black; font-size:50px;"">Video 1</span>","null","","","","",""
"null","","","video-keyboard-response","266","922711","0.0-266.0","vsy95au8","","","null","","<span style=""color:Black; font-size:50px;"">Sandy","Sandy","STIM_SET_19/1160180.bmp_pp53_L2_V1_veridical_freeview_isoFalse_fps144.mp4",""
"null","","","html-keyboard-response","267","924214","0.0-267.0","vsy95au8","","<span style=""color:Black; font-size:50px;"">Video 2</span>","null","","","","",""
"null","","","video-keyboard-response","268","927290","0.0-268.0","vsy95au8","","","null","","<span style=""color:Black; font-size:50px;"">Casey","Casey","STIM_SET_19/1160180.bmp_pp96_L2_V1_veridical_freeview_isoFalse_fps144.mp4",""
"","","","call-function","269","927290","0.0-269.0","vsy95au8","","","","","","","",""
"2437.844999999972","","","categorize-html","270","931733","0.0-270.0","vsy95au8","","Which video showed <span style=""font-size:30px"">Sandy's</span> attention?","49","","","","","true"
"null","","","html-keyboard-response","271","932235","0.0-271.0","vsy95au8",""," ","null","","","","",""
"","","","call-function","272","932236","0.0-272.0","vsy95au8","","","","","","","",""
"null","","","html-keyboard-response","273","933738","0.0-273.0","vsy95au8","","<span style=""color:Black; font-size:50px;"">Video 1</span>","null","","","","",""
"null","","","video-keyboard-response","274","936846","0.0-274.0","vsy95au8","","","null","","<span style=""color:Black; font-size:50px;"">Casey","Casey","STIM_SET_19/498372.bmp_pp96_L2_V1_veridical_freeview_isoFalse_fps144.mp4",""
"null","","","html-keyboard-response","275","938351","0.0-275.0","vsy95au8","","<span style=""color:Black; font-size:50px;"">Video 2</span>","null","","","","",""
"null","","","video-keyboard-response","276","941469","0.0-276.0","vsy95au8","","","null","","<span style=""color:Black; font-size:50px;"">Sandy","Sandy","STIM_SET_19/498372.bmp_pp53_L2_V1_veridical_freeview_isoFalse_fps144.mp4",""
"","","","call-function","277","941469","0.0-277.0","vsy95au8","","","","","","","",""
"1730.640000000014","","","categorize-html","278","945203","0.0-278.0","vsy95au8","","Which video showed <span style=""font-size:30px"">Sandy's</span> attention?","50","","","","","true"
"null","","","html-keyboard-response","279","945708","0.0-279.0","vsy95au8",""," ","null","","","","",""
"","","","call-function","280","945708","0.0-280.0","vsy95au8","","","","","","","",""
"null","","","html-keyboard-response","281","947210","0.0-281.0","vsy95au8","","<span style=""color:Black; font-size:50px;"">Video 1</span>","null","","","","",""
"null","","","video-keyboard-response","282","950321","0.0-282.0","vsy95au8","","","null","","<span style=""color:Black; font-size:50px;"">Sandy","Sandy","STIM_SET_19/1159447.bmp_pp53_L2_V1_veridical_freeview_isoFalse_fps144.mp4",""
"null","","","html-keyboard-response","283","951824","0.0-283.0","vsy95au8","","<span style=""color:Black; font-size:50px;"">Video 2</span>","null","","","","",""
"null","","","video-keyboard-response","284","954925","0.0-284.0","vsy95au8","","","null","","<span style=""color:Black; font-size:50px;"">Casey","Casey","STIM_SET_19/1159447.bmp_pp96_L2_V1_veridical_freeview_isoFalse_fps144.mp4",""
"","","","call-function","285","954925","0.0-285.0","vsy95au8","","","","","","","",""
"3114.8699999999953","","","categorize-html","286","960046","0.0-286.0","vsy95au8","","Which video showed <span style=""font-size:30px"">Sandy's</span> attention?","49","","","","","true"
"null","","","html-keyboard-response","287","960548","0.0-287.0","vsy95au8",""," ","null","","","","",""
"","","","call-function","288","960549","0.0-288.0","vsy95au8","","","","","","","",""
"null","","","html-keyboard-response","289","962053","0.0-289.0","vsy95au8","","<span style=""color:Black; font-size:50px;"">Video 1</span>","null","","","","",""
"null","","","video-keyboard-response","290","965176","0.0-290.0","vsy95au8","","","null","","<span style=""color:Black; font-size:50px;"">Casey","Casey","STIM_SET_19/1159882.bmp_pp96_L2_V1_veridical_freeview_isoFalse_fps144.mp4",""
"null","","","html-keyboard-response","291","966682","0.0-291.0","vsy95au8","","<span style=""color:Black; font-size:50px;"">Video 2</span>","null","","","","",""
"null","","","video-keyboard-response","292","969795","0.0-292.0","vsy95au8","","","null","","<span style=""color:Black; font-size:50px;"">Sandy","Sandy","STIM_SET_19/1159882.bmp_pp53_L2_V1_veridical_freeview_isoFalse_fps144.mp4",""
"","","","call-function","293","969795","0.0-293.0","vsy95au8","","","","","","","",""
"3020.92499999993","","","categorize-html","294","974817","0.0-294.0","vsy95au8","","Which video showed <span style=""font-size:30px"">Sandy's</span> attention?","49","","","","","false"
"null","","","html-keyboard-response","295","975321","0.0-295.0","vsy95au8",""," ","null","","","","",""
"","","","call-function","296","975322","0.0-296.0","vsy95au8","","","","","","","",""
"null","","","html-keyboard-response","297","976823","0.0-297.0","vsy95au8","","<span style=""color:Black; font-size:50px;"">Video 1</span>","null","","","","",""
"null","","","video-keyboard-response","298","979912","0.0-298.0","vsy95au8","","","null","","<span style=""color:Black; font-size:50px;"">Casey","Casey","STIM_SET_19/1593006.bmp_pp96_L2_V1_veridical_freeview_isoFalse_fps144.mp4",""
"null","","","html-keyboard-response","299","981418","0.0-299.0","vsy95au8","","<span style=""color:Black; font-size:50px;"">Video 2</span>","null","","","","",""
"null","","","video-keyboard-response","300","984506","0.0-300.0","vsy95au8","","","null","","<span style=""color:Black; font-size:50px;"">Sandy","Sandy","STIM_SET_19/1593006.bmp_pp53_L2_V1_veridical_freeview_isoFalse_fps144.mp4",""
"","","","call-function","301","984506","0.0-301.0","vsy95au8","","","","","","","",""
"2717.3649999999907","","","categorize-html","302","989226","0.0-302.0","vsy95au8","","Which video showed <span style=""font-size:30px"">Sandy's</span> attention?","50","","","","","true"
"null","","","html-keyboard-response","303","989732","0.0-303.0","vsy95au8",""," ","null","","","","",""
"","","","call-function","304","989732","0.0-304.0","vsy95au8","","","","","","","",""
"null","","","html-keyboard-response","305","991235","0.0-305.0","vsy95au8","","<span style=""color:Black; font-size:50px;"">Video 1</span>","null","","","","",""
"null","","","video-keyboard-response","306","994322","0.0-306.0","vsy95au8","","","null","","<span style=""color:Black; font-size:50px;"">Sandy","Sandy","STIM_SET_19/150458.bmp_pp53_L2_V1_veridical_freeview_isoFalse_fps144.mp4",""
"null","","","html-keyboard-response","307","995824","0.0-307.0","vsy95au8","","<span style=""color:Black; font-size:50px;"">Video 2</span>","null","","","","",""
"null","","","video-keyboard-response","308","998914","0.0-308.0","vsy95au8","","","null","","<span style=""color:Black; font-size:50px;"">Casey","Casey","STIM_SET_19/150458.bmp_pp96_L2_V1_veridical_freeview_isoFalse_fps144.mp4",""
"","","","call-function","309","998914","0.0-309.0","vsy95au8","","","","","","","",""
"677.9649999999674","","","categorize-html","310","1001595","0.0-310.0","vsy95au8","","Which video showed <span style=""font-size:30px"">Sandy's</span> attention?","50","","","","","false"
"null","","","html-keyboard-response","311","1002100","0.0-311.0","vsy95au8",""," ","null","","","","",""
"","","","call-function","312","1002100","0.0-312.0","vsy95au8","","","","","","","",""
"null","","","html-keyboard-response","313","1003603","0.0-313.0","vsy95au8","","<span style=""color:Black; font-size:50px;"">Video 1</span>","null","","","","",""
"null","","","video-keyboard-response","314","1006717","0.0-314.0","vsy95au8","","","null","","<span style=""color:Black; font-size:50px;"">Sandy","Sandy","STIM_SET_19/286001.bmp_pp53_L2_V1_veridical_freeview_isoFalse_fps144.mp4",""
"null","","","html-keyboard-response","315","1008223","0.0-315.0","vsy95au8","","<span style=""color:Black; font-size:50px;"">Video 2</span>","null","","","","",""
"null","","","video-keyboard-response","316","1011307","0.0-316.0","vsy95au8","","","null","","<span style=""color:Black; font-size:50px;"">Casey","Casey","STIM_SET_19/286001.bmp_pp96_L2_V1_veridical_freeview_isoFalse_fps144.mp4",""
"","","","call-function","317","1011307","0.0-317.0","vsy95au8","","","","","","","",""
"1972.719999999972","","","categorize-html","318","1015283","0.0-318.0","vsy95au8","","Which video showed <span style=""font-size:30px"">Sandy's</span> attention?","49","","","","","true"
"null","","","html-keyboard-response","319","1015785","0.0-319.0","vsy95au8",""," ","null","","","","",""
"","","","call-function","320","1015785","0.0-320.0","vsy95au8","","","","","","","",""
"null","","","html-keyboard-response","321","1017291","0.0-321.0","vsy95au8","","<span style=""color:Black; font-size:50px;"">Video 1</span>","null","","","","",""
"null","","","video-keyboard-response","322","1020397","0.0-322.0","vsy95au8","","","null","","<span style=""color:Black; font-size:50px;"">Casey","Casey","STIM_SET_19/1159397.bmp_pp96_L2_V1_veridical_freeview_isoFalse_fps144.mp4",""
"null","","","html-keyboard-response","323","1021901","0.0-323.0","vsy95au8","","<span style=""color:Black; font-size:50px;"">Video 2</span>","null","","","","",""
"null","","","video-keyboard-response","324","1025018","0.0-324.0","vsy95au8","","","null","","<span style=""color:Black; font-size:50px;"">Sandy","Sandy","STIM_SET_19/1159397.bmp_pp53_L2_V1_veridical_freeview_isoFalse_fps144.mp4",""
"","","","call-function","325","1025018","0.0-325.0","vsy95au8","","","","","","","",""
"1333.7999999999302","","","categorize-html","326","1028355","0.0-326.0","vsy95au8","","Which video showed <span style=""font-size:30px"">Sandy's</span> attention?","49","","","","","false"
"null","","","html-keyboard-response","327","1028862","0.0-327.0","vsy95au8",""," ","null","","","","",""
"","","","call-function","328","1028862","0.0-328.0","vsy95au8","","","","","","","",""
"null","","","html-keyboard-response","329","1030365","0.0-329.0","vsy95au8","","<span style=""color:Black; font-size:50px;"">Video 1</span>","null","","","","",""
"null","","","video-keyboard-response","330","1033481","0.0-330.0","vsy95au8","","","null","","<span style=""color:Black; font-size:50px;"">Sandy","Sandy","STIM_SET_19/498253.bmp_pp53_L2_V1_veridical_freeview_isoFalse_fps144.mp4",""
"null","","","html-keyboard-response","331","1034983","0.0-331.0","vsy95au8","","<span style=""color:Black; font-size:50px;"">Video 2</span>","null","","","","",""
"null","","","video-keyboard-response","332","1038084","0.0-332.0","vsy95au8","","","null","","<span style=""color:Black; font-size:50px;"">Casey","Casey","STIM_SET_19/498253.bmp_pp96_L2_V1_veridical_freeview_isoFalse_fps144.mp4",""
"","","","call-function","333","1038084","0.0-333.0","vsy95au8","","","","","","","",""
"1108.2600000000093","","","categorize-html","334","1041195","0.0-334.0","vsy95au8","","Which video showed <span style=""font-size:30px"">Sandy's</span> attention?","50","","","","","false"
"null","","","html-keyboard-response","335","1041696","0.0-335.0","vsy95au8",""," ","null","","","","",""
"38544.84999999986","","","instructions","336","1080241","0.0-336.0","vsy95au8","[{""page_index"":0,""viewing_time"":37168.71499999985},{""page_index"":1,""viewing_time"":751.035000000149},{""page_index"":2,""viewing_time"":624.9899999999907}]","","","","","","",""
"4828.564999999944","","","instructions","337","1085070","0.0-337.0","vsy95au8","[{""page_index"":0,""viewing_time"":647.6349999997765},{""page_index"":1,""viewing_time"":3525.8650000002235},{""page_index"":2,""viewing_time"":654.9499999999534}]","","","","","","",""
"","","","call-function","338","1085070","0.0-338.0","vsy95au8","","","","","","","",""
"null","","","html-keyboard-response","339","1086575","0.0-339.0","vsy95au8","","<span style=""color:Black; font-size:50px;"">Video 1</span>","null","","","","",""
"null","","","video-keyboard-response","340","1089650","0.0-340.0","vsy95au8","","","null","","<span style=""color:Black; font-size:50px;"">Casey","Casey","STIM_SET_19/713003.bmp_pp96_L2_V1_veridical_freeview_isoFalse_fps144.mp4",""
"null","","","html-keyboard-response","341","1091157","0.0-341.0","vsy95au8","","<span style=""color:Black; font-size:50px;"">Video 2</span>","null","","","","",""
"null","","","video-keyboard-response","342","1094239","0.0-342.0","vsy95au8","","","null","","<span style=""color:Black; font-size:50px;"">Sandy","Sandy","STIM_SET_19/713003.bmp_pp53_L2_V1_veridical_freeview_isoFalse_fps144.mp4",""
"","","","call-function","343","1094240","0.0-343.0","vsy95au8","","","","","","","",""
"4776.254999999888","","","categorize-html","344","1101023","0.0-344.0","vsy95au8","","Which video showed <span style=""font-size:30px"">Sandy's</span> attention?","50","","","","","true"
"null","","","html-keyboard-response","345","1101530","0.0-345.0","vsy95au8",""," ","null","","","","",""
"","","","call-function","346","1101530","0.0-346.0","vsy95au8","","","","","","","",""
"null","","","html-keyboard-response","347","1103032","0.0-347.0","vsy95au8","","<span style=""color:Black; font-size:50px;"">Video 1</span>","null","","","","",""
"null","","","video-keyboard-response","348","1106098","0.0-348.0","vsy95au8","","","null","","<span style=""color:Black; font-size:50px;"">Casey","Casey","STIM_SET_19/1592033.bmp_pp96_L2_V1_veridical_freeview_isoFalse_fps144.mp4",""
"null","","","html-keyboard-response","349","1107601","0.0-349.0","vsy95au8","","<span style=""color:Black; font-size:50px;"">Video 2</span>","null","","","","",""
"null","","","video-keyboard-response","350","1110727","0.0-350.0","vsy95au8","","","null","","<span style=""color:Black; font-size:50px;"">Sandy","Sandy","STIM_SET_19/1592033.bmp_pp53_L2_V1_veridical_freeview_isoFalse_fps144.mp4",""
"","","","call-function","351","1110727","0.0-351.0","vsy95au8","","","","","","","",""
"1441.0700000000652","","","categorize-html","352","1114170","0.0-352.0","vsy95au8","","Which video showed <span style=""font-size:30px"">Sandy's</span> attention?","49","","","","","false"
"null","","","html-keyboard-response","353","1114674","0.0-353.0","vsy95au8",""," ","null","","","","",""
"","","","call-function","354","1114675","0.0-354.0","vsy95au8","","","","","","","",""
"null","","","html-keyboard-response","355","1116177","0.0-355.0","vsy95au8","","<span style=""color:Black; font-size:50px;"">Video 1</span>","null","","","","",""
"null","","","video-keyboard-response","356","1119295","0.0-356.0","vsy95au8","","","null","","<span style=""color:Black; font-size:50px;"">Casey","Casey","STIM_SET_19/498396.bmp_pp96_L2_V1_veridical_freeview_isoFalse_fps144.mp4",""
"null","","","html-keyboard-response","357","1120801","0.0-357.0","vsy95au8","","<span style=""color:Black; font-size:50px;"">Video 2</span>","null","","","","",""
"null","","","video-keyboard-response","358","1123899","0.0-358.0","vsy95au8","","","null","","<span style=""color:Black; font-size:50px;"">Sandy","Sandy","STIM_SET_19/498396.bmp_pp53_L2_V1_veridical_freeview_isoFalse_fps144.mp4",""
"","","","call-function","359","1123899","0.0-359.0","vsy95au8","","","","","","","",""
"1037.094999999972","","","categorize-html","360","1126939","0.0-360.0","vsy95au8","","Which video showed <span style=""font-size:30px"">Sandy's</span> attention?","50","","","","","true"
"null","","","html-keyboard-response","361","1127440","0.0-361.0","vsy95au8",""," ","null","","","","",""
"","","","call-function","362","1127441","0.0-362.0","vsy95au8","","","","","","","",""
"null","","","html-keyboard-response","363","1128943","0.0-363.0","vsy95au8","","<span style=""color:Black; font-size:50px;"">Video 1</span>","null","","","","",""
"null","","","video-keyboard-response","364","1132056","0.0-364.0","vsy95au8","","","null","","<span style=""color:Black; font-size:50px;"">Sandy","Sandy","STIM_SET_19/1159329.bmp_pp53_L2_V1_veridical_freeview_isoFalse_fps144.mp4",""
"null","","","html-keyboard-response","365","1133558","0.0-365.0","vsy95au8","","<span style=""color:Black; font-size:50px;"">Video 2</span>","null","","","","",""
"null","","","video-keyboard-response","366","1136683","0.0-366.0","vsy95au8","","","null","","<span style=""color:Black; font-size:50px;"">Casey","Casey","STIM_SET_19/1159329.bmp_pp96_L2_V1_veridical_freeview_isoFalse_fps144.mp4",""
"","","","call-function","367","1136683","0.0-367.0","vsy95au8","","","","","","","",""
"1581.1750000000466","","","categorize-html","368","1140272","0.0-368.0","vsy95au8","","Which video showed <span style=""font-size:30px"">Sandy's</span> attention?","49","","","","","true"
"null","","","html-keyboard-response","369","1140773","0.0-369.0","vsy95au8",""," ","null","","","","",""
"","","","call-function","370","1140774","0.0-370.0","vsy95au8","","","","","","","",""
"null","","","html-keyboard-response","371","1142274","0.0-371.0","vsy95au8","","<span style=""color:Black; font-size:50px;"">Video 1</span>","null","","","","",""
"null","","","video-keyboard-response","372","1145360","0.0-372.0","vsy95au8","","","null","","<span style=""color:Black; font-size:50px;"">Casey","Casey","STIM_SET_19/1592038.bmp_pp96_L2_V1_veridical_freeview_isoFalse_fps144.mp4",""
"null","","","html-keyboard-response","373","1146863","0.0-373.0","vsy95au8","","<span style=""color:Black; font-size:50px;"">Video 2</span>","null","","","","",""
"null","","","video-keyboard-response","374","1149966","0.0-374.0","vsy95au8","","","null","","<span style=""color:Black; font-size:50px;"">Sandy","Sandy","STIM_SET_19/1592038.bmp_pp53_L2_V1_veridical_freeview_isoFalse_fps144.mp4",""
"","","","call-function","375","1149966","0.0-375.0","vsy95au8","","","","","","","",""
"1745.8600000001024","","","categorize-html","376","1153717","0.0-376.0","vsy95au8","","Which video showed <span style=""font-size:30px"">Sandy's</span> attention?","50","","","","","true"
"null","","","html-keyboard-response","377","1154218","0.0-377.0","vsy95au8",""," ","null","","","","",""
"","","","call-function","378","1154219","0.0-378.0","vsy95au8","","","","","","","",""
"null","","","html-keyboard-response","379","1155722","0.0-379.0","vsy95au8","","<span style=""color:Black; font-size:50px;"">Video 1</span>","null","","","","",""
"null","","","video-keyboard-response","380","1158799","0.0-380.0","vsy95au8","","","null","","<span style=""color:Black; font-size:50px;"">Casey","Casey","STIM_SET_19/1593035.bmp_pp96_L2_V1_veridical_freeview_isoFalse_fps144.mp4",""
"null","","","html-keyboard-response","381","1160304","0.0-381.0","vsy95au8","","<span style=""color:Black; font-size:50px;"">Video 2</span>","null","","","","",""
"null","","","video-keyboard-response","382","1163364","0.0-382.0","vsy95au8","","","null","","<span style=""color:Black; font-size:50px;"">Sandy","Sandy","STIM_SET_19/1593035.bmp_pp53_L2_V1_veridical_freeview_isoFalse_fps144.mp4",""
"","","","call-function","383","1163364","0.0-383.0","vsy95au8","","","","","","","",""
"4739.875","","","categorize-html","384","1170111","0.0-384.0","vsy95au8","","Which video showed <span style=""font-size:30px"">Sandy's</span> attention?","49","","","","","false"
"null","","","html-keyboard-response","385","1170614","0.0-385.0","vsy95au8",""," ","null","","","","",""
"","","","call-function","386","1170615","0.0-386.0","vsy95au8","","","","","","","",""
"null","","","html-keyboard-response","387","1172116","0.0-387.0","vsy95au8","","<span style=""color:Black; font-size:50px;"">Video 1</span>","null","","","","",""
"null","","","video-keyboard-response","388","1175217","0.0-388.0","vsy95au8","","","null","","<span style=""color:Black; font-size:50px;"">Casey","Casey","STIM_SET_19/1592083.bmp_pp96_L2_V1_veridical_freeview_isoFalse_fps144.mp4",""
"null","","","html-keyboard-response","389","1176720","0.0-389.0","vsy95au8","","<span style=""color:Black; font-size:50px;"">Video 2</span>","null","","","","",""
"null","","","video-keyboard-response","390","1179792","0.0-390.0","vsy95au8","","","null","","<span style=""color:Black; font-size:50px;"">Sandy","Sandy","STIM_SET_19/1592083.bmp_pp53_L2_V1_veridical_freeview_isoFalse_fps144.mp4",""
"","","","call-function","391","1179792","0.0-391.0","vsy95au8","","","","","","","",""
"400.1699999999255","","","categorize-html","392","1182198","0.0-392.0","vsy95au8","","Which video showed <span style=""font-size:30px"">Sandy's</span> attention?","50","","","","","true"
"null","","","html-keyboard-response","393","1182702","0.0-393.0","vsy95au8",""," ","null","","","","",""
"","","","call-function","394","1182702","0.0-394.0","vsy95au8","","","","","","","",""
"null","","","html-keyboard-response","395","1184206","0.0-395.0","vsy95au8","","<span style=""color:Black; font-size:50px;"">Video 1</span>","null","","","","",""
"null","","","video-keyboard-response","396","1187329","0.0-396.0","vsy95au8","","","null","","<span style=""color:Black; font-size:50px;"">Casey","Casey","STIM_SET_19/713380.bmp_pp96_L2_V1_veridical_freeview_isoFalse_fps144.mp4",""
"null","","","html-keyboard-response","397","1188833","0.0-397.0","vsy95au8","","<span style=""color:Black; font-size:50px;"">Video 2</span>","null","","","","",""
"null","","","video-keyboard-response","398","1191948","0.0-398.0","vsy95au8","","","null","","<span style=""color:Black; font-size:50px;"">Sandy","Sandy","STIM_SET_19/713380.bmp_pp53_L2_V1_veridical_freeview_isoFalse_fps144.mp4",""
"","","","call-function","399","1191948","0.0-399.0","vsy95au8","","","","","","","",""
"1356.059999999823","","","categorize-html","400","1195309","0.0-400.0","vsy95au8","","Which video showed <span style=""font-size:30px"">Sandy's</span> attention?","49","","","","","false"
"null","","","html-keyboard-response","401","1195812","0.0-401.0","vsy95au8",""," ","null","","","","",""
"","","","call-function","402","1195812","0.0-402.0","vsy95au8","","","","","","","",""
"null","","","html-keyboard-response","403","1197314","0.0-403.0","vsy95au8","","<span style=""color:Black; font-size:50px;"">Video 1</span>","null","","","","",""
"null","","","video-keyboard-response","404","1200442","0.0-404.0","vsy95au8","","","null","","<span style=""color:Black; font-size:50px;"">Sandy","Sandy","STIM_SET_19/1591805.bmp_pp53_L2_V1_veridical_freeview_isoFalse_fps144.mp4",""
"null","","","html-keyboard-response","405","1201944","0.0-405.0","vsy95au8","","<span style=""color:Black; font-size:50px;"">Video 2</span>","null","","","","",""
"null","","","video-keyboard-response","406","1205054","0.0-406.0","vsy95au8","","","null","","<span style=""color:Black; font-size:50px;"">Casey","Casey","STIM_SET_19/1591805.bmp_pp96_L2_V1_veridical_freeview_isoFalse_fps144.mp4",""
"","","","call-function","407","1205055","0.0-407.0","vsy95au8","","","","","","","",""
"1145.4749999998603","","","categorize-html","408","1208202","0.0-408.0","vsy95au8","","Which video showed <span style=""font-size:30px"">Sandy's</span> attention?","50","","","","","false"
"null","","","html-keyboard-response","409","1208705","0.0-409.0","vsy95au8",""," ","null","","","","",""
"","","","call-function","410","1208705","0.0-410.0","vsy95au8","","","","","","","",""
"null","","","html-keyboard-response","411","1210211","0.0-411.0","vsy95au8","","<span style=""color:Black; font-size:50px;"">Video 1</span>","null","","","","",""
"null","","","video-keyboard-response","412","1213343","0.0-412.0","vsy95au8","","","null","","<span style=""color:Black; font-size:50px;"">Casey","Casey","STIM_SET_19/1592401.bmp_pp96_L2_V1_veridical_freeview_isoFalse_fps144.mp4",""
"null","","","html-keyboard-response","413","1214846","0.0-413.0","vsy95au8","","<span style=""color:Black; font-size:50px;"">Video 2</span>","null","","","","",""
"null","","","video-keyboard-response","414","1217970","0.0-414.0","vsy95au8","","","null","","<span style=""color:Black; font-size:50px;"">Sandy","Sandy","STIM_SET_19/1592401.bmp_pp53_L2_V1_veridical_freeview_isoFalse_fps144.mp4",""
"","","","call-function","415","1217970","0.0-415.0","vsy95au8","","","","","","","",""
"758.2350000001024","","","categorize-html","416","1220731","0.0-416.0","vsy95au8","","Which video showed <span style=""font-size:30px"">Sandy's</span> attention?","50","","","","","true"
"null","","","html-keyboard-response","417","1221234","0.0-417.0","vsy95au8",""," ","null","","","","",""
"2564.685000000056","","","instructions","418","1223800","0.0-418.0","vsy95au8","[{""page_index"":0,""viewing_time"":1893.3600000001024},{""page_index"":1,""viewing_time"":497.81999999983236},{""page_index"":2,""viewing_time"":173.36000000010245}]","","","","","","",""
"1468.6749999998137","","","instructions","419","1225269","0.0-419.0","vsy95au8","[{""page_index"":0,""viewing_time"":200.53999999980442},{""page_index"":1,""viewing_time"":698.6450000000186},{""page_index"":2,""viewing_time"":569.375}]","","","","","","",""
"","","","call-function","420","1225269","0.0-420.0","vsy95au8","","","","","","","",""
"null","","","html-keyboard-response","421","1226773","0.0-421.0","vsy95au8","","<span style=""color:Black; font-size:50px;"">Video 1</span>","null","","","","",""
"null","","","video-keyboard-response","422","1229843","0.0-422.0","vsy95au8","","","null","","<span style=""color:Black; font-size:50px;"">Casey","Casey","STIM_SET_19/1592499.bmp_pp96_L2_V1_veridical_freeview_isoFalse_fps144.mp4",""
"null","","","html-keyboard-response","423","1231345","0.0-423.0","vsy95au8","","<span style=""color:Black; font-size:50px;"">Video 2</span>","null","","","","",""
"null","","","video-keyboard-response","424","1234414","0.0-424.0","vsy95au8","","","null","","<span style=""color:Black; font-size:50px;"">Sandy","Sandy","STIM_SET_19/1592499.bmp_pp53_L2_V1_veridical_freeview_isoFalse_fps144.mp4",""
"","","","call-function","425","1234414","0.0-425.0","vsy95au8","","","","","","","",""
"786.1099999998696","","","categorize-html","426","1237204","0.0-426.0","vsy95au8","","Which video showed <span style=""font-size:30px"">Sandy's</span> attention?","49","","","","","false"
"null","","","html-keyboard-response","427","1237706","0.0-427.0","vsy95au8",""," ","null","","","","",""
"","","","call-function","428","1237706","0.0-428.0","vsy95au8","","","","","","","",""
"null","","","html-keyboard-response","429","1239207","0.0-429.0","vsy95au8","","<span style=""color:Black; font-size:50px;"">Video 1</span>","null","","","","",""
"null","","","video-keyboard-response","430","1242285","0.0-430.0","vsy95au8","","","null","","<span style=""color:Black; font-size:50px;"">Sandy","Sandy","STIM_SET_19/285949.bmp_pp53_L2_V1_veridical_freeview_isoFalse_fps144.mp4",""
"null","","","html-keyboard-response","431","1243789","0.0-431.0","vsy95au8","","<span style=""color:Black; font-size:50px;"">Video 2</span>","null","","","","",""
"null","","","video-keyboard-response","432","1246860","0.0-432.0","vsy95au8","","","null","","<span style=""color:Black; font-size:50px;"">Casey","Casey","STIM_SET_19/285949.bmp_pp96_L2_V1_veridical_freeview_isoFalse_fps144.mp4",""
"","","","call-function","433","1246861","0.0-433.0","vsy95au8","","","","","","","",""
"1027.5800000000745","","","categorize-html","434","1249893","0.0-434.0","vsy95au8","","Which video showed <span style=""font-size:30px"">Sandy's</span> attention?","50","","","","","false"
"null","","","html-keyboard-response","435","1250397","0.0-435.0","vsy95au8",""," ","null","","","","",""
"","","","call-function","436","1250398","0.0-436.0","vsy95au8","","","","","","","",""
"null","","","html-keyboard-response","437","1251903","0.0-437.0","vsy95au8","","<span style=""color:Black; font-size:50px;"">Video 1</span>","null","","","","",""
"null","","","video-keyboard-response","438","1255032","0.0-438.0","vsy95au8","","","null","","<span style=""color:Black; font-size:50px;"">Casey","Casey","STIM_SET_19/1159860.bmp_pp96_L2_V1_veridical_freeview_isoFalse_fps144.mp4",""
"null","","","html-keyboard-response","439","1256537","0.0-439.0","vsy95au8","","<span style=""color:Black; font-size:50px;"">Video 2</span>","null","","","","",""
"null","","","video-keyboard-response","440","1259656","0.0-440.0","vsy95au8","","","null","","<span style=""color:Black; font-size:50px;"">Sandy","Sandy","STIM_SET_19/1159860.bmp_pp53_L2_V1_veridical_freeview_isoFalse_fps144.mp4",""
"","","","call-function","441","1259656","0.0-441.0","vsy95au8","","","","","","","",""
"1120.5049999998882","","","categorize-html","442","1262781","0.0-442.0","vsy95au8","","Which video showed <span style=""font-size:30px"">Sandy's</span> attention?","49","","","","","false"
"null","","","html-keyboard-response","443","1263282","0.0-443.0","vsy95au8",""," ","null","","","","",""
"","","","call-function","444","1263282","0.0-444.0","vsy95au8","","","","","","","",""
"null","","","html-keyboard-response","445","1264785","0.0-445.0","vsy95au8","","<span style=""color:Black; font-size:50px;"">Video 1</span>","null","","","","",""
"null","","","video-keyboard-response","446","1267898","0.0-446.0","vsy95au8","","","null","","<span style=""color:Black; font-size:50px;"">Sandy","Sandy","STIM_SET_19/713779.bmp_pp53_L2_V1_veridical_freeview_isoFalse_fps144.mp4",""
"null","","","html-keyboard-response","447","1269400","0.0-447.0","vsy95au8","","<span style=""color:Black; font-size:50px;"">Video 2</span>","null","","","","",""
"null","","","video-keyboard-response","448","1272491","0.0-448.0","vsy95au8","","","null","","<span style=""color:Black; font-size:50px;"">Casey","Casey","STIM_SET_19/713779.bmp_pp96_L2_V1_veridical_freeview_isoFalse_fps144.mp4",""
"","","","call-function","449","1272492","0.0-449.0","vsy95au8","","","","","","","",""
"1244.9250000000466","","","categorize-html","450","1275738","0.0-450.0","vsy95au8","","Which video showed <span style=""font-size:30px"">Sandy's</span> attention?","50","","","","","false"
"null","","","html-keyboard-response","451","1276242","0.0-451.0","vsy95au8",""," ","null","","","","",""
"","","","call-function","452","1276243","0.0-452.0","vsy95au8","","","","","","","",""
"null","","","html-keyboard-response","453","1277745","0.0-453.0","vsy95au8","","<span style=""color:Black; font-size:50px;"">Video 1</span>","null","","","","",""
"null","","","video-keyboard-response","454","1280843","0.0-454.0","vsy95au8","","","null","","<span style=""color:Black; font-size:50px;"">Casey","Casey","STIM_SET_19/498286.bmp_pp96_L2_V1_veridical_freeview_isoFalse_fps144.mp4",""
"null","","","html-keyboard-response","455","1282349","0.0-455.0","vsy95au8","","<span style=""color:Black; font-size:50px;"">Video 2</span>","null","","","","",""
"null","","","video-keyboard-response","456","1285456","0.0-456.0","vsy95au8","","","null","","<span style=""color:Black; font-size:50px;"">Sandy","Sandy","STIM_SET_19/498286.bmp_pp53_L2_V1_veridical_freeview_isoFalse_fps144.mp4",""
"","","","call-function","457","1285457","0.0-457.0","vsy95au8","","","","","","","",""
"695.3300000000745","","","categorize-html","458","1288159","0.0-458.0","vsy95au8","","Which video showed <span style=""font-size:30px"">Sandy's</span> attention?","49","","","","","false"
"null","","","html-keyboard-response","459","1288664","0.0-459.0","vsy95au8",""," ","null","","","","",""
"","","","call-function","460","1288664","0.0-460.0","vsy95au8","","","","","","","",""
"null","","","html-keyboard-response","461","1290167","0.0-461.0","vsy95au8","","<span style=""color:Black; font-size:50px;"">Video 1</span>","null","","","","",""
"null","","","video-keyboard-response","462","1293249","0.0-462.0","vsy95au8","","","null","","<span style=""color:Black; font-size:50px;"">Sandy","Sandy","STIM_SET_19/713681.bmp_pp53_L2_V1_veridical_freeview_isoFalse_fps144.mp4",""
"null","","","html-keyboard-response","463","1294754","0.0-463.0","vsy95au8","","<span style=""color:Black; font-size:50px;"">Video 2</span>","null","","","","",""
"null","","","video-keyboard-response","464","1297825","0.0-464.0","vsy95au8","","","null","","<span style=""color:Black; font-size:50px;"">Casey","Casey","STIM_SET_19/713681.bmp_pp96_L2_V1_veridical_freeview_isoFalse_fps144.mp4",""
"","","","call-function","465","1297825","0.0-465.0","vsy95au8","","","","","","","",""
"926.9399999999441","","","categorize-html","466","1300757","0.0-466.0","vsy95au8","","Which video showed <span style=""font-size:30px"">Sandy's</span> attention?","50","","","","","false"
"null","","","html-keyboard-response","467","1301259","0.0-467.0","vsy95au8",""," ","null","","","","",""
"","","","call-function","468","1301260","0.0-468.0","vsy95au8","","","","","","","",""
"null","","","html-keyboard-response","469","1302765","0.0-469.0","vsy95au8","","<span style=""color:Black; font-size:50px;"">Video 1</span>","null","","","","",""
"null","","","video-keyboard-response","470","1305849","0.0-470.0","vsy95au8","","","null","","<span style=""color:Black; font-size:50px;"">Sandy","Sandy","STIM_SET_19/713730.bmp_pp53_L2_V1_veridical_freeview_isoFalse_fps144.mp4",""
"null","","","html-keyboard-response","471","1307350","0.0-471.0","vsy95au8","","<span style=""color:Black; font-size:50px;"">Video 2</span>","null","","","","",""
"null","","","video-keyboard-response","472","1310423","0.0-472.0","vsy95au8","","","null","","<span style=""color:Black; font-size:50px;"">Casey","Casey","STIM_SET_19/713730.bmp_pp96_L2_V1_veridical_freeview_isoFalse_fps144.mp4",""
"","","","call-function","473","1310423","0.0-473.0","vsy95au8","","","","","","","",""
"1137.3049999999348","","","categorize-html","474","1313563","0.0-474.0","vsy95au8","","Which video showed <span style=""font-size:30px"">Sandy's</span> attention?","49","","","","","true"
"null","","","html-keyboard-response","475","1314068","0.0-475.0","vsy95au8",""," ","null","","","","",""
"","","","call-function","476","1314069","0.0-476.0","vsy95au8","","","","","","","",""
"null","","","html-keyboard-response","477","1315570","0.0-477.0","vsy95au8","","<span style=""color:Black; font-size:50px;"">Video 1</span>","null","","","","",""
"null","","","video-keyboard-response","478","1318686","0.0-478.0","vsy95au8","","","null","","<span style=""color:Black; font-size:50px;"">Sandy","Sandy","STIM_SET_19/713028.bmp_pp53_L2_V1_veridical_freeview_isoFalse_fps144.mp4",""
"null","","","html-keyboard-response","479","1320187","0.0-479.0","vsy95au8","","<span style=""color:Black; font-size:50px;"">Video 2</span>","null","","","","",""
"null","","","video-keyboard-response","480","1323303","0.0-480.0","vsy95au8","","","null","","<span style=""color:Black; font-size:50px;"">Casey","Casey","STIM_SET_19/713028.bmp_pp96_L2_V1_veridical_freeview_isoFalse_fps144.mp4",""
"","","","call-function","481","1323304","0.0-481.0","vsy95au8","","","","","","","",""
"793.0300000000279","","","categorize-html","482","1326101","0.0-482.0","vsy95au8","","Which video showed <span style=""font-size:30px"">Sandy's</span> attention?","50","","","","","false"
"null","","","html-keyboard-response","483","1326606","0.0-483.0","vsy95au8",""," ","null","","","","",""
"","","","call-function","484","1326606","0.0-484.0","vsy95au8","","","","","","","",""
"null","","","html-keyboard-response","485","1328111","0.0-485.0","vsy95au8","","<span style=""color:Black; font-size:50px;"">Video 1</span>","null","","","","",""
"null","","","video-keyboard-response","486","1331231","0.0-486.0","vsy95au8","","","null","","<span style=""color:Black; font-size:50px;"">Sandy","Sandy","STIM_SET_19/1160167.bmp_pp53_L2_V1_veridical_freeview_isoFalse_fps144.mp4",""
"null","","","html-keyboard-response","487","1332736","0.0-487.0","vsy95au8","","<span style=""color:Black; font-size:50px;"">Video 2</span>","null","","","","",""
"null","","","video-keyboard-response","488","1335840","0.0-488.0","vsy95au8","","","null","","<span style=""color:Black; font-size:50px;"">Casey","Casey","STIM_SET_19/1160167.bmp_pp96_L2_V1_veridical_freeview_isoFalse_fps144.mp4",""
"","","","call-function","489","1335841","0.0-489.0","vsy95au8","","","","","","","",""
"999.7600000000093","","","categorize-html","490","1338845","0.0-490.0","vsy95au8","","Which video showed <span style=""font-size:30px"">Sandy's</span> attention?","50","","","","","false"
"null","","","html-keyboard-response","491","1339346","0.0-491.0","vsy95au8",""," ","null","","","","",""
"","","","call-function","492","1339347","0.0-492.0","vsy95au8","","","","","","","",""
"null","","","html-keyboard-response","493","1340849","0.0-493.0","vsy95au8","","<span style=""color:Black; font-size:50px;"">Video 1</span>","null","","","","",""
"null","","","video-keyboard-response","494","1343973","0.0-494.0","vsy95au8","","","null","","<span style=""color:Black; font-size:50px;"">Sandy","Sandy","STIM_SET_19/713017.bmp_pp53_L2_V1_veridical_freeview_isoFalse_fps144.mp4",""
"null","","","html-keyboard-response","495","1345476","0.0-495.0","vsy95au8","","<span style=""color:Black; font-size:50px;"">Video 2</span>","null","","","","",""
"null","","","video-keyboard-response","496","1348575","0.0-496.0","vsy95au8","","","null","","<span style=""color:Black; font-size:50px;"">Casey","Casey","STIM_SET_19/713017.bmp_pp96_L2_V1_veridical_freeview_isoFalse_fps144.mp4",""
"","","","call-function","497","1348575","0.0-497.0","vsy95au8","","","","","","","",""
"905.4699999999721","","","categorize-html","498","1351484","0.0-498.0","vsy95au8","","Which video showed <span style=""font-size:30px"">Sandy's</span> attention?","50","","","","","false"
"null","","","html-keyboard-response","499","1351985","0.0-499.0","vsy95au8",""," ","null","","","","",""
"38119.54000000004","","","instructions","500","1390106","0.0-500.0","vsy95au8","[{""page_index"":0,""viewing_time"":37347.939999999944},{""page_index"":1,""viewing_time"":448.29000000003725},{""page_index"":2,""viewing_time"":323.1950000000652}]","","","","","","",""
"2309.6399999998976","","","instructions","501","1392416","0.0-501.0","vsy95au8","[{""page_index"":0,""viewing_time"":643.5300000000279},{""page_index"":1,""viewing_time"":900.8950000000186},{""page_index"":2,""viewing_time"":765.0999999998603}]","","","","","","",""
"","","","call-function","502","1392416","0.0-502.0","vsy95au8","","","","","","","",""
"null","","","html-keyboard-response","503","1393918","0.0-503.0","vsy95au8","","<span style=""color:Black; font-size:50px;"">Video 1</span>","null","","","","",""
"null","","","video-keyboard-response","504","1397021","0.0-504.0","vsy95au8","","","null","","<span style=""color:Black; font-size:50px;"">Casey","Casey","STIM_SET_19/1159897.bmp_pp96_L2_V1_veridical_freeview_isoFalse_fps144.mp4",""
"null","","","html-keyboard-response","505","1398524","0.0-505.0","vsy95au8","","<span style=""color:Black; font-size:50px;"">Video 2</span>","null","","","","",""
"null","","","video-keyboard-response","506","1401618","0.0-506.0","vsy95au8","","","null","","<span style=""color:Black; font-size:50px;"">Sandy","Sandy","STIM_SET_19/1159897.bmp_pp53_L2_V1_veridical_freeview_isoFalse_fps144.mp4",""
"","","","call-function","507","1401619","0.0-507.0","vsy95au8","","","","","","","",""
"1173.7250000000931","","","categorize-html","508","1404799","0.0-508.0","vsy95au8","","Which video showed <span style=""font-size:30px"">Sandy's</span> attention?","49","","","","","false"
"null","","","html-keyboard-response","509","1405301","0.0-509.0","vsy95au8",""," ","null","","","","",""
"","","","call-function","510","1405302","0.0-510.0","vsy95au8","","","","","","","",""
"null","","","html-keyboard-response","511","1406808","0.0-511.0","vsy95au8","","<span style=""color:Black; font-size:50px;"">Video 1</span>","null","","","","",""
"null","","","video-keyboard-response","512","1409896","0.0-512.0","vsy95au8","","","null","","<span style=""color:Black; font-size:50px;"">Sandy","Sandy","STIM_SET_19/1591975.bmp_pp53_L2_V1_veridical_freeview_isoFalse_fps144.mp4",""
"null","","","html-keyboard-response","513","1411399","0.0-513.0","vsy95au8","","<span style=""color:Black; font-size:50px;"">Video 2</span>","null","","","","",""
"null","","","video-keyboard-response","514","1414475","0.0-514.0","vsy95au8","","","null","","<span style=""color:Black; font-size:50px;"">Casey","Casey","STIM_SET_19/1591975.bmp_pp96_L2_V1_veridical_freeview_isoFalse_fps144.mp4",""
"","","","call-function","515","1414476","0.0-515.0","vsy95au8","","","","","","","",""
"628.315000000177","","","categorize-html","516","1417110","0.0-516.0","vsy95au8","","Which video showed <span style=""font-size:30px"">Sandy's</span> attention?","50","","","","","false"
"null","","","html-keyboard-response","517","1417613","0.0-517.0","vsy95au8",""," ","null","","","","",""
"","","","call-function","518","1417614","0.0-518.0","vsy95au8","","","","","","","",""
"null","","","html-keyboard-response","519","1419120","0.0-519.0","vsy95au8","","<span style=""color:Black; font-size:50px;"">Video 1</span>","null","","","","",""
"null","","","video-keyboard-response","520","1422199","0.0-520.0","vsy95au8","","","null","","<span style=""color:Black; font-size:50px;"">Casey","Casey","STIM_SET_19/498221.bmp_pp96_L2_V1_veridical_freeview_isoFalse_fps144.mp4",""
"null","","","html-keyboard-response","521","1423701","0.0-521.0","vsy95au8","","<span style=""color:Black; font-size:50px;"">Video 2</span>","null","","","","",""
"null","","","video-keyboard-response","522","1426786","0.0-522.0","vsy95au8","","","null","","<span style=""color:Black; font-size:50px;"">Sandy","Sandy","STIM_SET_19/498221.bmp_pp53_L2_V1_veridical_freeview_isoFalse_fps144.mp4",""
"","","","call-function","523","1426787","0.0-523.0","vsy95au8","","","","","","","",""
"1373.434999999823","","","categorize-html","524","1430163","0.0-524.0","vsy95au8","","Which video showed <span style=""font-size:30px"">Sandy's</span> attention?","49","","","","","false"
"null","","","html-keyboard-response","525","1430668","0.0-525.0","vsy95au8",""," ","null","","","","",""
"","","","call-function","526","1430669","0.0-526.0","vsy95au8","","","","","","","",""
"null","","","html-keyboard-response","527","1432175","0.0-527.0","vsy95au8","","<span style=""color:Black; font-size:50px;"">Video 1</span>","null","","","","",""
"null","","","video-keyboard-response","528","1435286","0.0-528.0","vsy95au8","","","null","","<span style=""color:Black; font-size:50px;"">Sandy","Sandy","STIM_SET_19/1159889.bmp_pp53_L2_V1_veridical_freeview_isoFalse_fps144.mp4",""
"null","","","html-keyboard-response","529","1436789","0.0-529.0","vsy95au8","","<span style=""color:Black; font-size:50px;"">Video 2</span>","null","","","","",""
"null","","","video-keyboard-response","530","1439881","0.0-530.0","vsy95au8","","","null","","<span style=""color:Black; font-size:50px;"">Casey","Casey","STIM_SET_19/1159889.bmp_pp96_L2_V1_veridical_freeview_isoFalse_fps144.mp4",""
"","","","call-function","531","1439882","0.0-531.0","vsy95au8","","","","","","","",""
"886.6100000001024","","","categorize-html","532","1442772","0.0-532.0","vsy95au8","","Which video showed <span style=""font-size:30px"">Sandy's</span> attention?","50","","","","","false"
"null","","","html-keyboard-response","533","1443278","0.0-533.0","vsy95au8",""," ","null","","","","",""
"","","","call-function","534","1443278","0.0-534.0","vsy95au8","","","","","","","",""
"null","","","html-keyboard-response","535","1444784","0.0-535.0","vsy95au8","","<span style=""color:Black; font-size:50px;"">Video 1</span>","null","","","","",""
"null","","","video-keyboard-response","536","1447882","0.0-536.0","vsy95au8","","","null","","<span style=""color:Black; font-size:50px;"">Casey","Casey","STIM_SET_19/1159813.bmp_pp96_L2_V1_veridical_freeview_isoFalse_fps144.mp4",""
"null","","","html-keyboard-response","537","1449386","0.0-537.0","vsy95au8","","<span style=""color:Black; font-size:50px;"">Video 2</span>","null","","","","",""
"null","","","video-keyboard-response","538","1452480","0.0-538.0","vsy95au8","","","null","","<span style=""color:Black; font-size:50px;"">Sandy","Sandy","STIM_SET_19/1159813.bmp_pp53_L2_V1_veridical_freeview_isoFalse_fps144.mp4",""
"","","","call-function","539","1452481","0.0-539.0","vsy95au8","","","","","","","",""
"648.1300000001211","","","categorize-html","540","1455132","0.0-540.0","vsy95au8","","Which video showed <span style=""font-size:30px"">Sandy's</span> attention?","50","","","","","true"
"null","","","html-keyboard-response","541","1455636","0.0-541.0","vsy95au8",""," ","null","","","","",""
"","","","call-function","542","1455637","0.0-542.0","vsy95au8","","","","","","","",""
"null","","","html-keyboard-response","543","1457140","0.0-543.0","vsy95au8","","<span style=""color:Black; font-size:50px;"">Video 1</span>","null","","","","",""
"null","","","video-keyboard-response","544","1460263","0.0-544.0","vsy95au8","","","null","","<span style=""color:Black; font-size:50px;"">Casey","Casey","STIM_SET_19/1592890.bmp_pp96_L2_V1_veridical_freeview_isoFalse_fps144.mp4",""
"null","","","html-keyboard-response","545","1461769","0.0-545.0","vsy95au8","","<span style=""color:Black; font-size:50px;"">Video 2</span>","null","","","","",""
"null","","","video-keyboard-response","546","1464888","0.0-546.0","vsy95au8","","","null","","<span style=""color:Black; font-size:50px;"">Sandy","Sandy","STIM_SET_19/1592890.bmp_pp53_L2_V1_veridical_freeview_isoFalse_fps144.mp4",""
"","","","call-function","547","1464888","0.0-547.0","vsy95au8","","","","","","","",""
"2264.4899999999907","","","categorize-html","548","1469159","0.0-548.0","vsy95au8","","Which video showed <span style=""font-size:30px"">Sandy's</span> attention?","49","","","","","false"
"null","","","html-keyboard-response","549","1469663","0.0-549.0","vsy95au8",""," ","null","","","","",""
"","","","call-function","550","1469664","0.0-550.0","vsy95au8","","","","","","","",""
"null","","","html-keyboard-response","551","1471166","0.0-551.0","vsy95au8","","<span style=""color:Black; font-size:50px;"">Video 1</span>","null","","","","",""
"null","","","video-keyboard-response","552","1475585","0.0-552.0","vsy95au8","","","null","","<span style=""color:Black; font-size:50px;"">Sandy","Sandy","STIM_SET_19/1160168.bmp_pp53_L2_V1_veridical_freeview_isoFalse_fps144.mp4",""
"null","","","html-keyboard-response","553","1477086","0.0-553.0","vsy95au8","","<span style=""color:Black; font-size:50px;"">Video 2</span>","null","","","","",""
"null","","","video-keyboard-response","554","1480175","0.0-554.0","vsy95au8","","","null","","<span style=""color:Black; font-size:50px;"">Casey","Casey","STIM_SET_19/1160168.bmp_pp96_L2_V1_veridical_freeview_isoFalse_fps144.mp4",""
"","","","call-function","555","1480176","0.0-555.0","vsy95au8","","","","","","","",""
"2552.9150000000373","","","categorize-html","556","1484732","0.0-556.0","vsy95au8","","Which video showed <span style=""font-size:30px"">Sandy's</span> attention?","50","","","","","false"
"null","","","html-keyboard-response","557","1485237","0.0-557.0","vsy95au8",""," ","null","","","","",""
"","","","call-function","558","1485237","0.0-558.0","vsy95au8","","","","","","","",""
"null","","","html-keyboard-response","559","1486742","0.0-559.0","vsy95au8","","<span style=""color:Black; font-size:50px;"">Video 1</span>","null","","","","",""
"null","","","video-keyboard-response","560","1489835","0.0-560.0","vsy95au8","","","null","","<span style=""color:Black; font-size:50px;"">Casey","Casey","STIM_SET_19/1160247.bmp_pp96_L2_V1_veridical_freeview_isoFalse_fps144.mp4",""
"null","","","html-keyboard-response","561","1491337","0.0-561.0","vsy95au8","","<span style=""color:Black; font-size:50px;"">Video 2</span>","null","","","","",""
"null","","","video-keyboard-response","562","1494420","0.0-562.0","vsy95au8","","","null","","<span style=""color:Black; font-size:50px;"">Sandy","Sandy","STIM_SET_19/1160247.bmp_pp53_L2_V1_veridical_freeview_isoFalse_fps144.mp4",""
"","","","call-function","563","1494421","0.0-563.0","vsy95au8","","","","","","","",""
"835.815000000177","","","categorize-html","564","1497262","0.0-564.0","vsy95au8","","Which video showed <span style=""font-size:30px"">Sandy's</span> attention?","50","","","","","true"
"null","","","html-keyboard-response","565","1497768","0.0-565.0","vsy95au8",""," ","null","","","","",""
"","","","call-function","566","1497769","0.0-566.0","vsy95au8","","","","","","","",""
"null","","","html-keyboard-response","567","1499270","0.0-567.0","vsy95au8","","<span style=""color:Black; font-size:50px;"">Video 1</span>","null","","","","",""
"null","","","video-keyboard-response","568","1502379","0.0-568.0","vsy95au8","","","null","","<span style=""color:Black; font-size:50px;"">Sandy","Sandy","STIM_SET_19/1592352.bmp_pp53_L2_V1_veridical_freeview_isoFalse_fps144.mp4",""
"null","","","html-keyboard-response","569","1503881","0.0-569.0","vsy95au8","","<span style=""color:Black; font-size:50px;"">Video 2</span>","null","","","","",""
"null","","","video-keyboard-response","570","1507037","0.0-570.0","vsy95au8","","","null","","<span style=""color:Black; font-size:50px;"">Casey","Casey","STIM_SET_19/1592352.bmp_pp96_L2_V1_veridical_freeview_isoFalse_fps144.mp4",""
"","","","call-function","571","1507038","0.0-571.0","vsy95au8","","","","","","","",""
"2410.9250000000466","","","categorize-html","572","1511456","0.0-572.0","vsy95au8","","Which video showed <span style=""font-size:30px"">Sandy's</span> attention?","49","","","","","true"
"null","","","html-keyboard-response","573","1511963","0.0-573.0","vsy95au8",""," ","null","","","","",""
"","","","call-function","574","1511963","0.0-574.0","vsy95au8","","","","","","","",""
"null","","","html-keyboard-response","575","1513466","0.0-575.0","vsy95au8","","<span style=""color:Black; font-size:50px;"">Video 1</span>","null","","","","",""
"null","","","video-keyboard-response","576","1516587","0.0-576.0","vsy95au8","","","null","","<span style=""color:Black; font-size:50px;"">Sandy","Sandy","STIM_SET_19/713142.bmp_pp53_L2_V1_veridical_freeview_isoFalse_fps144.mp4",""
"null","","","html-keyboard-response","577","1518089","0.0-577.0","vsy95au8","","<span style=""color:Black; font-size:50px;"">Video 2</span>","null","","","","",""
"null","","","video-keyboard-response","578","1521199","0.0-578.0","vsy95au8","","","null","","<span style=""color:Black; font-size:50px;"">Casey","Casey","STIM_SET_19/713142.bmp_pp96_L2_V1_veridical_freeview_isoFalse_fps144.mp4",""
"","","","call-function","579","1521199","0.0-579.0","vsy95au8","","","","","","","",""
"1161.8649999999907","","","categorize-html","580","1524365","0.0-580.0","vsy95au8","","Which video showed <span style=""font-size:30px"">Sandy's</span> attention?","50","","","","","false"
"null","","","html-keyboard-response","581","1524870","0.0-581.0","vsy95au8",""," ","null","","","","",""
"4132.719999999972","","","instructions","582","1529003","0.0-582.0","vsy95au8","[{""page_index"":0,""viewing_time"":4132.51500000013}]","","","","","","",""
"4531.290000000037","","","instructions","583","1533535","0.0-583.0","vsy95au8","[{""page_index"":0,""viewing_time"":4531.185000000056}]","","","","","","",""
"62972.10000000009","{""Q0"":""I was confused about what the differences between Sally and Casey were - at one point i thought i did but it wasnt the case for the other parts \n""}","","survey-text","584","1596512","0.0-584.0","vsy95au8","","","","","","","",""
"30462.684999999823","{""Q0"":""i tried to see if there was a type of eye movement sally did frequently or object and distances she focused on""}","","survey-text","585","1626977","0.0-585.0","vsy95au8","","","","","","","",""
"35938.36499999999","{""Q0"":""most difficult was when both videos showed similar eye movements to the point where i was confused what the difference was""}","","survey-text","586","1662919","0.0-586.0","vsy95au8","","","","","","","",""
"3367.475000000093","","","instructions","587","1666288","0.0-587.0","vsy95au8","[{""page_index"":0,""viewing_time"":3366.5}]","","","","","","",""
"99403.41999999993","{""Experimenter_end"":[""Printed ID# vsy95au8 on consent form"",""Given subject SONA credit or payment"",""Given the subject debrief form""]}","[0]","survey-multi-select","588","1765694","0.0-588.0","vsy95au8","","","","","","","",""
