"rt","responses","question_order","trial_type","trial_index","time_elapsed","internal_node_id","ID","view_history","stimulus","key_press","value","agent","condition","image","correct"
"7124.285000000001","{""Experimenter"":[""Confirmed subject's identity (ID card)"",""Confirmed normal or corrected-to-normal vision"",""Obtained consent (signature and date)"",""Checked the test room lighting"",""Checked computer screen lighting"",""Checked distance from screen to chin rest (50cm)"",""Cleaned and adjusted chin rest"",""Counterbalanced the order of the tasks"",""Opened the experiment in Firefox"",""Made the experiment full screen"",""Encouraged subject to silence phone, put away distractors, etc.""]}","[0]","survey-multi-select","0","7134","0.0-0.0","b7jflaw0","","","","","","","",""
"599732.38","","","instructions","1","606869","0.0-1.0","b7jflaw0","[{""page_index"":0,""viewing_time"":599732.225}]","","","","","","",""
"27176.36499999999","","","instructions","2","634046","0.0-2.0","b7jflaw0","[{""page_index"":0,""viewing_time"":1243.2000000000698},{""page_index"":1,""viewing_time"":21592.064999999944},{""page_index"":2,""viewing_time"":4340.979999999981}]","","","","","","",""
"2576.3850000000093","","","instructions","3","636623","0.0-3.0","b7jflaw0","[{""page_index"":0,""viewing_time"":2576.2850000000326}]","","","","","","",""
"null","","","video-keyboard-response","4","639699","0.0-4.0","b7jflaw0","","","null","","","","",""
"54141.57500000007","","","instructions","5","693841","0.0-5.0","b7jflaw0","[{""page_index"":0,""viewing_time"":4338.604999999981},{""page_index"":1,""viewing_time"":4807.915000000037},{""page_index"":2,""viewing_time"":1117.9499999999534},{""page_index"":3,""viewing_time"":21225.95000000007},{""page_index"":4,""viewing_time"":3057.4000000000233},{""page_index"":5,""viewing_time"":10499.204999999958},{""page_index"":6,""viewing_time"":6943.369999999995},{""page_index"":7,""viewing_time"":2151.055000000051}]","","","","","","",""
"6108.790000000037","","","instructions","6","699950","0.0-6.0","b7jflaw0","[{""page_index"":0,""viewing_time"":6108.660000000033}]","","","","","","",""
"1837.9350000000559","","","instructions","7","701789","0.0-7.0","b7jflaw0","[{""page_index"":0,""viewing_time"":1837.6750000000466}]","","","","","","",""
"","","","call-function","8","701789","0.0-8.0","b7jflaw0","","","","","","","",""
"null","","","html-keyboard-response","9","703295","0.0-9.0","b7jflaw0","","<span style=""color:Black; font-size:50px;"">Video 1</span>","null","","","","",""
"null","","","video-keyboard-response","10","706354","0.0-10.0","b7jflaw0","","","null","","<span style=""color:Black; font-size:50px;"">Casey","Casey","STIM_SET_1/713330.bmp_pp58_L1_V1_veridical_freeview_isoFalse_fps144.mp4",""
"null","","","html-keyboard-response","11","707859","0.0-11.0","b7jflaw0","","<span style=""color:Black; font-size:50px;"">Video 2</span>","null","","","","",""
"null","","","video-keyboard-response","12","710940","0.0-12.0","b7jflaw0","","","null","","<span style=""color:Black; font-size:50px;"">Sandy","Sandy","STIM_SET_1/713330.bmp_pp154_L1_V1_veridical_freeview_isoFalse_fps144.mp4",""
"","","","call-function","13","710940","0.0-13.0","b7jflaw0","","","","","","","",""
"2282.4599999999627","","","categorize-html","14","715227","0.0-14.0","b7jflaw0","","Which video showed <span style=""font-size:30px"">Sandy's</span> attention?","49","","","","","false"
"null","","","html-keyboard-response","15","715731","0.0-15.0","b7jflaw0",""," ","null","","","","",""
"","","","call-function","16","715732","0.0-16.0","b7jflaw0","","","","","","","",""
"null","","","html-keyboard-response","17","717234","0.0-17.0","b7jflaw0","","<span style=""color:Black; font-size:50px;"">Video 1</span>","null","","","","",""
"null","","","video-keyboard-response","18","720313","0.0-18.0","b7jflaw0","","","null","","<span style=""color:Black; font-size:50px;"">Sandy","Sandy","STIM_SET_1/1159768.bmp_pp154_L1_V1_veridical_freeview_isoFalse_fps144.mp4",""
"null","","","html-keyboard-response","19","721816","0.0-19.0","b7jflaw0","","<span style=""color:Black; font-size:50px;"">Video 2</span>","null","","","","",""
"null","","","video-keyboard-response","20","724919","0.0-20.0","b7jflaw0","","","null","","<span style=""color:Black; font-size:50px;"">Casey","Casey","STIM_SET_1/1159768.bmp_pp58_L1_V1_veridical_freeview_isoFalse_fps144.mp4",""
"","","","call-function","21","724921","0.0-21.0","b7jflaw0","","","","","","","",""
"1589.0199999999022","","","categorize-html","22","728513","0.0-22.0","b7jflaw0","","Which video showed <span style=""font-size:30px"">Sandy's</span> attention?","49","","","","","true"
"null","","","html-keyboard-response","23","729016","0.0-23.0","b7jflaw0",""," ","null","","","","",""
"","","","call-function","24","729016","0.0-24.0","b7jflaw0","","","","","","","",""
"null","","","html-keyboard-response","25","730518","0.0-25.0","b7jflaw0","","<span style=""color:Black; font-size:50px;"">Video 1</span>","null","","","","",""
"null","","","video-keyboard-response","26","733628","0.0-26.0","b7jflaw0","","","null","","<span style=""color:Black; font-size:50px;"">Sandy","Sandy","STIM_SET_1/150432.bmp_pp154_L1_V1_veridical_freeview_isoFalse_fps144.mp4",""
"null","","","html-keyboard-response","27","735129","0.0-27.0","b7jflaw0","","<span style=""color:Black; font-size:50px;"">Video 2</span>","null","","","","",""
"null","","","video-keyboard-response","28","738218","0.0-28.0","b7jflaw0","","","null","","<span style=""color:Black; font-size:50px;"">Casey","Casey","STIM_SET_1/150432.bmp_pp58_L1_V1_veridical_freeview_isoFalse_fps144.mp4",""
"","","","call-function","29","738219","0.0-29.0","b7jflaw0","","","","","","","",""
"914.7750000000233","","","categorize-html","30","741136","0.0-30.0","b7jflaw0","","Which video showed <span style=""font-size:30px"">Sandy's</span> attention?","50","","","","","false"
"null","","","html-keyboard-response","31","741638","0.0-31.0","b7jflaw0",""," ","null","","","","",""
"","","","call-function","32","741638","0.0-32.0","b7jflaw0","","","","","","","",""
"null","","","html-keyboard-response","33","743139","0.0-33.0","b7jflaw0","","<span style=""color:Black; font-size:50px;"">Video 1</span>","null","","","","",""
"null","","","video-keyboard-response","34","746246","0.0-34.0","b7jflaw0","","","null","","<span style=""color:Black; font-size:50px;"">Sandy","Sandy","STIM_SET_1/1593056.bmp_pp154_L1_V1_veridical_freeview_isoFalse_fps144.mp4",""
"null","","","html-keyboard-response","35","747752","0.0-35.0","b7jflaw0","","<span style=""color:Black; font-size:50px;"">Video 2</span>","null","","","","",""
"null","","","video-keyboard-response","36","750869","0.0-36.0","b7jflaw0","","","null","","<span style=""color:Black; font-size:50px;"">Casey","Casey","STIM_SET_1/1593056.bmp_pp58_L1_V1_veridical_freeview_isoFalse_fps144.mp4",""
"","","","call-function","37","750870","0.0-37.0","b7jflaw0","","","","","","","",""
"559.9250000000466","","","categorize-html","38","753433","0.0-38.0","b7jflaw0","","Which video showed <span style=""font-size:30px"">Sandy's</span> attention?","50","","","","","false"
"null","","","html-keyboard-response","39","753936","0.0-39.0","b7jflaw0",""," ","null","","","","",""
"","","","call-function","40","753936","0.0-40.0","b7jflaw0","","","","","","","",""
"null","","","html-keyboard-response","41","755440","0.0-41.0","b7jflaw0","","<span style=""color:Black; font-size:50px;"">Video 1</span>","null","","","","",""
"null","","","video-keyboard-response","42","758530","0.0-42.0","b7jflaw0","","","null","","<span style=""color:Black; font-size:50px;"">Sandy","Sandy","STIM_SET_1/713593.bmp_pp154_L1_V1_veridical_freeview_isoFalse_fps144.mp4",""
"null","","","html-keyboard-response","43","760033","0.0-43.0","b7jflaw0","","<span style=""color:Black; font-size:50px;"">Video 2</span>","null","","","","",""
"null","","","video-keyboard-response","44","763134","0.0-44.0","b7jflaw0","","","null","","<span style=""color:Black; font-size:50px;"">Casey","Casey","STIM_SET_1/713593.bmp_pp58_L1_V1_veridical_freeview_isoFalse_fps144.mp4",""
"","","","call-function","45","763134","0.0-45.0","b7jflaw0","","","","","","","",""
"1391.4799999999814","","","categorize-html","46","766530","0.0-46.0","b7jflaw0","","Which video showed <span style=""font-size:30px"">Sandy's</span> attention?","50","","","","","false"
"null","","","html-keyboard-response","47","767033","0.0-47.0","b7jflaw0",""," ","null","","","","",""
"","","","call-function","48","767033","0.0-48.0","b7jflaw0","","","","","","","",""
"null","","","html-keyboard-response","49","768538","0.0-49.0","b7jflaw0","","<span style=""color:Black; font-size:50px;"">Video 1</span>","null","","","","",""
"null","","","video-keyboard-response","50","771596","0.0-50.0","b7jflaw0","","","null","","<span style=""color:Black; font-size:50px;"">Casey","Casey","STIM_SET_1/713024.bmp_pp58_L1_V1_veridical_freeview_isoFalse_fps144.mp4",""
"null","","","html-keyboard-response","51","773099","0.0-51.0","b7jflaw0","","<span style=""color:Black; font-size:50px;"">Video 2</span>","null","","","","",""
"null","","","video-keyboard-response","52","776160","0.0-52.0","b7jflaw0","","","null","","<span style=""color:Black; font-size:50px;"">Sandy","Sandy","STIM_SET_1/713024.bmp_pp154_L1_V1_veridical_freeview_isoFalse_fps144.mp4",""
"","","","call-function","53","776160","0.0-53.0","b7jflaw0","","","","","","","",""
"389.75","","","categorize-html","54","778555","0.0-54.0","b7jflaw0","","Which video showed <span style=""font-size:30px"">Sandy's</span> attention?","49","","","","","false"
"null","","","html-keyboard-response","55","779057","0.0-55.0","b7jflaw0",""," ","null","","","","",""
"","","","call-function","56","779057","0.0-56.0","b7jflaw0","","","","","","","",""
"null","","","html-keyboard-response","57","780564","0.0-57.0","b7jflaw0","","<span style=""color:Black; font-size:50px;"">Video 1</span>","null","","","","",""
"null","","","video-keyboard-response","58","783638","0.0-58.0","b7jflaw0","","","null","","<span style=""color:Black; font-size:50px;"">Sandy","Sandy","STIM_SET_1/713450.bmp_pp154_L1_V1_veridical_freeview_isoFalse_fps144.mp4",""
"null","","","html-keyboard-response","59","785144","0.0-59.0","b7jflaw0","","<span style=""color:Black; font-size:50px;"">Video 2</span>","null","","","","",""
"null","","","video-keyboard-response","60","788237","0.0-60.0","b7jflaw0","","","null","","<span style=""color:Black; font-size:50px;"">Casey","Casey","STIM_SET_1/713450.bmp_pp58_L1_V1_veridical_freeview_isoFalse_fps144.mp4",""
"","","","call-function","61","788237","0.0-61.0","b7jflaw0","","","","","","","",""
"480.6600000000326","","","categorize-html","62","790721","0.0-62.0","b7jflaw0","","Which video showed <span style=""font-size:30px"">Sandy's</span> attention?","50","","","","","false"
"null","","","html-keyboard-response","63","791223","0.0-63.0","b7jflaw0",""," ","null","","","","",""
"","","","call-function","64","791223","0.0-64.0","b7jflaw0","","","","","","","",""
"null","","","html-keyboard-response","65","792727","0.0-65.0","b7jflaw0","","<span style=""color:Black; font-size:50px;"">Video 1</span>","null","","","","",""
"null","","","video-keyboard-response","66","795826","0.0-66.0","b7jflaw0","","","null","","<span style=""color:Black; font-size:50px;"">Sandy","Sandy","STIM_SET_1/498398.bmp_pp154_L1_V1_veridical_freeview_isoFalse_fps144.mp4",""
"null","","","html-keyboard-response","67","797328","0.0-67.0","b7jflaw0","","<span style=""color:Black; font-size:50px;"">Video 2</span>","null","","","","",""
"null","","","video-keyboard-response","68","800435","0.0-68.0","b7jflaw0","","","null","","<span style=""color:Black; font-size:50px;"">Casey","Casey","STIM_SET_1/498398.bmp_pp58_L1_V1_veridical_freeview_isoFalse_fps144.mp4",""
"","","","call-function","69","800435","0.0-69.0","b7jflaw0","","","","","","","",""
"426.4650000000838","","","categorize-html","70","802865","0.0-70.0","b7jflaw0","","Which video showed <span style=""font-size:30px"">Sandy's</span> attention?","49","","","","","true"
"null","","","html-keyboard-response","71","803368","0.0-71.0","b7jflaw0",""," ","null","","","","",""
"","","","call-function","72","803369","0.0-72.0","b7jflaw0","","","","","","","",""
"null","","","html-keyboard-response","73","804875","0.0-73.0","b7jflaw0","","<span style=""color:Black; font-size:50px;"">Video 1</span>","null","","","","",""
"null","","","video-keyboard-response","74","807987","0.0-74.0","b7jflaw0","","","null","","<span style=""color:Black; font-size:50px;"">Casey","Casey","STIM_SET_1/713174.bmp_pp58_L1_V1_veridical_freeview_isoFalse_fps144.mp4",""
"null","","","html-keyboard-response","75","809492","0.0-75.0","b7jflaw0","","<span style=""color:Black; font-size:50px;"">Video 2</span>","null","","","","",""
"null","","","video-keyboard-response","76","812582","0.0-76.0","b7jflaw0","","","null","","<span style=""color:Black; font-size:50px;"">Sandy","Sandy","STIM_SET_1/713174.bmp_pp154_L1_V1_veridical_freeview_isoFalse_fps144.mp4",""
"","","","call-function","77","812582","0.0-77.0","b7jflaw0","","","","","","","",""
"919.5500000000466","","","categorize-html","78","815506","0.0-78.0","b7jflaw0","","Which video showed <span style=""font-size:30px"">Sandy's</span> attention?","50","","","","","true"
"null","","","html-keyboard-response","79","816008","0.0-79.0","b7jflaw0",""," ","null","","","","",""
"","","","call-function","80","816008","0.0-80.0","b7jflaw0","","","","","","","",""
"null","","","html-keyboard-response","81","817513","0.0-81.0","b7jflaw0","","<span style=""color:Black; font-size:50px;"">Video 1</span>","null","","","","",""
"null","","","video-keyboard-response","82","820633","0.0-82.0","b7jflaw0","","","null","","<span style=""color:Black; font-size:50px;"">Casey","Casey","STIM_SET_1/1592836.bmp_pp58_L1_V1_veridical_freeview_isoFalse_fps144.mp4",""
"null","","","html-keyboard-response","83","822138","0.0-83.0","b7jflaw0","","<span style=""color:Black; font-size:50px;"">Video 2</span>","null","","","","",""
"null","","","video-keyboard-response","84","825251","0.0-84.0","b7jflaw0","","","null","","<span style=""color:Black; font-size:50px;"">Sandy","Sandy","STIM_SET_1/1592836.bmp_pp154_L1_V1_veridical_freeview_isoFalse_fps144.mp4",""
"","","","call-function","85","825251","0.0-85.0","b7jflaw0","","","","","","","",""
"594.5650000000605","","","categorize-html","86","827852","0.0-86.0","b7jflaw0","","Which video showed <span style=""font-size:30px"">Sandy's</span> attention?","50","","","","","true"
"null","","","html-keyboard-response","87","828358","0.0-87.0","b7jflaw0",""," ","null","","","","",""
"3485.7949999999255","","","instructions","88","831845","0.0-88.0","b7jflaw0","[{""page_index"":0,""viewing_time"":1854.5649999999441},{""page_index"":1,""viewing_time"":948.1999999999534},{""page_index"":2,""viewing_time"":682.9200000000419}]","","","","","","",""
"3032.75","","","instructions","89","834878","0.0-89.0","b7jflaw0","[{""page_index"":0,""viewing_time"":697.4749999999767},{""page_index"":1,""viewing_time"":1740.045000000042},{""page_index"":2,""viewing_time"":595.0999999999767}]","","","","","","",""
"","","","call-function","90","834878","0.0-90.0","b7jflaw0","","","","","","","",""
"null","","","html-keyboard-response","91","836379","0.0-91.0","b7jflaw0","","<span style=""color:Black; font-size:50px;"">Video 1</span>","null","","","","",""
"null","","","video-keyboard-response","92","839458","0.0-92.0","b7jflaw0","","","null","","<span style=""color:Black; font-size:50px;"">Sandy","Sandy","STIM_SET_1/285933.bmp_pp154_L1_V1_veridical_freeview_isoFalse_fps144.mp4",""
"null","","","html-keyboard-response","93","840962","0.0-93.0","b7jflaw0","","<span style=""color:Black; font-size:50px;"">Video 2</span>","null","","","","",""
"null","","","video-keyboard-response","94","844023","0.0-94.0","b7jflaw0","","","null","","<span style=""color:Black; font-size:50px;"">Casey","Casey","STIM_SET_1/285933.bmp_pp58_L1_V1_veridical_freeview_isoFalse_fps144.mp4",""
"","","","call-function","95","844023","0.0-95.0","b7jflaw0","","","","","","","",""
"718.5","","","categorize-html","96","846747","0.0-96.0","b7jflaw0","","Which video showed <span style=""font-size:30px"">Sandy's</span> attention?","49","","","","","true"
"null","","","html-keyboard-response","97","847252","0.0-97.0","b7jflaw0",""," ","null","","","","",""
"","","","call-function","98","847252","0.0-98.0","b7jflaw0","","","","","","","",""
"null","","","html-keyboard-response","99","848755","0.0-99.0","b7jflaw0","","<span style=""color:Black; font-size:50px;"">Video 1</span>","null","","","","",""
"null","","","video-keyboard-response","100","851844","0.0-100.0","b7jflaw0","","","null","","<span style=""color:Black; font-size:50px;"">Casey","Casey","STIM_SET_1/285992.bmp_pp58_L1_V1_veridical_freeview_isoFalse_fps144.mp4",""
"null","","","html-keyboard-response","101","853348","0.0-101.0","b7jflaw0","","<span style=""color:Black; font-size:50px;"">Video 2</span>","null","","","","",""
"null","","","video-keyboard-response","102","856432","0.0-102.0","b7jflaw0","","","null","","<span style=""color:Black; font-size:50px;"">Sandy","Sandy","STIM_SET_1/285992.bmp_pp154_L1_V1_veridical_freeview_isoFalse_fps144.mp4",""
"","","","call-function","103","856432","0.0-103.0","b7jflaw0","","","","","","","",""
"717.4050000000279","","","categorize-html","104","859156","0.0-104.0","b7jflaw0","","Which video showed <span style=""font-size:30px"">Sandy's</span> attention?","50","","","","","true"
"null","","","html-keyboard-response","105","859657","0.0-105.0","b7jflaw0",""," ","null","","","","",""
"","","","call-function","106","859658","0.0-106.0","b7jflaw0","","","","","","","",""
"null","","","html-keyboard-response","107","861159","0.0-107.0","b7jflaw0","","<span style=""color:Black; font-size:50px;"">Video 1</span>","null","","","","",""
"null","","","video-keyboard-response","108","864250","0.0-108.0","b7jflaw0","","","null","","<span style=""color:Black; font-size:50px;"">Sandy","Sandy","STIM_SET_1/713765.bmp_pp154_L1_V1_veridical_freeview_isoFalse_fps144.mp4",""
"null","","","html-keyboard-response","109","865754","0.0-109.0","b7jflaw0","","<span style=""color:Black; font-size:50px;"">Video 2</span>","null","","","","",""
"null","","","video-keyboard-response","110","868836","0.0-110.0","b7jflaw0","","","null","","<span style=""color:Black; font-size:50px;"">Casey","Casey","STIM_SET_1/713765.bmp_pp58_L1_V1_veridical_freeview_isoFalse_fps144.mp4",""
"","","","call-function","111","868836","0.0-111.0","b7jflaw0","","","","","","","",""
"489.67500000004657","","","categorize-html","112","871330","0.0-112.0","b7jflaw0","","Which video showed <span style=""font-size:30px"">Sandy's</span> attention?","50","","","","","false"
"null","","","html-keyboard-response","113","871834","0.0-113.0","b7jflaw0",""," ","null","","","","",""
"","","","call-function","114","871835","0.0-114.0","b7jflaw0","","","","","","","",""
"null","","","html-keyboard-response","115","873336","0.0-115.0","b7jflaw0","","<span style=""color:Black; font-size:50px;"">Video 1</span>","null","","","","",""
"null","","","video-keyboard-response","116","876460","0.0-116.0","b7jflaw0","","","null","","<span style=""color:Black; font-size:50px;"">Sandy","Sandy","STIM_SET_1/1160140.bmp_pp154_L1_V1_veridical_freeview_isoFalse_fps144.mp4",""
"null","","","html-keyboard-response","117","877962","0.0-117.0","b7jflaw0","","<span style=""color:Black; font-size:50px;"">Video 2</span>","null","","","","",""
"null","","","video-keyboard-response","118","881063","0.0-118.0","b7jflaw0","","","null","","<span style=""color:Black; font-size:50px;"">Casey","Casey","STIM_SET_1/1160140.bmp_pp58_L1_V1_veridical_freeview_isoFalse_fps144.mp4",""
"","","","call-function","119","881063","0.0-119.0","b7jflaw0","","","","","","","",""
"462.8950000000186","","","categorize-html","120","883531","0.0-120.0","b7jflaw0","","Which video showed <span style=""font-size:30px"">Sandy's</span> attention?","49","","","","","true"
"null","","","html-keyboard-response","121","884035","0.0-121.0","b7jflaw0",""," ","null","","","","",""
"","","","call-function","122","884035","0.0-122.0","b7jflaw0","","","","","","","",""
"null","","","html-keyboard-response","123","885538","0.0-123.0","b7jflaw0","","<span style=""color:Black; font-size:50px;"">Video 1</span>","null","","","","",""
"null","","","video-keyboard-response","124","888628","0.0-124.0","b7jflaw0","","","null","","<span style=""color:Black; font-size:50px;"">Casey","Casey","STIM_SET_1/1592017.bmp_pp58_L1_V1_veridical_freeview_isoFalse_fps144.mp4",""
"null","","","html-keyboard-response","125","890134","0.0-125.0","b7jflaw0","","<span style=""color:Black; font-size:50px;"">Video 2</span>","null","","","","",""
"null","","","video-keyboard-response","126","893218","0.0-126.0","b7jflaw0","","","null","","<span style=""color:Black; font-size:50px;"">Sandy","Sandy","STIM_SET_1/1592017.bmp_pp154_L1_V1_veridical_freeview_isoFalse_fps144.mp4",""
"","","","call-function","127","893218","0.0-127.0","b7jflaw0","","","","","","","",""
"1075.5800000000745","","","categorize-html","128","896301","0.0-128.0","b7jflaw0","","Which video showed <span style=""font-size:30px"">Sandy's</span> attention?","50","","","","","true"
"null","","","html-keyboard-response","129","896805","0.0-129.0","b7jflaw0",""," ","null","","","","",""
"","","","call-function","130","896805","0.0-130.0","b7jflaw0","","","","","","","",""
"null","","","html-keyboard-response","131","898309","0.0-131.0","b7jflaw0","","<span style=""color:Black; font-size:50px;"">Video 1</span>","null","","","","",""
"null","","","video-keyboard-response","132","901403","0.0-132.0","b7jflaw0","","","null","","<span style=""color:Black; font-size:50px;"">Sandy","Sandy","STIM_SET_1/713770.bmp_pp154_L1_V1_veridical_freeview_isoFalse_fps144.mp4",""
"null","","","html-keyboard-response","133","902905","0.0-133.0","b7jflaw0","","<span style=""color:Black; font-size:50px;"">Video 2</span>","null","","","","",""
"null","","","video-keyboard-response","134","905980","0.0-134.0","b7jflaw0","","","null","","<span style=""color:Black; font-size:50px;"">Casey","Casey","STIM_SET_1/713770.bmp_pp58_L1_V1_veridical_freeview_isoFalse_fps144.mp4",""
"","","","call-function","135","905980","0.0-135.0","b7jflaw0","","","","","","","",""
"321.67500000004657","","","categorize-html","136","908306","0.0-136.0","b7jflaw0","","Which video showed <span style=""font-size:30px"">Sandy's</span> attention?","49","","","","","true"
"null","","","html-keyboard-response","137","908810","0.0-137.0","b7jflaw0",""," ","null","","","","",""
"","","","call-function","138","908810","0.0-138.0","b7jflaw0","","","","","","","",""
"null","","","html-keyboard-response","139","910312","0.0-139.0","b7jflaw0","","<span style=""color:Black; font-size:50px;"">Video 1</span>","null","","","","",""
"null","","","video-keyboard-response","140","913389","0.0-140.0","b7jflaw0","","","null","","<span style=""color:Black; font-size:50px;"">Casey","Casey","STIM_SET_1/1159408.bmp_pp58_L1_V1_veridical_freeview_isoFalse_fps144.mp4",""
"null","","","html-keyboard-response","141","914890","0.0-141.0","b7jflaw0","","<span style=""color:Black; font-size:50px;"">Video 2</span>","null","","","","",""
"null","","","video-keyboard-response","142","917951","0.0-142.0","b7jflaw0","","","null","","<span style=""color:Black; font-size:50px;"">Sandy","Sandy","STIM_SET_1/1159408.bmp_pp154_L1_V1_veridical_freeview_isoFalse_fps144.mp4",""
"","","","call-function","143","917952","0.0-143.0","b7jflaw0","","","","","","","",""
"382.46999999997206","","","categorize-html","144","920341","0.0-144.0","b7jflaw0","","Which video showed <span style=""font-size:30px"">Sandy's</span> attention?","49","","","","","false"
"null","","","html-keyboard-response","145","920847","0.0-145.0","b7jflaw0",""," ","null","","","","",""
"","","","call-function","146","920847","0.0-146.0","b7jflaw0","","","","","","","",""
"null","","","html-keyboard-response","147","922348","0.0-147.0","b7jflaw0","","<span style=""color:Black; font-size:50px;"">Video 1</span>","null","","","","",""
"null","","","video-keyboard-response","148","925465","0.0-148.0","b7jflaw0","","","null","","<span style=""color:Black; font-size:50px;"">Casey","Casey","STIM_SET_1/713888.bmp_pp58_L1_V1_veridical_freeview_isoFalse_fps144.mp4",""
"null","","","html-keyboard-response","149","926971","0.0-149.0","b7jflaw0","","<span style=""color:Black; font-size:50px;"">Video 2</span>","null","","","","",""
"null","","","video-keyboard-response","150","930099","0.0-150.0","b7jflaw0","","","null","","<span style=""color:Black; font-size:50px;"">Sandy","Sandy","STIM_SET_1/713888.bmp_pp154_L1_V1_veridical_freeview_isoFalse_fps144.mp4",""
"","","","call-function","151","930100","0.0-151.0","b7jflaw0","","","","","","","",""
"1186.3149999999441","","","categorize-html","152","933289","0.0-152.0","b7jflaw0","","Which video showed <span style=""font-size:30px"">Sandy's</span> attention?","49","","","","","false"
"null","","","html-keyboard-response","153","933792","0.0-153.0","b7jflaw0",""," ","null","","","","",""
"","","","call-function","154","933793","0.0-154.0","b7jflaw0","","","","","","","",""
"null","","","html-keyboard-response","155","935299","0.0-155.0","b7jflaw0","","<span style=""color:Black; font-size:50px;"">Video 1</span>","null","","","","",""
"null","","","video-keyboard-response","156","938415","0.0-156.0","b7jflaw0","","","null","","<span style=""color:Black; font-size:50px;"">Sandy","Sandy","STIM_SET_1/713228.bmp_pp154_L1_V1_veridical_freeview_isoFalse_fps144.mp4",""
"null","","","html-keyboard-response","157","939917","0.0-157.0","b7jflaw0","","<span style=""color:Black; font-size:50px;"">Video 2</span>","null","","","","",""
"null","","","video-keyboard-response","158","943007","0.0-158.0","b7jflaw0","","","null","","<span style=""color:Black; font-size:50px;"">Casey","Casey","STIM_SET_1/713228.bmp_pp58_L1_V1_veridical_freeview_isoFalse_fps144.mp4",""
"","","","call-function","159","943007","0.0-159.0","b7jflaw0","","","","","","","",""
"463","","","categorize-html","160","945476","0.0-160.0","b7jflaw0","","Which video showed <span style=""font-size:30px"">Sandy's</span> attention?","50","","","","","false"
"null","","","html-keyboard-response","161","945979","0.0-161.0","b7jflaw0",""," ","null","","","","",""
"","","","call-function","162","945979","0.0-162.0","b7jflaw0","","","","","","","",""
"null","","","html-keyboard-response","163","947482","0.0-163.0","b7jflaw0","","<span style=""color:Black; font-size:50px;"">Video 1</span>","null","","","","",""
"null","","","video-keyboard-response","164","950597","0.0-164.0","b7jflaw0","","","null","","<span style=""color:Black; font-size:50px;"">Casey","Casey","STIM_SET_1/150273.bmp_pp58_L1_V1_veridical_freeview_isoFalse_fps144.mp4",""
"null","","","html-keyboard-response","165","952103","0.0-165.0","b7jflaw0","","<span style=""color:Black; font-size:50px;"">Video 2</span>","null","","","","",""
"null","","","video-keyboard-response","166","955204","0.0-166.0","b7jflaw0","","","null","","<span style=""color:Black; font-size:50px;"">Sandy","Sandy","STIM_SET_1/150273.bmp_pp154_L1_V1_veridical_freeview_isoFalse_fps144.mp4",""
"","","","call-function","167","955204","0.0-167.0","b7jflaw0","","","","","","","",""
"729.7900000000373","","","categorize-html","168","957937","0.0-168.0","b7jflaw0","","Which video showed <span style=""font-size:30px"">Sandy's</span> attention?","49","","","","","false"
"null","","","html-keyboard-response","169","958441","0.0-169.0","b7jflaw0",""," ","null","","","","",""
"2209.984999999986","","","instructions","170","960651","0.0-170.0","b7jflaw0","[{""page_index"":0,""viewing_time"":1425.859999999986},{""page_index"":1,""viewing_time"":506.97500000009313},{""page_index"":2,""viewing_time"":277.0349999999162}]","","","","","","",""
"1283.7149999999674","","","instructions","171","961935","0.0-171.0","b7jflaw0","[{""page_index"":0,""viewing_time"":258.60999999998603},{""page_index"":1,""viewing_time"":496.8950000000186},{""page_index"":2,""viewing_time"":528.0949999999721}]","","","","","","",""
"","","","call-function","172","961935","0.0-172.0","b7jflaw0","","","","","","","",""
"null","","","html-keyboard-response","173","963437","0.0-173.0","b7jflaw0","","<span style=""color:Black; font-size:50px;"">Video 1</span>","null","","","","",""
"null","","","video-keyboard-response","174","966577","0.0-174.0","b7jflaw0","","","null","","<span style=""color:Black; font-size:50px;"">Sandy","Sandy","STIM_SET_1/713786.bmp_pp154_L1_V1_veridical_freeview_isoFalse_fps144.mp4",""
"null","","","html-keyboard-response","175","968082","0.0-175.0","b7jflaw0","","<span style=""color:Black; font-size:50px;"">Video 2</span>","null","","","","",""
"null","","","video-keyboard-response","176","971158","0.0-176.0","b7jflaw0","","","null","","<span style=""color:Black; font-size:50px;"">Casey","Casey","STIM_SET_1/713786.bmp_pp58_L1_V1_veridical_freeview_isoFalse_fps144.mp4",""
"","","","call-function","177","971158","0.0-177.0","b7jflaw0","","","","","","","",""
"311.80999999993946","","","categorize-html","178","973477","0.0-178.0","b7jflaw0","","Which video showed <span style=""font-size:30px"">Sandy's</span> attention?","49","","","","","true"
"null","","","html-keyboard-response","179","973978","0.0-179.0","b7jflaw0",""," ","null","","","","",""
"","","","call-function","180","973979","0.0-180.0","b7jflaw0","","","","","","","",""
"null","","","html-keyboard-response","181","975485","0.0-181.0","b7jflaw0","","<span style=""color:Black; font-size:50px;"">Video 1</span>","null","","","","",""
"null","","","video-keyboard-response","182","978544","0.0-182.0","b7jflaw0","","","null","","<span style=""color:Black; font-size:50px;"">Sandy","Sandy","STIM_SET_1/1592119.bmp_pp154_L1_V1_veridical_freeview_isoFalse_fps144.mp4",""
"null","","","html-keyboard-response","183","980051","0.0-183.0","b7jflaw0","","<span style=""color:Black; font-size:50px;"">Video 2</span>","null","","","","",""
"null","","","video-keyboard-response","184","983120","0.0-184.0","b7jflaw0","","","null","","<span style=""color:Black; font-size:50px;"">Casey","Casey","STIM_SET_1/1592119.bmp_pp58_L1_V1_veridical_freeview_isoFalse_fps144.mp4",""
"","","","call-function","185","983120","0.0-185.0","b7jflaw0","","","","","","","",""
"1173.6950000000652","","","categorize-html","186","986299","0.0-186.0","b7jflaw0","","Which video showed <span style=""font-size:30px"">Sandy's</span> attention?","49","","","","","true"
"null","","","html-keyboard-response","187","986803","0.0-187.0","b7jflaw0",""," ","null","","","","",""
"","","","call-function","188","986804","0.0-188.0","b7jflaw0","","","","","","","",""
"null","","","html-keyboard-response","189","988306","0.0-189.0","b7jflaw0","","<span style=""color:Black; font-size:50px;"">Video 1</span>","null","","","","",""
"null","","","video-keyboard-response","190","991407","0.0-190.0","b7jflaw0","","","null","","<span style=""color:Black; font-size:50px;"">Sandy","Sandy","STIM_SET_1/1591876.bmp_pp154_L1_V1_veridical_freeview_isoFalse_fps144.mp4",""
"null","","","html-keyboard-response","191","992912","0.0-191.0","b7jflaw0","","<span style=""color:Black; font-size:50px;"">Video 2</span>","null","","","","",""
"null","","","video-keyboard-response","192","995998","0.0-192.0","b7jflaw0","","","null","","<span style=""color:Black; font-size:50px;"">Casey","Casey","STIM_SET_1/1591876.bmp_pp58_L1_V1_veridical_freeview_isoFalse_fps144.mp4",""
"","","","call-function","193","995998","0.0-193.0","b7jflaw0","","","","","","","",""
"327.67500000004657","","","categorize-html","194","998331","0.0-194.0","b7jflaw0","","Which video showed <span style=""font-size:30px"">Sandy's</span> attention?","49","","","","","true"
"null","","","html-keyboard-response","195","998835","0.0-195.0","b7jflaw0",""," ","null","","","","",""
"","","","call-function","196","998836","0.0-196.0","b7jflaw0","","","","","","","",""
"null","","","html-keyboard-response","197","1000338","0.0-197.0","b7jflaw0","","<span style=""color:Black; font-size:50px;"">Video 1</span>","null","","","","",""
"null","","","video-keyboard-response","198","1003427","0.0-198.0","b7jflaw0","","","null","","<span style=""color:Black; font-size:50px;"">Casey","Casey","STIM_SET_1/1160062.bmp_pp58_L1_V1_veridical_freeview_isoFalse_fps144.mp4",""
"null","","","html-keyboard-response","199","1004930","0.0-199.0","b7jflaw0","","<span style=""color:Black; font-size:50px;"">Video 2</span>","null","","","","",""
"null","","","video-keyboard-response","200","1008052","0.0-200.0","b7jflaw0","","","null","","<span style=""color:Black; font-size:50px;"">Sandy","Sandy","STIM_SET_1/1160062.bmp_pp154_L1_V1_veridical_freeview_isoFalse_fps144.mp4",""
"","","","call-function","201","1008052","0.0-201.0","b7jflaw0","","","","","","","",""
"897.984999999986","","","categorize-html","202","1010955","0.0-202.0","b7jflaw0","","Which video showed <span style=""font-size:30px"">Sandy's</span> attention?","49","","","","","false"
"null","","","html-keyboard-response","203","1011459","0.0-203.0","b7jflaw0",""," ","null","","","","",""
"","","","call-function","204","1011459","0.0-204.0","b7jflaw0","","","","","","","",""
"null","","","html-keyboard-response","205","1012962","0.0-205.0","b7jflaw0","","<span style=""color:Black; font-size:50px;"">Video 1</span>","null","","","","",""
"null","","","video-keyboard-response","206","1016065","0.0-206.0","b7jflaw0","","","null","","<span style=""color:Black; font-size:50px;"">Sandy","Sandy","STIM_SET_1/107933.bmp_pp154_L1_V1_veridical_freeview_isoFalse_fps144.mp4",""
"null","","","html-keyboard-response","207","1017571","0.0-207.0","b7jflaw0","","<span style=""color:Black; font-size:50px;"">Video 2</span>","null","","","","",""
"null","","","video-keyboard-response","208","1020671","0.0-208.0","b7jflaw0","","","null","","<span style=""color:Black; font-size:50px;"">Casey","Casey","STIM_SET_1/107933.bmp_pp58_L1_V1_veridical_freeview_isoFalse_fps144.mp4",""
"","","","call-function","209","1020671","0.0-209.0","b7jflaw0","","","","","","","",""
"631.125","","","categorize-html","210","1023306","0.0-210.0","b7jflaw0","","Which video showed <span style=""font-size:30px"">Sandy's</span> attention?","50","","","","","false"
"null","","","html-keyboard-response","211","1023809","0.0-211.0","b7jflaw0",""," ","null","","","","",""
"","","","call-function","212","1023809","0.0-212.0","b7jflaw0","","","","","","","",""
"null","","","html-keyboard-response","213","1025311","0.0-213.0","b7jflaw0","","<span style=""color:Black; font-size:50px;"">Video 1</span>","null","","","","",""
"null","","","video-keyboard-response","214","1028405","0.0-214.0","b7jflaw0","","","null","","<span style=""color:Black; font-size:50px;"">Casey","Casey","STIM_SET_1/286066.bmp_pp58_L1_V1_veridical_freeview_isoFalse_fps144.mp4",""
"null","","","html-keyboard-response","215","1029908","0.0-215.0","b7jflaw0","","<span style=""color:Black; font-size:50px;"">Video 2</span>","null","","","","",""
"null","","","video-keyboard-response","216","1033009","0.0-216.0","b7jflaw0","","","null","","<span style=""color:Black; font-size:50px;"">Sandy","Sandy","STIM_SET_1/286066.bmp_pp154_L1_V1_veridical_freeview_isoFalse_fps144.mp4",""
"","","","call-function","217","1033009","0.0-217.0","b7jflaw0","","","","","","","",""
"1517.2850000000326","","","categorize-html","218","1036530","0.0-218.0","b7jflaw0","","Which video showed <span style=""font-size:30px"">Sandy's</span> attention?","49","","","","","false"
"null","","","html-keyboard-response","219","1037037","0.0-219.0","b7jflaw0",""," ","null","","","","",""
"","","","call-function","220","1037037","0.0-220.0","b7jflaw0","","","","","","","",""
"null","","","html-keyboard-response","221","1038542","0.0-221.0","b7jflaw0","","<span style=""color:Black; font-size:50px;"">Video 1</span>","null","","","","",""
"null","","","video-keyboard-response","222","1041621","0.0-222.0","b7jflaw0","","","null","","<span style=""color:Black; font-size:50px;"">Sandy","Sandy","STIM_SET_1/713920.bmp_pp154_L1_V1_veridical_freeview_isoFalse_fps144.mp4",""
"null","","","html-keyboard-response","223","1043126","0.0-223.0","b7jflaw0","","<span style=""color:Black; font-size:50px;"">Video 2</span>","null","","","","",""
"null","","","video-keyboard-response","224","1046283","0.0-224.0","b7jflaw0","","","null","","<span style=""color:Black; font-size:50px;"">Casey","Casey","STIM_SET_1/713920.bmp_pp58_L1_V1_veridical_freeview_isoFalse_fps144.mp4",""
"","","","call-function","225","1046283","0.0-225.0","b7jflaw0","","","","","","","",""
"427.02499999990687","","","categorize-html","226","1048713","0.0-226.0","b7jflaw0","","Which video showed <span style=""font-size:30px"">Sandy's</span> attention?","49","","","","","true"
"null","","","html-keyboard-response","227","1049219","0.0-227.0","b7jflaw0",""," ","null","","","","",""
"","","","call-function","228","1049219","0.0-228.0","b7jflaw0","","","","","","","",""
"null","","","html-keyboard-response","229","1050724","0.0-229.0","b7jflaw0","","<span style=""color:Black; font-size:50px;"">Video 1</span>","null","","","","",""
"null","","","video-keyboard-response","230","1053783","0.0-230.0","b7jflaw0","","","null","","<span style=""color:Black; font-size:50px;"">Sandy","Sandy","STIM_SET_1/1592568.bmp_pp154_L1_V1_veridical_freeview_isoFalse_fps144.mp4",""
"null","","","html-keyboard-response","231","1055286","0.0-231.0","b7jflaw0","","<span style=""color:Black; font-size:50px;"">Video 2</span>","null","","","","",""
"null","","","video-keyboard-response","232","1058381","0.0-232.0","b7jflaw0","","","null","","<span style=""color:Black; font-size:50px;"">Casey","Casey","STIM_SET_1/1592568.bmp_pp58_L1_V1_veridical_freeview_isoFalse_fps144.mp4",""
"","","","call-function","233","1058382","0.0-233.0","b7jflaw0","","","","","","","",""
"840.464999999851","","","categorize-html","234","1061228","0.0-234.0","b7jflaw0","","Which video showed <span style=""font-size:30px"">Sandy's</span> attention?","49","","","","","true"
"null","","","html-keyboard-response","235","1061730","0.0-235.0","b7jflaw0",""," ","null","","","","",""
"","","","call-function","236","1061731","0.0-236.0","b7jflaw0","","","","","","","",""
"null","","","html-keyboard-response","237","1063236","0.0-237.0","b7jflaw0","","<span style=""color:Black; font-size:50px;"">Video 1</span>","null","","","","",""
"null","","","video-keyboard-response","238","1066359","0.0-238.0","b7jflaw0","","","null","","<span style=""color:Black; font-size:50px;"">Sandy","Sandy","STIM_SET_1/1159365.bmp_pp154_L1_V1_veridical_freeview_isoFalse_fps144.mp4",""
"null","","","html-keyboard-response","239","1067862","0.0-239.0","b7jflaw0","","<span style=""color:Black; font-size:50px;"">Video 2</span>","null","","","","",""
"null","","","video-keyboard-response","240","1070965","0.0-240.0","b7jflaw0","","","null","","<span style=""color:Black; font-size:50px;"">Casey","Casey","STIM_SET_1/1159365.bmp_pp58_L1_V1_veridical_freeview_isoFalse_fps144.mp4",""
"","","","call-function","241","1070965","0.0-241.0","b7jflaw0","","","","","","","",""
"1176.8249999999534","","","categorize-html","242","1074149","0.0-242.0","b7jflaw0","","Which video showed <span style=""font-size:30px"">Sandy's</span> attention?","50","","","","","false"
"null","","","html-keyboard-response","243","1074653","0.0-243.0","b7jflaw0",""," ","null","","","","",""
"","","","call-function","244","1074654","0.0-244.0","b7jflaw0","","","","","","","",""
"null","","","html-keyboard-response","245","1076157","0.0-245.0","b7jflaw0","","<span style=""color:Black; font-size:50px;"">Video 1</span>","null","","","","",""
"null","","","video-keyboard-response","246","1079260","0.0-246.0","b7jflaw0","","","null","","<span style=""color:Black; font-size:50px;"">Casey","Casey","STIM_SET_1/498280.bmp_pp58_L1_V1_veridical_freeview_isoFalse_fps144.mp4",""
"null","","","html-keyboard-response","247","1080764","0.0-247.0","b7jflaw0","","<span style=""color:Black; font-size:50px;"">Video 2</span>","null","","","","",""
"null","","","video-keyboard-response","248","1083871","0.0-248.0","b7jflaw0","","","null","","<span style=""color:Black; font-size:50px;"">Sandy","Sandy","STIM_SET_1/498280.bmp_pp154_L1_V1_veridical_freeview_isoFalse_fps144.mp4",""
"","","","call-function","249","1083872","0.0-249.0","b7jflaw0","","","","","","","",""
"534.6999999999534","","","categorize-html","250","1086409","0.0-250.0","b7jflaw0","","Which video showed <span style=""font-size:30px"">Sandy's</span> attention?","49","","","","","false"
"null","","","html-keyboard-response","251","1086911","0.0-251.0","b7jflaw0",""," ","null","","","","",""
"2642.1149999999907","","","instructions","252","1089553","0.0-252.0","b7jflaw0","[{""page_index"":0,""viewing_time"":2313.945000000065},{""page_index"":1,""viewing_time"":173.94999999995343},{""page_index"":2,""viewing_time"":154.03000000002794}]","","","","","","",""
"769.2800000000279","","","instructions","253","1090323","0.0-253.0","b7jflaw0","[{""page_index"":0,""viewing_time"":161.35000000009313},{""page_index"":1,""viewing_time"":240.02499999990687},{""page_index"":2,""viewing_time"":367.8049999999348}]","","","","","","",""
"","","","call-function","254","1090323","0.0-254.0","b7jflaw0","","","","","","","",""
"null","","","html-keyboard-response","255","1091826","0.0-255.0","b7jflaw0","","<span style=""color:Black; font-size:50px;"">Video 1</span>","null","","","","",""
"null","","","video-keyboard-response","256","1094923","0.0-256.0","b7jflaw0","","","null","","<span style=""color:Black; font-size:50px;"">Casey","Casey","STIM_SET_1/150474.bmp_pp58_L1_V1_veridical_freeview_isoFalse_fps144.mp4",""
"null","","","html-keyboard-response","257","1096424","0.0-257.0","b7jflaw0","","<span style=""color:Black; font-size:50px;"">Video 2</span>","null","","","","",""
"null","","","video-keyboard-response","258","1099508","0.0-258.0","b7jflaw0","","","null","","<span style=""color:Black; font-size:50px;"">Sandy","Sandy","STIM_SET_1/150474.bmp_pp154_L1_V1_veridical_freeview_isoFalse_fps144.mp4",""
"","","","call-function","259","1099509","0.0-259.0","b7jflaw0","","","","","","","",""
"337.5600000000559","","","categorize-html","260","1101850","0.0-260.0","b7jflaw0","","Which video showed <span style=""font-size:30px"">Sandy's</span> attention?","50","","","","","true"
"null","","","html-keyboard-response","261","1102353","0.0-261.0","b7jflaw0",""," ","null","","","","",""
"","","","call-function","262","1102354","0.0-262.0","b7jflaw0","","","","","","","",""
"null","","","html-keyboard-response","263","1103860","0.0-263.0","b7jflaw0","","<span style=""color:Black; font-size:50px;"">Video 1</span>","null","","","","",""
"null","","","video-keyboard-response","264","1106923","0.0-264.0","b7jflaw0","","","null","","<span style=""color:Black; font-size:50px;"">Casey","Casey","STIM_SET_1/61513.bmp_pp58_L1_V1_veridical_freeview_isoFalse_fps144.mp4",""
"null","","","html-keyboard-response","265","1108426","0.0-265.0","b7jflaw0","","<span style=""color:Black; font-size:50px;"">Video 2</span>","null","","","","",""
"null","","","video-keyboard-response","266","1111491","0.0-266.0","b7jflaw0","","","null","","<span style=""color:Black; font-size:50px;"">Sandy","Sandy","STIM_SET_1/61513.bmp_pp154_L1_V1_veridical_freeview_isoFalse_fps144.mp4",""
"","","","call-function","267","1111492","0.0-267.0","b7jflaw0","","","","","","","",""
"850.7550000001211","","","categorize-html","268","1114346","0.0-268.0","b7jflaw0","","Which video showed <span style=""font-size:30px"">Sandy's</span> attention?","50","","","","","true"
"null","","","html-keyboard-response","269","1114850","0.0-269.0","b7jflaw0",""," ","null","","","","",""
"","","","call-function","270","1114850","0.0-270.0","b7jflaw0","","","","","","","",""
"null","","","html-keyboard-response","271","1116352","0.0-271.0","b7jflaw0","","<span style=""color:Black; font-size:50px;"">Video 1</span>","null","","","","",""
"null","","","video-keyboard-response","272","1119421","0.0-272.0","b7jflaw0","","","null","","<span style=""color:Black; font-size:50px;"">Casey","Casey","STIM_SET_1/1159353.bmp_pp58_L1_V1_veridical_freeview_isoFalse_fps144.mp4",""
"null","","","html-keyboard-response","273","1120923","0.0-273.0","b7jflaw0","","<span style=""color:Black; font-size:50px;"">Video 2</span>","null","","","","",""
"null","","","video-keyboard-response","274","1124020","0.0-274.0","b7jflaw0","","","null","","<span style=""color:Black; font-size:50px;"">Sandy","Sandy","STIM_SET_1/1159353.bmp_pp154_L1_V1_veridical_freeview_isoFalse_fps144.mp4",""
"","","","call-function","275","1124020","0.0-275.0","b7jflaw0","","","","","","","",""
"377.79000000003725","","","categorize-html","276","1126401","0.0-276.0","b7jflaw0","","Which video showed <span style=""font-size:30px"">Sandy's</span> attention?","49","","","","","false"
"null","","","html-keyboard-response","277","1126904","0.0-277.0","b7jflaw0",""," ","null","","","","",""
"","","","call-function","278","1126904","0.0-278.0","b7jflaw0","","","","","","","",""
"null","","","html-keyboard-response","279","1128407","0.0-279.0","b7jflaw0","","<span style=""color:Black; font-size:50px;"">Video 1</span>","null","","","","",""
"null","","","video-keyboard-response","280","1131507","0.0-280.0","b7jflaw0","","","null","","<span style=""color:Black; font-size:50px;"">Sandy","Sandy","STIM_SET_1/107930.bmp_pp154_L1_V1_veridical_freeview_isoFalse_fps144.mp4",""
"null","","","html-keyboard-response","281","1133011","0.0-281.0","b7jflaw0","","<span style=""color:Black; font-size:50px;"">Video 2</span>","null","","","","",""
"null","","","video-keyboard-response","282","1136100","0.0-282.0","b7jflaw0","","","null","","<span style=""color:Black; font-size:50px;"">Casey","Casey","STIM_SET_1/107930.bmp_pp58_L1_V1_veridical_freeview_isoFalse_fps144.mp4",""
"","","","call-function","283","1136101","0.0-283.0","b7jflaw0","","","","","","","",""
"625.4599999999627","","","categorize-html","284","1138730","0.0-284.0","b7jflaw0","","Which video showed <span style=""font-size:30px"">Sandy's</span> attention?","50","","","","","false"
"null","","","html-keyboard-response","285","1139233","0.0-285.0","b7jflaw0",""," ","null","","","","",""
"","","","call-function","286","1139233","0.0-286.0","b7jflaw0","","","","","","","",""
"null","","","html-keyboard-response","287","1140735","0.0-287.0","b7jflaw0","","<span style=""color:Black; font-size:50px;"">Video 1</span>","null","","","","",""
"null","","","video-keyboard-response","288","1143829","0.0-288.0","b7jflaw0","","","null","","<span style=""color:Black; font-size:50px;"">Casey","Casey","STIM_SET_1/1592189.bmp_pp58_L1_V1_veridical_freeview_isoFalse_fps144.mp4",""
"null","","","html-keyboard-response","289","1145333","0.0-289.0","b7jflaw0","","<span style=""color:Black; font-size:50px;"">Video 2</span>","null","","","","",""
"null","","","video-keyboard-response","290","1148433","0.0-290.0","b7jflaw0","","","null","","<span style=""color:Black; font-size:50px;"">Sandy","Sandy","STIM_SET_1/1592189.bmp_pp154_L1_V1_veridical_freeview_isoFalse_fps144.mp4",""
"","","","call-function","291","1148433","0.0-291.0","b7jflaw0","","","","","","","",""
"1565.2900000000373","","","categorize-html","292","1152003","0.0-292.0","b7jflaw0","","Which video showed <span style=""font-size:30px"">Sandy's</span> attention?","49","","","","","false"
"null","","","html-keyboard-response","293","1152507","0.0-293.0","b7jflaw0",""," ","null","","","","",""
"","","","call-function","294","1152507","0.0-294.0","b7jflaw0","","","","","","","",""
"null","","","html-keyboard-response","295","1154010","0.0-295.0","b7jflaw0","","<span style=""color:Black; font-size:50px;"">Video 1</span>","null","","","","",""
"null","","","video-keyboard-response","296","1157106","0.0-296.0","b7jflaw0","","","null","","<span style=""color:Black; font-size:50px;"">Casey","Casey","STIM_SET_1/107906.bmp_pp58_L1_V1_veridical_freeview_isoFalse_fps144.mp4",""
"null","","","html-keyboard-response","297","1158607","0.0-297.0","b7jflaw0","","<span style=""color:Black; font-size:50px;"">Video 2</span>","null","","","","",""
"null","","","video-keyboard-response","298","1161697","0.0-298.0","b7jflaw0","","","null","","<span style=""color:Black; font-size:50px;"">Sandy","Sandy","STIM_SET_1/107906.bmp_pp154_L1_V1_veridical_freeview_isoFalse_fps144.mp4",""
"","","","call-function","299","1161697","0.0-299.0","b7jflaw0","","","","","","","",""
"317.5649999999441","","","categorize-html","300","1164020","0.0-300.0","b7jflaw0","","Which video showed <span style=""font-size:30px"">Sandy's</span> attention?","49","","","","","false"
"null","","","html-keyboard-response","301","1164524","0.0-301.0","b7jflaw0",""," ","null","","","","",""
"","","","call-function","302","1164524","0.0-302.0","b7jflaw0","","","","","","","",""
"null","","","html-keyboard-response","303","1166031","0.0-303.0","b7jflaw0","","<span style=""color:Black; font-size:50px;"">Video 1</span>","null","","","","",""
"null","","","video-keyboard-response","304","1169123","0.0-304.0","b7jflaw0","","","null","","<span style=""color:Black; font-size:50px;"">Casey","Casey","STIM_SET_1/1159973.bmp_pp58_L1_V1_veridical_freeview_isoFalse_fps144.mp4",""
"null","","","html-keyboard-response","305","1170625","0.0-305.0","b7jflaw0","","<span style=""color:Black; font-size:50px;"">Video 2</span>","null","","","","",""
"null","","","video-keyboard-response","306","1173700","0.0-306.0","b7jflaw0","","","null","","<span style=""color:Black; font-size:50px;"">Sandy","Sandy","STIM_SET_1/1159973.bmp_pp154_L1_V1_veridical_freeview_isoFalse_fps144.mp4",""
"","","","call-function","307","1173700","0.0-307.0","b7jflaw0","","","","","","","",""
"1458.3499999998603","","","categorize-html","308","1177161","0.0-308.0","b7jflaw0","","Which video showed <span style=""font-size:30px"">Sandy's</span> attention?","49","","","","","false"
"null","","","html-keyboard-response","309","1177667","0.0-309.0","b7jflaw0",""," ","null","","","","",""
"","","","call-function","310","1177667","0.0-310.0","b7jflaw0","","","","","","","",""
"null","","","html-keyboard-response","311","1179169","0.0-311.0","b7jflaw0","","<span style=""color:Black; font-size:50px;"">Video 1</span>","null","","","","",""
"null","","","video-keyboard-response","312","1182243","0.0-312.0","b7jflaw0","","","null","","<span style=""color:Black; font-size:50px;"">Casey","Casey","STIM_SET_1/713769.bmp_pp58_L1_V1_veridical_freeview_isoFalse_fps144.mp4",""
"null","","","html-keyboard-response","313","1183745","0.0-313.0","b7jflaw0","","<span style=""color:Black; font-size:50px;"">Video 2</span>","null","","","","",""
"null","","","video-keyboard-response","314","1186807","0.0-314.0","b7jflaw0","","","null","","<span style=""color:Black; font-size:50px;"">Sandy","Sandy","STIM_SET_1/713769.bmp_pp154_L1_V1_veridical_freeview_isoFalse_fps144.mp4",""
"","","","call-function","315","1186807","0.0-315.0","b7jflaw0","","","","","","","",""
"335.3599999998696","","","categorize-html","316","1189147","0.0-316.0","b7jflaw0","","Which video showed <span style=""font-size:30px"">Sandy's</span> attention?","50","","","","","true"
"null","","","html-keyboard-response","317","1189651","0.0-317.0","b7jflaw0",""," ","null","","","","",""
"","","","call-function","318","1189652","0.0-318.0","b7jflaw0","","","","","","","",""
"null","","","html-keyboard-response","319","1191154","0.0-319.0","b7jflaw0","","<span style=""color:Black; font-size:50px;"">Video 1</span>","null","","","","",""
"null","","","video-keyboard-response","320","1194262","0.0-320.0","b7jflaw0","","","null","","<span style=""color:Black; font-size:50px;"">Casey","Casey","STIM_SET_1/497974.bmp_pp58_L1_V1_veridical_freeview_isoFalse_fps144.mp4",""
"null","","","html-keyboard-response","321","1195765","0.0-321.0","b7jflaw0","","<span style=""color:Black; font-size:50px;"">Video 2</span>","null","","","","",""
"null","","","video-keyboard-response","322","1198858","0.0-322.0","b7jflaw0","","","null","","<span style=""color:Black; font-size:50px;"">Sandy","Sandy","STIM_SET_1/497974.bmp_pp154_L1_V1_veridical_freeview_isoFalse_fps144.mp4",""
"","","","call-function","323","1198859","0.0-323.0","b7jflaw0","","","","","","","",""
"507.9350000000559","","","categorize-html","324","1201372","0.0-324.0","b7jflaw0","","Which video showed <span style=""font-size:30px"">Sandy's</span> attention?","50","","","","","true"
"null","","","html-keyboard-response","325","1201876","0.0-325.0","b7jflaw0",""," ","null","","","","",""
"","","","call-function","326","1201876","0.0-326.0","b7jflaw0","","","","","","","",""
"null","","","html-keyboard-response","327","1203378","0.0-327.0","b7jflaw0","","<span style=""color:Black; font-size:50px;"">Video 1</span>","null","","","","",""
"null","","","video-keyboard-response","328","1206481","0.0-328.0","b7jflaw0","","","null","","<span style=""color:Black; font-size:50px;"">Sandy","Sandy","STIM_SET_1/1592530.bmp_pp154_L1_V1_veridical_freeview_isoFalse_fps144.mp4",""
"null","","","html-keyboard-response","329","1207982","0.0-329.0","b7jflaw0","","<span style=""color:Black; font-size:50px;"">Video 2</span>","null","","","","",""
"null","","","video-keyboard-response","330","1211069","0.0-330.0","b7jflaw0","","","null","","<span style=""color:Black; font-size:50px;"">Casey","Casey","STIM_SET_1/1592530.bmp_pp58_L1_V1_veridical_freeview_isoFalse_fps144.mp4",""
"","","","call-function","331","1211069","0.0-331.0","b7jflaw0","","","","","","","",""
"273.785000000149","","","categorize-html","332","1213347","0.0-332.0","b7jflaw0","","Which video showed <span style=""font-size:30px"">Sandy's</span> attention?","49","","","","","true"
"null","","","html-keyboard-response","333","1213853","0.0-333.0","b7jflaw0",""," ","null","","","","",""
"2680.3249999999534","","","instructions","334","1216534","0.0-334.0","b7jflaw0","[{""page_index"":0,""viewing_time"":2323.0449999999255},{""page_index"":1,""viewing_time"":183.12000000011176},{""page_index"":2,""viewing_time"":174.04999999981374}]","","","","","","",""
"940.1599999999162","","","instructions","335","1217474","0.0-335.0","b7jflaw0","[{""page_index"":0,""viewing_time"":267.0549999999348},{""page_index"":1,""viewing_time"":278.90500000002794},{""page_index"":2,""viewing_time"":394.09499999997206}]","","","","","","",""
"","","","call-function","336","1217475","0.0-336.0","b7jflaw0","","","","","","","",""
"null","","","html-keyboard-response","337","1218977","0.0-337.0","b7jflaw0","","<span style=""color:Black; font-size:50px;"">Video 1</span>","null","","","","",""
"null","","","video-keyboard-response","338","1222084","0.0-338.0","b7jflaw0","","","null","","<span style=""color:Black; font-size:50px;"">Casey","Casey","STIM_SET_1/713760.bmp_pp58_L1_V1_veridical_freeview_isoFalse_fps144.mp4",""
"null","","","html-keyboard-response","339","1223589","0.0-339.0","b7jflaw0","","<span style=""color:Black; font-size:50px;"">Video 2</span>","null","","","","",""
"null","","","video-keyboard-response","340","1226689","0.0-340.0","b7jflaw0","","","null","","<span style=""color:Black; font-size:50px;"">Sandy","Sandy","STIM_SET_1/713760.bmp_pp154_L1_V1_veridical_freeview_isoFalse_fps144.mp4",""
"","","","call-function","341","1226689","0.0-341.0","b7jflaw0","","","","","","","",""
"1869.1899999999441","","","categorize-html","342","1230562","0.0-342.0","b7jflaw0","","Which video showed <span style=""font-size:30px"">Sandy's</span> attention?","50","","","","","true"
"null","","","html-keyboard-response","343","1231068","0.0-343.0","b7jflaw0",""," ","null","","","","",""
"","","","call-function","344","1231069","0.0-344.0","b7jflaw0","","","","","","","",""
"null","","","html-keyboard-response","345","1232571","0.0-345.0","b7jflaw0","","<span style=""color:Black; font-size:50px;"">Video 1</span>","null","","","","",""
"null","","","video-keyboard-response","346","1235663","0.0-346.0","b7jflaw0","","","null","","<span style=""color:Black; font-size:50px;"">Sandy","Sandy","STIM_SET_1/1592133.bmp_pp154_L1_V1_veridical_freeview_isoFalse_fps144.mp4",""
"null","","","html-keyboard-response","347","1237169","0.0-347.0","b7jflaw0","","<span style=""color:Black; font-size:50px;"">Video 2</span>","null","","","","",""
"null","","","video-keyboard-response","348","1240242","0.0-348.0","b7jflaw0","","","null","","<span style=""color:Black; font-size:50px;"">Casey","Casey","STIM_SET_1/1592133.bmp_pp58_L1_V1_veridical_freeview_isoFalse_fps144.mp4",""
"","","","call-function","349","1240242","0.0-349.0","b7jflaw0","","","","","","","",""
"644.1700000001583","","","categorize-html","350","1242889","0.0-350.0","b7jflaw0","","Which video showed <span style=""font-size:30px"">Sandy's</span> attention?","50","","","","","false"
"null","","","html-keyboard-response","351","1243393","0.0-351.0","b7jflaw0",""," ","null","","","","",""
"","","","call-function","352","1243394","0.0-352.0","b7jflaw0","","","","","","","",""
"null","","","html-keyboard-response","353","1244895","0.0-353.0","b7jflaw0","","<span style=""color:Black; font-size:50px;"">Video 1</span>","null","","","","",""
"null","","","video-keyboard-response","354","1247974","0.0-354.0","b7jflaw0","","","null","","<span style=""color:Black; font-size:50px;"">Sandy","Sandy","STIM_SET_1/712977.bmp_pp154_L1_V1_veridical_freeview_isoFalse_fps144.mp4",""
"null","","","html-keyboard-response","355","1249478","0.0-355.0","b7jflaw0","","<span style=""color:Black; font-size:50px;"">Video 2</span>","null","","","","",""
"null","","","video-keyboard-response","356","1252551","0.0-356.0","b7jflaw0","","","null","","<span style=""color:Black; font-size:50px;"">Casey","Casey","STIM_SET_1/712977.bmp_pp58_L1_V1_veridical_freeview_isoFalse_fps144.mp4",""
"","","","call-function","357","1252551","0.0-357.0","b7jflaw0","","","","","","","",""
"639.4599999999627","","","categorize-html","358","1255193","0.0-358.0","b7jflaw0","","Which video showed <span style=""font-size:30px"">Sandy's</span> attention?","49","","","","","true"
"null","","","html-keyboard-response","359","1255699","0.0-359.0","b7jflaw0",""," ","null","","","","",""
"","","","call-function","360","1255699","0.0-360.0","b7jflaw0","","","","","","","",""
"null","","","html-keyboard-response","361","1257206","0.0-361.0","b7jflaw0","","<span style=""color:Black; font-size:50px;"">Video 1</span>","null","","","","",""
"null","","","video-keyboard-response","362","1260293","0.0-362.0","b7jflaw0","","","null","","<span style=""color:Black; font-size:50px;"">Casey","Casey","STIM_SET_1/1592286.bmp_pp58_L1_V1_veridical_freeview_isoFalse_fps144.mp4",""
"null","","","html-keyboard-response","363","1261797","0.0-363.0","b7jflaw0","","<span style=""color:Black; font-size:50px;"">Video 2</span>","null","","","","",""
"null","","","video-keyboard-response","364","1264892","0.0-364.0","b7jflaw0","","","null","","<span style=""color:Black; font-size:50px;"">Sandy","Sandy","STIM_SET_1/1592286.bmp_pp154_L1_V1_veridical_freeview_isoFalse_fps144.mp4",""
"","","","call-function","365","1264893","0.0-365.0","b7jflaw0","","","","","","","",""
"690.0449999999255","","","categorize-html","366","1267588","0.0-366.0","b7jflaw0","","Which video showed <span style=""font-size:30px"">Sandy's</span> attention?","50","","","","","true"
"null","","","html-keyboard-response","367","1268094","0.0-367.0","b7jflaw0",""," ","null","","","","",""
"","","","call-function","368","1268094","0.0-368.0","b7jflaw0","","","","","","","",""
"null","","","html-keyboard-response","369","1269599","0.0-369.0","b7jflaw0","","<span style=""color:Black; font-size:50px;"">Video 1</span>","null","","","","",""
"null","","","video-keyboard-response","370","1272698","0.0-370.0","b7jflaw0","","","null","","<span style=""color:Black; font-size:50px;"">Sandy","Sandy","STIM_SET_1/713788.bmp_pp154_L1_V1_veridical_freeview_isoFalse_fps144.mp4",""
"null","","","html-keyboard-response","371","1274203","0.0-371.0","b7jflaw0","","<span style=""color:Black; font-size:50px;"">Video 2</span>","null","","","","",""
"null","","","video-keyboard-response","372","1277302","0.0-372.0","b7jflaw0","","","null","","<span style=""color:Black; font-size:50px;"">Casey","Casey","STIM_SET_1/713788.bmp_pp58_L1_V1_veridical_freeview_isoFalse_fps144.mp4",""
"","","","call-function","373","1277302","0.0-373.0","b7jflaw0","","","","","","","",""
"536.5800000000745","","","categorize-html","374","1279844","0.0-374.0","b7jflaw0","","Which video showed <span style=""font-size:30px"">Sandy's</span> attention?","49","","","","","true"
"null","","","html-keyboard-response","375","1280347","0.0-375.0","b7jflaw0",""," ","null","","","","",""
"","","","call-function","376","1280348","0.0-376.0","b7jflaw0","","","","","","","",""
"null","","","html-keyboard-response","377","1281851","0.0-377.0","b7jflaw0","","<span style=""color:Black; font-size:50px;"">Video 1</span>","null","","","","",""
"null","","","video-keyboard-response","378","1284936","0.0-378.0","b7jflaw0","","","null","","<span style=""color:Black; font-size:50px;"">Sandy","Sandy","STIM_SET_1/1592025.bmp_pp154_L1_V1_veridical_freeview_isoFalse_fps144.mp4",""
"null","","","html-keyboard-response","379","1286438","0.0-379.0","b7jflaw0","","<span style=""color:Black; font-size:50px;"">Video 2</span>","null","","","","",""
"null","","","video-keyboard-response","380","1289530","0.0-380.0","b7jflaw0","","","null","","<span style=""color:Black; font-size:50px;"">Casey","Casey","STIM_SET_1/1592025.bmp_pp58_L1_V1_veridical_freeview_isoFalse_fps144.mp4",""
"","","","call-function","381","1289530","0.0-381.0","b7jflaw0","","","","","","","",""
"1430.369999999879","","","categorize-html","382","1292966","0.0-382.0","b7jflaw0","","Which video showed <span style=""font-size:30px"">Sandy's</span> attention?","49","","","","","true"
"null","","","html-keyboard-response","383","1293468","0.0-383.0","b7jflaw0",""," ","null","","","","",""
"","","","call-function","384","1293469","0.0-384.0","b7jflaw0","","","","","","","",""
"null","","","html-keyboard-response","385","1294972","0.0-385.0","b7jflaw0","","<span style=""color:Black; font-size:50px;"">Video 1</span>","null","","","","",""
"null","","","video-keyboard-response","386","1298086","0.0-386.0","b7jflaw0","","","null","","<span style=""color:Black; font-size:50px;"">Sandy","Sandy","STIM_SET_1/285851.bmp_pp154_L1_V1_veridical_freeview_isoFalse_fps144.mp4",""
"null","","","html-keyboard-response","387","1299591","0.0-387.0","b7jflaw0","","<span style=""color:Black; font-size:50px;"">Video 2</span>","null","","","","",""
"null","","","video-keyboard-response","388","1302680","0.0-388.0","b7jflaw0","","","null","","<span style=""color:Black; font-size:50px;"">Casey","Casey","STIM_SET_1/285851.bmp_pp58_L1_V1_veridical_freeview_isoFalse_fps144.mp4",""
"","","","call-function","389","1302681","0.0-389.0","b7jflaw0","","","","","","","",""
"1190.4150000000373","","","categorize-html","390","1305876","0.0-390.0","b7jflaw0","","Which video showed <span style=""font-size:30px"">Sandy's</span> attention?","50","","","","","false"
"null","","","html-keyboard-response","391","1306377","0.0-391.0","b7jflaw0",""," ","null","","","","",""
"","","","call-function","392","1306377","0.0-392.0","b7jflaw0","","","","","","","",""
"null","","","html-keyboard-response","393","1307884","0.0-393.0","b7jflaw0","","<span style=""color:Black; font-size:50px;"">Video 1</span>","null","","","","",""
"null","","","video-keyboard-response","394","1310952","0.0-394.0","b7jflaw0","","","null","","<span style=""color:Black; font-size:50px;"">Sandy","Sandy","STIM_SET_1/498108.bmp_pp154_L1_V1_veridical_freeview_isoFalse_fps144.mp4",""
"null","","","html-keyboard-response","395","1312454","0.0-395.0","b7jflaw0","","<span style=""color:Black; font-size:50px;"">Video 2</span>","null","","","","",""
"null","","","video-keyboard-response","396","1315533","0.0-396.0","b7jflaw0","","","null","","<span style=""color:Black; font-size:50px;"">Casey","Casey","STIM_SET_1/498108.bmp_pp58_L1_V1_veridical_freeview_isoFalse_fps144.mp4",""
"","","","call-function","397","1315533","0.0-397.0","b7jflaw0","","","","","","","",""
"1929.5400000000373","","","categorize-html","398","1319467","0.0-398.0","b7jflaw0","","Which video showed <span style=""font-size:30px"">Sandy's</span> attention?","50","","","","","false"
"null","","","html-keyboard-response","399","1319970","0.0-399.0","b7jflaw0",""," ","null","","","","",""
"","","","call-function","400","1319971","0.0-400.0","b7jflaw0","","","","","","","",""
"null","","","html-keyboard-response","401","1321473","0.0-401.0","b7jflaw0","","<span style=""color:Black; font-size:50px;"">Video 1</span>","null","","","","",""
"null","","","video-keyboard-response","402","1324536","0.0-402.0","b7jflaw0","","","null","","<span style=""color:Black; font-size:50px;"">Sandy","Sandy","STIM_SET_1/1159508.bmp_pp154_L1_V1_veridical_freeview_isoFalse_fps144.mp4",""
"null","","","html-keyboard-response","403","1326040","0.0-403.0","b7jflaw0","","<span style=""color:Black; font-size:50px;"">Video 2</span>","null","","","","",""
"null","","","video-keyboard-response","404","1329123","0.0-404.0","b7jflaw0","","","null","","<span style=""color:Black; font-size:50px;"">Casey","Casey","STIM_SET_1/1159508.bmp_pp58_L1_V1_veridical_freeview_isoFalse_fps144.mp4",""
"","","","call-function","405","1329124","0.0-405.0","b7jflaw0","","","","","","","",""
"499.0200000000186","","","categorize-html","406","1331626","0.0-406.0","b7jflaw0","","Which video showed <span style=""font-size:30px"">Sandy's</span> attention?","49","","","","","true"
"null","","","html-keyboard-response","407","1332130","0.0-407.0","b7jflaw0",""," ","null","","","","",""
"","","","call-function","408","1332131","0.0-408.0","b7jflaw0","","","","","","","",""
"null","","","html-keyboard-response","409","1333633","0.0-409.0","b7jflaw0","","<span style=""color:Black; font-size:50px;"">Video 1</span>","null","","","","",""
"null","","","video-keyboard-response","410","1336734","0.0-410.0","b7jflaw0","","","null","","<span style=""color:Black; font-size:50px;"">Casey","Casey","STIM_SET_1/713075.bmp_pp58_L1_V1_veridical_freeview_isoFalse_fps144.mp4",""
"null","","","html-keyboard-response","411","1338237","0.0-411.0","b7jflaw0","","<span style=""color:Black; font-size:50px;"">Video 2</span>","null","","","","",""
"null","","","video-keyboard-response","412","1341325","0.0-412.0","b7jflaw0","","","null","","<span style=""color:Black; font-size:50px;"">Sandy","Sandy","STIM_SET_1/713075.bmp_pp154_L1_V1_veridical_freeview_isoFalse_fps144.mp4",""
"","","","call-function","413","1341325","0.0-413.0","b7jflaw0","","","","","","","",""
"953.375","","","categorize-html","414","1344283","0.0-414.0","b7jflaw0","","Which video showed <span style=""font-size:30px"">Sandy's</span> attention?","50","","","","","true"
"null","","","html-keyboard-response","415","1344787","0.0-415.0","b7jflaw0",""," ","null","","","","",""
"3031.6149999999907","","","instructions","416","1347819","0.0-416.0","b7jflaw0","[{""page_index"":0,""viewing_time"":2705.2050000000745},{""page_index"":1,""viewing_time"":184.47999999998137},{""page_index"":2,""viewing_time"":141.81000000005588}]","","","","","","",""
"505.5549999999348","","","instructions","417","1348325","0.0-417.0","b7jflaw0","[{""page_index"":0,""viewing_time"":143.79000000003725},{""page_index"":1,""viewing_time"":151.85999999986961},{""page_index"":2,""viewing_time"":209.78499999991618}]","","","","","","",""
"","","","call-function","418","1348325","0.0-418.0","b7jflaw0","","","","","","","",""
"null","","","html-keyboard-response","419","1349827","0.0-419.0","b7jflaw0","","<span style=""color:Black; font-size:50px;"">Video 1</span>","null","","","","",""
"null","","","video-keyboard-response","420","1352924","0.0-420.0","b7jflaw0","","","null","","<span style=""color:Black; font-size:50px;"">Casey","Casey","STIM_SET_1/1159318.bmp_pp58_L1_V1_veridical_freeview_isoFalse_fps144.mp4",""
"null","","","html-keyboard-response","421","1354428","0.0-421.0","b7jflaw0","","<span style=""color:Black; font-size:50px;"">Video 2</span>","null","","","","",""
"null","","","video-keyboard-response","422","1357541","0.0-422.0","b7jflaw0","","","null","","<span style=""color:Black; font-size:50px;"">Sandy","Sandy","STIM_SET_1/1159318.bmp_pp154_L1_V1_veridical_freeview_isoFalse_fps144.mp4",""
"","","","call-function","423","1357542","0.0-423.0","b7jflaw0","","","","","","","",""
"504.94999999995343","","","categorize-html","424","1360054","0.0-424.0","b7jflaw0","","Which video showed <span style=""font-size:30px"">Sandy's</span> attention?","50","","","","","true"
"null","","","html-keyboard-response","425","1360559","0.0-425.0","b7jflaw0",""," ","null","","","","",""
"","","","call-function","426","1360559","0.0-426.0","b7jflaw0","","","","","","","",""
"null","","","html-keyboard-response","427","1362065","0.0-427.0","b7jflaw0","","<span style=""color:Black; font-size:50px;"">Video 1</span>","null","","","","",""
"null","","","video-keyboard-response","428","1365159","0.0-428.0","b7jflaw0","","","null","","<span style=""color:Black; font-size:50px;"">Sandy","Sandy","STIM_SET_1/498175.bmp_pp154_L1_V1_veridical_freeview_isoFalse_fps144.mp4",""
"null","","","html-keyboard-response","429","1366663","0.0-429.0","b7jflaw0","","<span style=""color:Black; font-size:50px;"">Video 2</span>","null","","","","",""
"null","","","video-keyboard-response","430","1369752","0.0-430.0","b7jflaw0","","","null","","<span style=""color:Black; font-size:50px;"">Casey","Casey","STIM_SET_1/498175.bmp_pp58_L1_V1_veridical_freeview_isoFalse_fps144.mp4",""
"","","","call-function","431","1369752","0.0-431.0","b7jflaw0","","","","","","","",""
"646.7399999999907","","","categorize-html","432","1372402","0.0-432.0","b7jflaw0","","Which video showed <span style=""font-size:30px"">Sandy's</span> attention?","49","","","","","true"
"null","","","html-keyboard-response","433","1372904","0.0-433.0","b7jflaw0",""," ","null","","","","",""
"","","","call-function","434","1372904","0.0-434.0","b7jflaw0","","","","","","","",""
"null","","","html-keyboard-response","435","1374409","0.0-435.0","b7jflaw0","","<span style=""color:Black; font-size:50px;"">Video 1</span>","null","","","","",""
"null","","","video-keyboard-response","436","1377502","0.0-436.0","b7jflaw0","","","null","","<span style=""color:Black; font-size:50px;"">Sandy","Sandy","STIM_SET_1/1591909.bmp_pp154_L1_V1_veridical_freeview_isoFalse_fps144.mp4",""
"null","","","html-keyboard-response","437","1379006","0.0-437.0","b7jflaw0","","<span style=""color:Black; font-size:50px;"">Video 2</span>","null","","","","",""
"null","","","video-keyboard-response","438","1382067","0.0-438.0","b7jflaw0","","","null","","<span style=""color:Black; font-size:50px;"">Casey","Casey","STIM_SET_1/1591909.bmp_pp58_L1_V1_veridical_freeview_isoFalse_fps144.mp4",""
"","","","call-function","439","1382068","0.0-439.0","b7jflaw0","","","","","","","",""
"986.2900000000373","","","categorize-html","440","1385061","0.0-440.0","b7jflaw0","","Which video showed <span style=""font-size:30px"">Sandy's</span> attention?","49","","","","","true"
"null","","","html-keyboard-response","441","1385565","0.0-441.0","b7jflaw0",""," ","null","","","","",""
"","","","call-function","442","1385565","0.0-442.0","b7jflaw0","","","","","","","",""
"null","","","html-keyboard-response","443","1387068","0.0-443.0","b7jflaw0","","<span style=""color:Black; font-size:50px;"">Video 1</span>","null","","","","",""
"null","","","video-keyboard-response","444","1390129","0.0-444.0","b7jflaw0","","","null","","<span style=""color:Black; font-size:50px;"">Sandy","Sandy","STIM_SET_1/1159425.bmp_pp154_L1_V1_veridical_freeview_isoFalse_fps144.mp4",""
"null","","","html-keyboard-response","445","1391631","0.0-445.0","b7jflaw0","","<span style=""color:Black; font-size:50px;"">Video 2</span>","null","","","","",""
"null","","","video-keyboard-response","446","1394723","0.0-446.0","b7jflaw0","","","null","","<span style=""color:Black; font-size:50px;"">Casey","Casey","STIM_SET_1/1159425.bmp_pp58_L1_V1_veridical_freeview_isoFalse_fps144.mp4",""
"","","","call-function","447","1394723","0.0-447.0","b7jflaw0","","","","","","","",""
"635.5249999999069","","","categorize-html","448","1397365","0.0-448.0","b7jflaw0","","Which video showed <span style=""font-size:30px"">Sandy's</span> attention?","50","","","","","false"
"null","","","html-keyboard-response","449","1397871","0.0-449.0","b7jflaw0",""," ","null","","","","",""
"","","","call-function","450","1397872","0.0-450.0","b7jflaw0","","","","","","","",""
"null","","","html-keyboard-response","451","1399373","0.0-451.0","b7jflaw0","","<span style=""color:Black; font-size:50px;"">Video 1</span>","null","","","","",""
"null","","","video-keyboard-response","452","1402468","0.0-452.0","b7jflaw0","","","null","","<span style=""color:Black; font-size:50px;"">Sandy","Sandy","STIM_SET_1/713858.bmp_pp154_L1_V1_veridical_freeview_isoFalse_fps144.mp4",""
"null","","","html-keyboard-response","453","1403970","0.0-453.0","b7jflaw0","","<span style=""color:Black; font-size:50px;"">Video 2</span>","null","","","","",""
"null","","","video-keyboard-response","454","1407063","0.0-454.0","b7jflaw0","","","null","","<span style=""color:Black; font-size:50px;"">Casey","Casey","STIM_SET_1/713858.bmp_pp58_L1_V1_veridical_freeview_isoFalse_fps144.mp4",""
"","","","call-function","455","1407063","0.0-455.0","b7jflaw0","","","","","","","",""
"503.94999999995343","","","categorize-html","456","1409572","0.0-456.0","b7jflaw0","","Which video showed <span style=""font-size:30px"">Sandy's</span> attention?","49","","","","","true"
"null","","","html-keyboard-response","457","1410073","0.0-457.0","b7jflaw0",""," ","null","","","","",""
"","","","call-function","458","1410074","0.0-458.0","b7jflaw0","","","","","","","",""
"null","","","html-keyboard-response","459","1411580","0.0-459.0","b7jflaw0","","<span style=""color:Black; font-size:50px;"">Video 1</span>","null","","","","",""
"null","","","video-keyboard-response","460","1414684","0.0-460.0","b7jflaw0","","","null","","<span style=""color:Black; font-size:50px;"">Sandy","Sandy","STIM_SET_1/1592372.bmp_pp154_L1_V1_veridical_freeview_isoFalse_fps144.mp4",""
"null","","","html-keyboard-response","461","1416186","0.0-461.0","b7jflaw0","","<span style=""color:Black; font-size:50px;"">Video 2</span>","null","","","","",""
"null","","","video-keyboard-response","462","1419272","0.0-462.0","b7jflaw0","","","null","","<span style=""color:Black; font-size:50px;"">Casey","Casey","STIM_SET_1/1592372.bmp_pp58_L1_V1_veridical_freeview_isoFalse_fps144.mp4",""
"","","","call-function","463","1419272","0.0-463.0","b7jflaw0","","","","","","","",""
"318.7100000001956","","","categorize-html","464","1421594","0.0-464.0","b7jflaw0","","Which video showed <span style=""font-size:30px"">Sandy's</span> attention?","49","","","","","true"
"null","","","html-keyboard-response","465","1422100","0.0-465.0","b7jflaw0",""," ","null","","","","",""
"","","","call-function","466","1422101","0.0-466.0","b7jflaw0","","","","","","","",""
"null","","","html-keyboard-response","467","1423605","0.0-467.0","b7jflaw0","","<span style=""color:Black; font-size:50px;"">Video 1</span>","null","","","","",""
"null","","","video-keyboard-response","468","1426714","0.0-468.0","b7jflaw0","","","null","","<span style=""color:Black; font-size:50px;"">Casey","Casey","STIM_SET_1/1592233.bmp_pp58_L1_V1_veridical_freeview_isoFalse_fps144.mp4",""
"null","","","html-keyboard-response","469","1428217","0.0-469.0","b7jflaw0","","<span style=""color:Black; font-size:50px;"">Video 2</span>","null","","","","",""
"null","","","video-keyboard-response","470","1431314","0.0-470.0","b7jflaw0","","","null","","<span style=""color:Black; font-size:50px;"">Sandy","Sandy","STIM_SET_1/1592233.bmp_pp154_L1_V1_veridical_freeview_isoFalse_fps144.mp4",""
"","","","call-function","471","1431315","0.0-471.0","b7jflaw0","","","","","","","",""
"788.2900000000373","","","categorize-html","472","1434107","0.0-472.0","b7jflaw0","","Which video showed <span style=""font-size:30px"">Sandy's</span> attention?","49","","","","","false"
"null","","","html-keyboard-response","473","1434614","0.0-473.0","b7jflaw0",""," ","null","","","","",""
"","","","call-function","474","1434614","0.0-474.0","b7jflaw0","","","","","","","",""
"null","","","html-keyboard-response","475","1436116","0.0-475.0","b7jflaw0","","<span style=""color:Black; font-size:50px;"">Video 1</span>","null","","","","",""
"null","","","video-keyboard-response","476","1439304","0.0-476.0","b7jflaw0","","","null","","<span style=""color:Black; font-size:50px;"">Sandy","Sandy","STIM_SET_1/713652.bmp_pp154_L1_V1_veridical_freeview_isoFalse_fps144.mp4",""
"null","","","html-keyboard-response","477","1440807","0.0-477.0","b7jflaw0","","<span style=""color:Black; font-size:50px;"">Video 2</span>","null","","","","",""
"null","","","video-keyboard-response","478","1443873","0.0-478.0","b7jflaw0","","","null","","<span style=""color:Black; font-size:50px;"">Casey","Casey","STIM_SET_1/713652.bmp_pp58_L1_V1_veridical_freeview_isoFalse_fps144.mp4",""
"","","","call-function","479","1443873","0.0-479.0","b7jflaw0","","","","","","","",""
"349.7150000000838","","","categorize-html","480","1446226","0.0-480.0","b7jflaw0","","Which video showed <span style=""font-size:30px"">Sandy's</span> attention?","49","","","","","true"
"null","","","html-keyboard-response","481","1446730","0.0-481.0","b7jflaw0",""," ","null","","","","",""
"","","","call-function","482","1446730","0.0-482.0","b7jflaw0","","","","","","","",""
"null","","","html-keyboard-response","483","1448236","0.0-483.0","b7jflaw0","","<span style=""color:Black; font-size:50px;"">Video 1</span>","null","","","","",""
"null","","","video-keyboard-response","484","1451311","0.0-484.0","b7jflaw0","","","null","","<span style=""color:Black; font-size:50px;"">Sandy","Sandy","STIM_SET_1/497950.bmp_pp154_L1_V1_veridical_freeview_isoFalse_fps144.mp4",""
"null","","","html-keyboard-response","485","1452815","0.0-485.0","b7jflaw0","","<span style=""color:Black; font-size:50px;"">Video 2</span>","null","","","","",""
"null","","","video-keyboard-response","486","1455889","0.0-486.0","b7jflaw0","","","null","","<span style=""color:Black; font-size:50px;"">Casey","Casey","STIM_SET_1/497950.bmp_pp58_L1_V1_veridical_freeview_isoFalse_fps144.mp4",""
"","","","call-function","487","1455890","0.0-487.0","b7jflaw0","","","","","","","",""
"885.8549999999814","","","categorize-html","488","1458780","0.0-488.0","b7jflaw0","","Which video showed <span style=""font-size:30px"">Sandy's</span> attention?","50","","","","","false"
"null","","","html-keyboard-response","489","1459283","0.0-489.0","b7jflaw0",""," ","null","","","","",""
"","","","call-function","490","1459283","0.0-490.0","b7jflaw0","","","","","","","",""
"null","","","html-keyboard-response","491","1460789","0.0-491.0","b7jflaw0","","<span style=""color:Black; font-size:50px;"">Video 1</span>","null","","","","",""
"null","","","video-keyboard-response","492","1463876","0.0-492.0","b7jflaw0","","","null","","<span style=""color:Black; font-size:50px;"">Sandy","Sandy","STIM_SET_1/285948.bmp_pp154_L1_V1_veridical_freeview_isoFalse_fps144.mp4",""
"null","","","html-keyboard-response","493","1465382","0.0-493.0","b7jflaw0","","<span style=""color:Black; font-size:50px;"">Video 2</span>","null","","","","",""
"null","","","video-keyboard-response","494","1468480","0.0-494.0","b7jflaw0","","","null","","<span style=""color:Black; font-size:50px;"">Casey","Casey","STIM_SET_1/285948.bmp_pp58_L1_V1_veridical_freeview_isoFalse_fps144.mp4",""
"","","","call-function","495","1468481","0.0-495.0","b7jflaw0","","","","","","","",""
"414.33499999996275","","","categorize-html","496","1470897","0.0-496.0","b7jflaw0","","Which video showed <span style=""font-size:30px"">Sandy's</span> attention?","50","","","","","false"
"null","","","html-keyboard-response","497","1471400","0.0-497.0","b7jflaw0",""," ","null","","","","",""
"141632.76","","","instructions","498","1613033","0.0-498.0","b7jflaw0","[{""page_index"":0,""viewing_time"":140373.96499999985},{""page_index"":1,""viewing_time"":548.6700000001583},{""page_index"":2,""viewing_time"":710.0100000000093}]","","","","","","",""
"1293.6099999998696","","","instructions","499","1614327","0.0-499.0","b7jflaw0","[{""page_index"":0,""viewing_time"":370.7700000000186},{""page_index"":1,""viewing_time"":362.6599999999162},{""page_index"":2,""viewing_time"":560.0749999999534}]","","","","","","",""
"","","","call-function","500","1614327","0.0-500.0","b7jflaw0","","","","","","","",""
"null","","","html-keyboard-response","501","1615831","0.0-501.0","b7jflaw0","","<span style=""color:Black; font-size:50px;"">Video 1</span>","null","","","","",""
"null","","","video-keyboard-response","502","1618906","0.0-502.0","b7jflaw0","","","null","","<span style=""color:Black; font-size:50px;"">Sandy","Sandy","STIM_SET_1/1592079.bmp_pp154_L1_V1_veridical_freeview_isoFalse_fps144.mp4",""
"null","","","html-keyboard-response","503","1620411","0.0-503.0","b7jflaw0","","<span style=""color:Black; font-size:50px;"">Video 2</span>","null","","","","",""
"null","","","video-keyboard-response","504","1623478","0.0-504.0","b7jflaw0","","","null","","<span style=""color:Black; font-size:50px;"">Casey","Casey","STIM_SET_1/1592079.bmp_pp58_L1_V1_veridical_freeview_isoFalse_fps144.mp4",""
"","","","call-function","505","1623479","0.0-505.0","b7jflaw0","","","","","","","",""
"328.41500000003725","","","categorize-html","506","1625812","0.0-506.0","b7jflaw0","","Which video showed <span style=""font-size:30px"">Sandy's</span> attention?","49","","","","","true"
"null","","","html-keyboard-response","507","1626315","0.0-507.0","b7jflaw0",""," ","null","","","","",""
"","","","call-function","508","1626316","0.0-508.0","b7jflaw0","","","","","","","",""
"null","","","html-keyboard-response","509","1627820","0.0-509.0","b7jflaw0","","<span style=""color:Black; font-size:50px;"">Video 1</span>","null","","","","",""
"null","","","video-keyboard-response","510","1630902","0.0-510.0","b7jflaw0","","","null","","<span style=""color:Black; font-size:50px;"">Casey","Casey","STIM_SET_1/1593041.bmp_pp58_L1_V1_veridical_freeview_isoFalse_fps144.mp4",""
"null","","","html-keyboard-response","511","1632406","0.0-511.0","b7jflaw0","","<span style=""color:Black; font-size:50px;"">Video 2</span>","null","","","","",""
"null","","","video-keyboard-response","512","1635520","0.0-512.0","b7jflaw0","","","null","","<span style=""color:Black; font-size:50px;"">Sandy","Sandy","STIM_SET_1/1593041.bmp_pp154_L1_V1_veridical_freeview_isoFalse_fps144.mp4",""
"","","","call-function","513","1635520","0.0-513.0","b7jflaw0","","","","","","","",""
"1887.1350000000093","","","categorize-html","514","1639411","0.0-514.0","b7jflaw0","","Which video showed <span style=""font-size:30px"">Sandy's</span> attention?","50","","","","","true"
"null","","","html-keyboard-response","515","1639917","0.0-515.0","b7jflaw0",""," ","null","","","","",""
"","","","call-function","516","1639917","0.0-516.0","b7jflaw0","","","","","","","",""
"null","","","html-keyboard-response","517","1641420","0.0-517.0","b7jflaw0","","<span style=""color:Black; font-size:50px;"">Video 1</span>","null","","","","",""
"null","","","video-keyboard-response","518","1644517","0.0-518.0","b7jflaw0","","","null","","<span style=""color:Black; font-size:50px;"">Sandy","Sandy","STIM_SET_1/285959.bmp_pp154_L1_V1_veridical_freeview_isoFalse_fps144.mp4",""
"null","","","html-keyboard-response","519","1646020","0.0-519.0","b7jflaw0","","<span style=""color:Black; font-size:50px;"">Video 2</span>","null","","","","",""
"null","","","video-keyboard-response","520","1649137","0.0-520.0","b7jflaw0","","","null","","<span style=""color:Black; font-size:50px;"">Casey","Casey","STIM_SET_1/285959.bmp_pp58_L1_V1_veridical_freeview_isoFalse_fps144.mp4",""
"","","","call-function","521","1649138","0.0-521.0","b7jflaw0","","","","","","","",""
"525.7249999998603","","","categorize-html","522","1651670","0.0-522.0","b7jflaw0","","Which video showed <span style=""font-size:30px"">Sandy's</span> attention?","49","","","","","true"
"null","","","html-keyboard-response","523","1652173","0.0-523.0","b7jflaw0",""," ","null","","","","",""
"","","","call-function","524","1652173","0.0-524.0","b7jflaw0","","","","","","","",""
"null","","","html-keyboard-response","525","1653675","0.0-525.0","b7jflaw0","","<span style=""color:Black; font-size:50px;"">Video 1</span>","null","","","","",""
"null","","","video-keyboard-response","526","1656761","0.0-526.0","b7jflaw0","","","null","","<span style=""color:Black; font-size:50px;"">Casey","Casey","STIM_SET_1/1592351.bmp_pp58_L1_V1_veridical_freeview_isoFalse_fps144.mp4",""
"null","","","html-keyboard-response","527","1658263","0.0-527.0","b7jflaw0","","<span style=""color:Black; font-size:50px;"">Video 2</span>","null","","","","",""
"null","","","video-keyboard-response","528","1661341","0.0-528.0","b7jflaw0","","","null","","<span style=""color:Black; font-size:50px;"">Sandy","Sandy","STIM_SET_1/1592351.bmp_pp154_L1_V1_veridical_freeview_isoFalse_fps144.mp4",""
"","","","call-function","529","1661342","0.0-529.0","b7jflaw0","","","","","","","",""
"705.7949999999255","","","categorize-html","530","1664051","0.0-530.0","b7jflaw0","","Which video showed <span style=""font-size:30px"">Sandy's</span> attention?","50","","","","","true"
"null","","","html-keyboard-response","531","1664553","0.0-531.0","b7jflaw0",""," ","null","","","","",""
"","","","call-function","532","1664554","0.0-532.0","b7jflaw0","","","","","","","",""
"null","","","html-keyboard-response","533","1666058","0.0-533.0","b7jflaw0","","<span style=""color:Black; font-size:50px;"">Video 1</span>","null","","","","",""
"null","","","video-keyboard-response","534","1669157","0.0-534.0","b7jflaw0","","","null","","<span style=""color:Black; font-size:50px;"">Sandy","Sandy","STIM_SET_1/1593047.bmp_pp154_L1_V1_veridical_freeview_isoFalse_fps144.mp4",""
"null","","","html-keyboard-response","535","1670662","0.0-535.0","b7jflaw0","","<span style=""color:Black; font-size:50px;"">Video 2</span>","null","","","","",""
"null","","","video-keyboard-response","536","1673754","0.0-536.0","b7jflaw0","","","null","","<span style=""color:Black; font-size:50px;"">Casey","Casey","STIM_SET_1/1593047.bmp_pp58_L1_V1_veridical_freeview_isoFalse_fps144.mp4",""
"","","","call-function","537","1673755","0.0-537.0","b7jflaw0","","","","","","","",""
"660.6450000000186","","","categorize-html","538","1676422","0.0-538.0","b7jflaw0","","Which video showed <span style=""font-size:30px"">Sandy's</span> attention?","50","","","","","false"
"null","","","html-keyboard-response","539","1676929","0.0-539.0","b7jflaw0",""," ","null","","","","",""
"","","","call-function","540","1676929","0.0-540.0","b7jflaw0","","","","","","","",""
"null","","","html-keyboard-response","541","1678432","0.0-541.0","b7jflaw0","","<span style=""color:Black; font-size:50px;"">Video 1</span>","null","","","","",""
"null","","","video-keyboard-response","542","1681530","0.0-542.0","b7jflaw0","","","null","","<span style=""color:Black; font-size:50px;"">Casey","Casey","STIM_SET_1/1159572.bmp_pp58_L1_V1_veridical_freeview_isoFalse_fps144.mp4",""
"null","","","html-keyboard-response","543","1683032","0.0-543.0","b7jflaw0","","<span style=""color:Black; font-size:50px;"">Video 2</span>","null","","","","",""
"null","","","video-keyboard-response","544","1686101","0.0-544.0","b7jflaw0","","","null","","<span style=""color:Black; font-size:50px;"">Sandy","Sandy","STIM_SET_1/1159572.bmp_pp154_L1_V1_veridical_freeview_isoFalse_fps144.mp4",""
"","","","call-function","545","1686102","0.0-545.0","b7jflaw0","","","","","","","",""
"473.5549999999348","","","categorize-html","546","1688578","0.0-546.0","b7jflaw0","","Which video showed <span style=""font-size:30px"">Sandy's</span> attention?","49","","","","","false"
"null","","","html-keyboard-response","547","1689081","0.0-547.0","b7jflaw0",""," ","null","","","","",""
"","","","call-function","548","1689082","0.0-548.0","b7jflaw0","","","","","","","",""
"null","","","html-keyboard-response","549","1690585","0.0-549.0","b7jflaw0","","<span style=""color:Black; font-size:50px;"">Video 1</span>","null","","","","",""
"null","","","video-keyboard-response","550","1693646","0.0-550.0","b7jflaw0","","","null","","<span style=""color:Black; font-size:50px;"">Casey","Casey","STIM_SET_1/1591838.bmp_pp58_L1_V1_veridical_freeview_isoFalse_fps144.mp4",""
"null","","","html-keyboard-response","551","1695150","0.0-551.0","b7jflaw0","","<span style=""color:Black; font-size:50px;"">Video 2</span>","null","","","","",""
"null","","","video-keyboard-response","552","1698225","0.0-552.0","b7jflaw0","","","null","","<span style=""color:Black; font-size:50px;"">Sandy","Sandy","STIM_SET_1/1591838.bmp_pp154_L1_V1_veridical_freeview_isoFalse_fps144.mp4",""
"","","","call-function","553","1698225","0.0-553.0","b7jflaw0","","","","","","","",""
"558.1450000000186","","","categorize-html","554","1700788","0.0-554.0","b7jflaw0","","Which video showed <span style=""font-size:30px"">Sandy's</span> attention?","50","","","","","true"
"null","","","html-keyboard-response","555","1701292","0.0-555.0","b7jflaw0",""," ","null","","","","",""
"","","","call-function","556","1701293","0.0-556.0","b7jflaw0","","","","","","","",""
"null","","","html-keyboard-response","557","1702798","0.0-557.0","b7jflaw0","","<span style=""color:Black; font-size:50px;"">Video 1</span>","null","","","","",""
"null","","","video-keyboard-response","558","1705906","0.0-558.0","b7jflaw0","","","null","","<span style=""color:Black; font-size:50px;"">Sandy","Sandy","STIM_SET_1/285905.bmp_pp154_L1_V1_veridical_freeview_isoFalse_fps144.mp4",""
"null","","","html-keyboard-response","559","1707407","0.0-559.0","b7jflaw0","","<span style=""color:Black; font-size:50px;"">Video 2</span>","null","","","","",""
"null","","","video-keyboard-response","560","1710506","0.0-560.0","b7jflaw0","","","null","","<span style=""color:Black; font-size:50px;"">Casey","Casey","STIM_SET_1/285905.bmp_pp58_L1_V1_veridical_freeview_isoFalse_fps144.mp4",""
"","","","call-function","561","1710506","0.0-561.0","b7jflaw0","","","","","","","",""
"1045.5700000000652","","","categorize-html","562","1713559","0.0-562.0","b7jflaw0","","Which video showed <span style=""font-size:30px"">Sandy's</span> attention?","49","","","","","true"
"null","","","html-keyboard-response","563","1714064","0.0-563.0","b7jflaw0",""," ","null","","","","",""
"","","","call-function","564","1714065","0.0-564.0","b7jflaw0","","","","","","","",""
"null","","","html-keyboard-response","565","1715571","0.0-565.0","b7jflaw0","","<span style=""color:Black; font-size:50px;"">Video 1</span>","null","","","","",""
"null","","","video-keyboard-response","566","1718685","0.0-566.0","b7jflaw0","","","null","","<span style=""color:Black; font-size:50px;"">Casey","Casey","STIM_SET_1/1592807.bmp_pp58_L1_V1_veridical_freeview_isoFalse_fps144.mp4",""
"null","","","html-keyboard-response","567","1720190","0.0-567.0","b7jflaw0","","<span style=""color:Black; font-size:50px;"">Video 2</span>","null","","","","",""
"null","","","video-keyboard-response","568","1723303","0.0-568.0","b7jflaw0","","","null","","<span style=""color:Black; font-size:50px;"">Sandy","Sandy","STIM_SET_1/1592807.bmp_pp154_L1_V1_veridical_freeview_isoFalse_fps144.mp4",""
"","","","call-function","569","1723304","0.0-569.0","b7jflaw0","","","","","","","",""
"591.6399999998976","","","categorize-html","570","1725898","0.0-570.0","b7jflaw0","","Which video showed <span style=""font-size:30px"">Sandy's</span> attention?","50","","","","","true"
"null","","","html-keyboard-response","571","1726400","0.0-571.0","b7jflaw0",""," ","null","","","","",""
"","","","call-function","572","1726400","0.0-572.0","b7jflaw0","","","","","","","",""
"null","","","html-keyboard-response","573","1727904","0.0-573.0","b7jflaw0","","<span style=""color:Black; font-size:50px;"">Video 1</span>","null","","","","",""
"null","","","video-keyboard-response","574","1731013","0.0-574.0","b7jflaw0","","","null","","<span style=""color:Black; font-size:50px;"">Sandy","Sandy","STIM_SET_1/1592857.bmp_pp154_L1_V1_veridical_freeview_isoFalse_fps144.mp4",""
"null","","","html-keyboard-response","575","1732514","0.0-575.0","b7jflaw0","","<span style=""color:Black; font-size:50px;"">Video 2</span>","null","","","","",""
"null","","","video-keyboard-response","576","1735623","0.0-576.0","b7jflaw0","","","null","","<span style=""color:Black; font-size:50px;"">Casey","Casey","STIM_SET_1/1592857.bmp_pp58_L1_V1_veridical_freeview_isoFalse_fps144.mp4",""
"","","","call-function","577","1735623","0.0-577.0","b7jflaw0","","","","","","","",""
"1768.2350000001024","","","categorize-html","578","1739397","0.0-578.0","b7jflaw0","","Which video showed <span style=""font-size:30px"">Sandy's</span> attention?","49","","","","","true"
"null","","","html-keyboard-response","579","1739904","0.0-579.0","b7jflaw0",""," ","null","","","","",""
"5065.465000000084","","","instructions","580","1744970","0.0-580.0","b7jflaw0","[{""page_index"":0,""viewing_time"":5065.344999999972}]","","","","","","",""
"1525.030000000028","","","instructions","581","1746496","0.0-581.0","b7jflaw0","[{""page_index"":0,""viewing_time"":1524.9150000000373}]","","","","","","",""
"41966.67000000016","{""Q0"":""I think I got a bit better at determining who was who. However, there were still some where I was convinced that I knew who it was and I got it wrong.""}","","survey-text","582","1788469","0.0-582.0","b7jflaw0","","","","","","","",""
"37039.85999999987","{""Q0"":""Casey was more likely to jump around the image than Sandy. Also, Sandy was more likely to focus on one aspect for longer.""}","","survey-text","583","1825513","0.0-583.0","b7jflaw0","","","","","","","",""
"30642.76500000013","{""Q0"":""Sometimes my strategies seemed not to work and so I truly have no idea how I could tell who was who.""}","","survey-text","584","1856159","0.0-584.0","b7jflaw0","","","","","","","",""
"1276.469999999972","","","instructions","585","1857436","0.0-585.0","b7jflaw0","[{""page_index"":0,""viewing_time"":1276.3549999999814}]","","","","","","",""
"147304.08499999996","{""Experimenter_end"":[""Printed ID# b7jflaw0 on consent form"",""Given subject SONA credit or payment"",""Given the subject debrief form""]}","[0]","survey-multi-select","586","2004742","0.0-586.0","b7jflaw0","","","","","","","",""
