"rt","responses","question_order","trial_type","trial_index","time_elapsed","internal_node_id","ID","view_history","stimulus","key_press","value","agent","condition","image","correct"
"309247.01999999996","{""Experimenter"":[""Confirmed subject's identity (ID card)""]}","[0]","survey-multi-select","0","309255","0.0-0.0","e04s1fqv","","","","","","","",""
"24208.580000000016","","","instructions","1","333465","0.0-1.0","e04s1fqv","[{""page_index"":0,""viewing_time"":24208.429999999993}]","","","","","","",""
"53188.59500000003","","","instructions","2","386654","0.0-2.0","e04s1fqv","[{""page_index"":0,""viewing_time"":33121.205000000016},{""page_index"":1,""viewing_time"":10915.969999999972},{""page_index"":2,""viewing_time"":9151.290000000037}]","","","","","","",""
"4012.219999999972","","","instructions","3","390667","0.0-3.0","e04s1fqv","[{""page_index"":0,""viewing_time"":4012.1149999999907}]","","","","","","",""
"null","","","video-keyboard-response","4","393741","0.0-4.0","e04s1fqv","","","null","","","","",""
"50515.294999999984","","","instructions","5","444257","0.0-5.0","e04s1fqv","[{""page_index"":0,""viewing_time"":5116.229999999981},{""page_index"":1,""viewing_time"":3953.9400000000023},{""page_index"":2,""viewing_time"":1511.8800000000047},{""page_index"":3,""viewing_time"":7619.244999999995},{""page_index"":4,""viewing_time"":6357.740000000049},{""page_index"":5,""viewing_time"":12072.329999999958},{""page_index"":6,""viewing_time"":9544.684999999998},{""page_index"":7,""viewing_time"":4339.119999999995}]","","","","","","",""
"9470.575000000012","","","instructions","6","453728","0.0-6.0","e04s1fqv","[{""page_index"":0,""viewing_time"":9470.375}]","","","","","","",""
"3168.0050000000047","","","instructions","7","456896","0.0-7.0","e04s1fqv","[{""page_index"":0,""viewing_time"":3167.75}]","","","","","","",""
"","","","call-function","8","456897","0.0-8.0","e04s1fqv","","","","","","","",""
"null","","","html-keyboard-response","9","458398","0.0-9.0","e04s1fqv","","<span style=""color:Black; font-size:50px;"">Video 1</span>","null","","","","",""
"null","","","video-keyboard-response","10","461485","0.0-10.0","e04s1fqv","","","null","","<span style=""color:Black; font-size:50px;"">Sandy","Sandy","STIM_SET_20/1592519.bmp_pp91_L3_V1_veridical_freeview_isoFalse_fps144.mp4",""
"null","","","html-keyboard-response","11","462990","0.0-11.0","e04s1fqv","","<span style=""color:Black; font-size:50px;"">Video 2</span>","null","","","","",""
"null","","","video-keyboard-response","12","466075","0.0-12.0","e04s1fqv","","","null","","<span style=""color:Black; font-size:50px;"">Casey","Casey","STIM_SET_20/1592519.bmp_pp69_L3_V1_veridical_freeview_isoFalse_fps144.mp4",""
"","","","call-function","13","466075","0.0-13.0","e04s1fqv","","","","","","","",""
"2716.25","","","categorize-html","14","470795","0.0-14.0","e04s1fqv","","Which video showed <span style=""font-size:30px"">Sandy's</span> attention?","49","","","","","true"
"null","","","html-keyboard-response","15","471302","0.0-15.0","e04s1fqv",""," ","null","","","","",""
"","","","call-function","16","471303","0.0-16.0","e04s1fqv","","","","","","","",""
"null","","","html-keyboard-response","17","472807","0.0-17.0","e04s1fqv","","<span style=""color:Black; font-size:50px;"">Video 1</span>","null","","","","",""
"null","","","video-keyboard-response","18","475879","0.0-18.0","e04s1fqv","","","null","","<span style=""color:Black; font-size:50px;"">Casey","Casey","STIM_SET_20/713780.bmp_pp69_L3_V1_veridical_freeview_isoFalse_fps144.mp4",""
"null","","","html-keyboard-response","19","477386","0.0-19.0","e04s1fqv","","<span style=""color:Black; font-size:50px;"">Video 2</span>","null","","","","",""
"null","","","video-keyboard-response","20","480454","0.0-20.0","e04s1fqv","","","null","","<span style=""color:Black; font-size:50px;"">Sandy","Sandy","STIM_SET_20/713780.bmp_pp91_L3_V1_veridical_freeview_isoFalse_fps144.mp4",""
"","","","call-function","21","480455","0.0-21.0","e04s1fqv","","","","","","","",""
"1727.7549999999464","","","categorize-html","22","484187","0.0-22.0","e04s1fqv","","Which video showed <span style=""font-size:30px"">Sandy's</span> attention?","50","","","","","true"
"null","","","html-keyboard-response","23","484694","0.0-23.0","e04s1fqv",""," ","null","","","","",""
"","","","call-function","24","484694","0.0-24.0","e04s1fqv","","","","","","","",""
"null","","","html-keyboard-response","25","486197","0.0-25.0","e04s1fqv","","<span style=""color:Black; font-size:50px;"">Video 1</span>","null","","","","",""
"null","","","video-keyboard-response","26","489276","0.0-26.0","e04s1fqv","","","null","","<span style=""color:Black; font-size:50px;"">Casey","Casey","STIM_SET_20/1592817.bmp_pp69_L3_V1_veridical_freeview_isoFalse_fps144.mp4",""
"null","","","html-keyboard-response","27","490780","0.0-27.0","e04s1fqv","","<span style=""color:Black; font-size:50px;"">Video 2</span>","null","","","","",""
"null","","","video-keyboard-response","28","493847","0.0-28.0","e04s1fqv","","","null","","<span style=""color:Black; font-size:50px;"">Sandy","Sandy","STIM_SET_20/1592817.bmp_pp91_L3_V1_veridical_freeview_isoFalse_fps144.mp4",""
"","","","call-function","29","493849","0.0-29.0","e04s1fqv","","","","","","","",""
"2877.109999999986","","","categorize-html","30","498731","0.0-30.0","e04s1fqv","","Which video showed <span style=""font-size:30px"">Sandy's</span> attention?","50","","","","","true"
"null","","","html-keyboard-response","31","499236","0.0-31.0","e04s1fqv",""," ","null","","","","",""
"","","","call-function","32","499236","0.0-32.0","e04s1fqv","","","","","","","",""
"null","","","html-keyboard-response","33","500738","0.0-33.0","e04s1fqv","","<span style=""color:Black; font-size:50px;"">Video 1</span>","null","","","","",""
"null","","","video-keyboard-response","34","503825","0.0-34.0","e04s1fqv","","","null","","<span style=""color:Black; font-size:50px;"">Casey","Casey","STIM_SET_20/1159675.bmp_pp69_L3_V1_veridical_freeview_isoFalse_fps144.mp4",""
"null","","","html-keyboard-response","35","505327","0.0-35.0","e04s1fqv","","<span style=""color:Black; font-size:50px;"">Video 2</span>","null","","","","",""
"null","","","video-keyboard-response","36","508436","0.0-36.0","e04s1fqv","","","null","","<span style=""color:Black; font-size:50px;"">Sandy","Sandy","STIM_SET_20/1159675.bmp_pp91_L3_V1_veridical_freeview_isoFalse_fps144.mp4",""
"","","","call-function","37","508436","0.0-37.0","e04s1fqv","","","","","","","",""
"665.929999999993","","","categorize-html","38","511105","0.0-38.0","e04s1fqv","","Which video showed <span style=""font-size:30px"">Sandy's</span> attention?","49","","","","","false"
"null","","","html-keyboard-response","39","511611","0.0-39.0","e04s1fqv",""," ","null","","","","",""
"","","","call-function","40","511612","0.0-40.0","e04s1fqv","","","","","","","",""
"null","","","html-keyboard-response","41","513115","0.0-41.0","e04s1fqv","","<span style=""color:Black; font-size:50px;"">Video 1</span>","null","","","","",""
"null","","","video-keyboard-response","42","516225","0.0-42.0","e04s1fqv","","","null","","<span style=""color:Black; font-size:50px;"">Casey","Casey","STIM_SET_20/1159293.bmp_pp69_L3_V1_veridical_freeview_isoFalse_fps144.mp4",""
"null","","","html-keyboard-response","43","517730","0.0-43.0","e04s1fqv","","<span style=""color:Black; font-size:50px;"">Video 2</span>","null","","","","",""
"null","","","video-keyboard-response","44","520840","0.0-44.0","e04s1fqv","","","null","","<span style=""color:Black; font-size:50px;"">Sandy","Sandy","STIM_SET_20/1159293.bmp_pp91_L3_V1_veridical_freeview_isoFalse_fps144.mp4",""
"","","","call-function","45","520841","0.0-45.0","e04s1fqv","","","","","","","",""
"709.6300000000047","","","categorize-html","46","523556","0.0-46.0","e04s1fqv","","Which video showed <span style=""font-size:30px"">Sandy's</span> attention?","49","","","","","false"
"null","","","html-keyboard-response","47","524063","0.0-47.0","e04s1fqv",""," ","null","","","","",""
"","","","call-function","48","524063","0.0-48.0","e04s1fqv","","","","","","","",""
"null","","","html-keyboard-response","49","525565","0.0-49.0","e04s1fqv","","<span style=""color:Black; font-size:50px;"">Video 1</span>","null","","","","",""
"null","","","video-keyboard-response","50","528666","0.0-50.0","e04s1fqv","","","null","","<span style=""color:Black; font-size:50px;"">Casey","Casey","STIM_SET_20/1160158.bmp_pp69_L3_V1_veridical_freeview_isoFalse_fps144.mp4",""
"null","","","html-keyboard-response","51","530171","0.0-51.0","e04s1fqv","","<span style=""color:Black; font-size:50px;"">Video 2</span>","null","","","","",""
"null","","","video-keyboard-response","52","533264","0.0-52.0","e04s1fqv","","","null","","<span style=""color:Black; font-size:50px;"">Sandy","Sandy","STIM_SET_20/1160158.bmp_pp91_L3_V1_veridical_freeview_isoFalse_fps144.mp4",""
"","","","call-function","53","533265","0.0-53.0","e04s1fqv","","","","","","","",""
"901.625","","","categorize-html","54","536173","0.0-54.0","e04s1fqv","","Which video showed <span style=""font-size:30px"">Sandy's</span> attention?","49","","","","","false"
"null","","","html-keyboard-response","55","536679","0.0-55.0","e04s1fqv",""," ","null","","","","",""
"","","","call-function","56","536679","0.0-56.0","e04s1fqv","","","","","","","",""
"null","","","html-keyboard-response","57","538185","0.0-57.0","e04s1fqv","","<span style=""color:Black; font-size:50px;"">Video 1</span>","null","","","","",""
"null","","","video-keyboard-response","58","541299","0.0-58.0","e04s1fqv","","","null","","<span style=""color:Black; font-size:50px;"">Sandy","Sandy","STIM_SET_20/713666.bmp_pp91_L3_V1_veridical_freeview_isoFalse_fps144.mp4",""
"null","","","html-keyboard-response","59","542803","0.0-59.0","e04s1fqv","","<span style=""color:Black; font-size:50px;"">Video 2</span>","null","","","","",""
"null","","","video-keyboard-response","60","545895","0.0-60.0","e04s1fqv","","","null","","<span style=""color:Black; font-size:50px;"">Casey","Casey","STIM_SET_20/713666.bmp_pp69_L3_V1_veridical_freeview_isoFalse_fps144.mp4",""
"","","","call-function","61","545895","0.0-61.0","e04s1fqv","","","","","","","",""
"814.9899999999907","","","categorize-html","62","548714","0.0-62.0","e04s1fqv","","Which video showed <span style=""font-size:30px"">Sandy's</span> attention?","49","","","","","true"
"null","","","html-keyboard-response","63","549218","0.0-63.0","e04s1fqv",""," ","null","","","","",""
"","","","call-function","64","549219","0.0-64.0","e04s1fqv","","","","","","","",""
"null","","","html-keyboard-response","65","550721","0.0-65.0","e04s1fqv","","<span style=""color:Black; font-size:50px;"">Video 1</span>","null","","","","",""
"null","","","video-keyboard-response","66","553797","0.0-66.0","e04s1fqv","","","null","","<span style=""color:Black; font-size:50px;"">Casey","Casey","STIM_SET_20/150296.bmp_pp69_L3_V1_veridical_freeview_isoFalse_fps144.mp4",""
"null","","","html-keyboard-response","67","555302","0.0-67.0","e04s1fqv","","<span style=""color:Black; font-size:50px;"">Video 2</span>","null","","","","",""
"null","","","video-keyboard-response","68","558394","0.0-68.0","e04s1fqv","","","null","","<span style=""color:Black; font-size:50px;"">Sandy","Sandy","STIM_SET_20/150296.bmp_pp91_L3_V1_veridical_freeview_isoFalse_fps144.mp4",""
"","","","call-function","69","558394","0.0-69.0","e04s1fqv","","","","","","","",""
"956.015000000014","","","categorize-html","70","561353","0.0-70.0","e04s1fqv","","Which video showed <span style=""font-size:30px"">Sandy's</span> attention?","50","","","","","true"
"null","","","html-keyboard-response","71","561857","0.0-71.0","e04s1fqv",""," ","null","","","","",""
"","","","call-function","72","561858","0.0-72.0","e04s1fqv","","","","","","","",""
"null","","","html-keyboard-response","73","563359","0.0-73.0","e04s1fqv","","<span style=""color:Black; font-size:50px;"">Video 1</span>","null","","","","",""
"null","","","video-keyboard-response","74","566467","0.0-74.0","e04s1fqv","","","null","","<span style=""color:Black; font-size:50px;"">Sandy","Sandy","STIM_SET_20/713679.bmp_pp91_L3_V1_veridical_freeview_isoFalse_fps144.mp4",""
"null","","","html-keyboard-response","75","567970","0.0-75.0","e04s1fqv","","<span style=""color:Black; font-size:50px;"">Video 2</span>","null","","","","",""
"null","","","video-keyboard-response","76","571039","0.0-76.0","e04s1fqv","","","null","","<span style=""color:Black; font-size:50px;"">Casey","Casey","STIM_SET_20/713679.bmp_pp69_L3_V1_veridical_freeview_isoFalse_fps144.mp4",""
"","","","call-function","77","571039","0.0-77.0","e04s1fqv","","","","","","","",""
"1702.2550000000047","","","categorize-html","78","574748","0.0-78.0","e04s1fqv","","Which video showed <span style=""font-size:30px"">Sandy's</span> attention?","49","","","","","true"
"null","","","html-keyboard-response","79","575255","0.0-79.0","e04s1fqv",""," ","null","","","","",""
"","","","call-function","80","575255","0.0-80.0","e04s1fqv","","","","","","","",""
"null","","","html-keyboard-response","81","576761","0.0-81.0","e04s1fqv","","<span style=""color:Black; font-size:50px;"">Video 1</span>","null","","","","",""
"null","","","video-keyboard-response","82","579881","0.0-82.0","e04s1fqv","","","null","","<span style=""color:Black; font-size:50px;"">Casey","Casey","STIM_SET_20/1592951.bmp_pp69_L3_V1_veridical_freeview_isoFalse_fps144.mp4",""
"null","","","html-keyboard-response","83","581386","0.0-83.0","e04s1fqv","","<span style=""color:Black; font-size:50px;"">Video 2</span>","null","","","","",""
"null","","","video-keyboard-response","84","584489","0.0-84.0","e04s1fqv","","","null","","<span style=""color:Black; font-size:50px;"">Sandy","Sandy","STIM_SET_20/1592951.bmp_pp91_L3_V1_veridical_freeview_isoFalse_fps144.mp4",""
"","","","call-function","85","584489","0.0-85.0","e04s1fqv","","","","","","","",""
"773.0750000000698","","","categorize-html","86","587265","0.0-86.0","e04s1fqv","","Which video showed <span style=""font-size:30px"">Sandy's</span> attention?","49","","","","","false"
"null","","","html-keyboard-response","87","587768","0.0-87.0","e04s1fqv",""," ","null","","","","",""
"14045.790000000037","","","instructions","88","601814","0.0-88.0","e04s1fqv","[{""page_index"":0,""viewing_time"":2607.515000000014},{""page_index"":1,""viewing_time"":9458.045000000042},{""page_index"":2,""viewing_time"":1980.0200000000186}]","","","","","","",""
"8217.640000000014","","","instructions","89","610032","0.0-89.0","e04s1fqv","[{""page_index"":0,""viewing_time"":1468.6749999999302},{""page_index"":1,""viewing_time"":5502.82500000007},{""page_index"":2,""viewing_time"":1246.030000000028}]","","","","","","",""
"","","","call-function","90","610032","0.0-90.0","e04s1fqv","","","","","","","",""
"null","","","html-keyboard-response","91","611534","0.0-91.0","e04s1fqv","","<span style=""color:Black; font-size:50px;"">Video 1</span>","null","","","","",""
"null","","","video-keyboard-response","92","614617","0.0-92.0","e04s1fqv","","","null","","<span style=""color:Black; font-size:50px;"">Sandy","Sandy","STIM_SET_20/1593084.bmp_pp91_L3_V1_veridical_freeview_isoFalse_fps144.mp4",""
"null","","","html-keyboard-response","93","616121","0.0-93.0","e04s1fqv","","<span style=""color:Black; font-size:50px;"">Video 2</span>","null","","","","",""
"null","","","video-keyboard-response","94","619203","0.0-94.0","e04s1fqv","","","null","","<span style=""color:Black; font-size:50px;"">Casey","Casey","STIM_SET_20/1593084.bmp_pp69_L3_V1_veridical_freeview_isoFalse_fps144.mp4",""
"","","","call-function","95","619204","0.0-95.0","e04s1fqv","","","","","","","",""
"1162.594999999972","","","categorize-html","96","622369","0.0-96.0","e04s1fqv","","Which video showed <span style=""font-size:30px"">Sandy's</span> attention?","49","","","","","true"
"null","","","html-keyboard-response","97","622874","0.0-97.0","e04s1fqv",""," ","null","","","","",""
"","","","call-function","98","622874","0.0-98.0","e04s1fqv","","","","","","","",""
"null","","","html-keyboard-response","99","624377","0.0-99.0","e04s1fqv","","<span style=""color:Black; font-size:50px;"">Video 1</span>","null","","","","",""
"null","","","video-keyboard-response","100","627453","0.0-100.0","e04s1fqv","","","null","","<span style=""color:Black; font-size:50px;"">Casey","Casey","STIM_SET_20/713392.bmp_pp69_L3_V1_veridical_freeview_isoFalse_fps144.mp4",""
"null","","","html-keyboard-response","101","628957","0.0-101.0","e04s1fqv","","<span style=""color:Black; font-size:50px;"">Video 2</span>","null","","","","",""
"null","","","video-keyboard-response","102","632075","0.0-102.0","e04s1fqv","","","null","","<span style=""color:Black; font-size:50px;"">Sandy","Sandy","STIM_SET_20/713392.bmp_pp91_L3_V1_veridical_freeview_isoFalse_fps144.mp4",""
"","","","call-function","103","632076","0.0-103.0","e04s1fqv","","","","","","","",""
"826.8449999999721","","","categorize-html","104","634909","0.0-104.0","e04s1fqv","","Which video showed <span style=""font-size:30px"">Sandy's</span> attention?","50","","","","","true"
"null","","","html-keyboard-response","105","635411","0.0-105.0","e04s1fqv",""," ","null","","","","",""
"","","","call-function","106","635412","0.0-106.0","e04s1fqv","","","","","","","",""
"null","","","html-keyboard-response","107","636918","0.0-107.0","e04s1fqv","","<span style=""color:Black; font-size:50px;"">Video 1</span>","null","","","","",""
"null","","","video-keyboard-response","108","639993","0.0-108.0","e04s1fqv","","","null","","<span style=""color:Black; font-size:50px;"">Sandy","Sandy","STIM_SET_20/1591858.bmp_pp91_L3_V1_veridical_freeview_isoFalse_fps144.mp4",""
"null","","","html-keyboard-response","109","641494","0.0-109.0","e04s1fqv","","<span style=""color:Black; font-size:50px;"">Video 2</span>","null","","","","",""
"null","","","video-keyboard-response","110","644681","0.0-110.0","e04s1fqv","","","null","","<span style=""color:Black; font-size:50px;"">Casey","Casey","STIM_SET_20/1591858.bmp_pp69_L3_V1_veridical_freeview_isoFalse_fps144.mp4",""
"","","","call-function","111","644681","0.0-111.0","e04s1fqv","","","","","","","",""
"3261.090000000084","","","categorize-html","112","649945","0.0-112.0","e04s1fqv","","Which video showed <span style=""font-size:30px"">Sandy's</span> attention?","49","","","","","true"
"null","","","html-keyboard-response","113","650451","0.0-113.0","e04s1fqv",""," ","null","","","","",""
"","","","call-function","114","650451","0.0-114.0","e04s1fqv","","","","","","","",""
"null","","","html-keyboard-response","115","651956","0.0-115.0","e04s1fqv","","<span style=""color:Black; font-size:50px;"">Video 1</span>","null","","","","",""
"null","","","video-keyboard-response","116","655064","0.0-116.0","e04s1fqv","","","null","","<span style=""color:Black; font-size:50px;"">Casey","Casey","STIM_SET_20/1160171.bmp_pp69_L3_V1_veridical_freeview_isoFalse_fps144.mp4",""
"null","","","html-keyboard-response","117","656568","0.0-117.0","e04s1fqv","","<span style=""color:Black; font-size:50px;"">Video 2</span>","null","","","","",""
"null","","","video-keyboard-response","118","659680","0.0-118.0","e04s1fqv","","","null","","<span style=""color:Black; font-size:50px;"">Sandy","Sandy","STIM_SET_20/1160171.bmp_pp91_L3_V1_veridical_freeview_isoFalse_fps144.mp4",""
"","","","call-function","119","659681","0.0-119.0","e04s1fqv","","","","","","","",""
"1301.890000000014","","","categorize-html","120","662986","0.0-120.0","e04s1fqv","","Which video showed <span style=""font-size:30px"">Sandy's</span> attention?","50","","","","","true"
"null","","","html-keyboard-response","121","663491","0.0-121.0","e04s1fqv",""," ","null","","","","",""
"","","","call-function","122","663492","0.0-122.0","e04s1fqv","","","","","","","",""
"null","","","html-keyboard-response","123","664994","0.0-123.0","e04s1fqv","","<span style=""color:Black; font-size:50px;"">Video 1</span>","null","","","","",""
"null","","","video-keyboard-response","124","668106","0.0-124.0","e04s1fqv","","","null","","<span style=""color:Black; font-size:50px;"">Casey","Casey","STIM_SET_20/1591920.bmp_pp69_L3_V1_veridical_freeview_isoFalse_fps144.mp4",""
"null","","","html-keyboard-response","125","669611","0.0-125.0","e04s1fqv","","<span style=""color:Black; font-size:50px;"">Video 2</span>","null","","","","",""
"null","","","video-keyboard-response","126","672721","0.0-126.0","e04s1fqv","","","null","","<span style=""color:Black; font-size:50px;"">Sandy","Sandy","STIM_SET_20/1591920.bmp_pp91_L3_V1_veridical_freeview_isoFalse_fps144.mp4",""
"","","","call-function","127","672722","0.0-127.0","e04s1fqv","","","","","","","",""
"956.7249999999767","","","categorize-html","128","675681","0.0-128.0","e04s1fqv","","Which video showed <span style=""font-size:30px"">Sandy's</span> attention?","50","","","","","true"
"null","","","html-keyboard-response","129","676184","0.0-129.0","e04s1fqv",""," ","null","","","","",""
"","","","call-function","130","676184","0.0-130.0","e04s1fqv","","","","","","","",""
"null","","","html-keyboard-response","131","677686","0.0-131.0","e04s1fqv","","<span style=""color:Black; font-size:50px;"">Video 1</span>","null","","","","",""
"null","","","video-keyboard-response","132","680762","0.0-132.0","e04s1fqv","","","null","","<span style=""color:Black; font-size:50px;"">Casey","Casey","STIM_SET_20/286034.bmp_pp69_L3_V1_veridical_freeview_isoFalse_fps144.mp4",""
"null","","","html-keyboard-response","133","682266","0.0-133.0","e04s1fqv","","<span style=""color:Black; font-size:50px;"">Video 2</span>","null","","","","",""
"null","","","video-keyboard-response","134","685336","0.0-134.0","e04s1fqv","","","null","","<span style=""color:Black; font-size:50px;"">Sandy","Sandy","STIM_SET_20/286034.bmp_pp91_L3_V1_veridical_freeview_isoFalse_fps144.mp4",""
"","","","call-function","135","685336","0.0-135.0","e04s1fqv","","","","","","","",""
"1318.0699999999488","","","categorize-html","136","688659","0.0-136.0","e04s1fqv","","Which video showed <span style=""font-size:30px"">Sandy's</span> attention?","49","","","","","false"
"null","","","html-keyboard-response","137","689165","0.0-137.0","e04s1fqv",""," ","null","","","","",""
"","","","call-function","138","689165","0.0-138.0","e04s1fqv","","","","","","","",""
"null","","","html-keyboard-response","139","690671","0.0-139.0","e04s1fqv","","<span style=""color:Black; font-size:50px;"">Video 1</span>","null","","","","",""
"null","","","video-keyboard-response","140","693817","0.0-140.0","e04s1fqv","","","null","","<span style=""color:Black; font-size:50px;"">Sandy","Sandy","STIM_SET_20/1592804.bmp_pp91_L3_V1_veridical_freeview_isoFalse_fps144.mp4",""
"null","","","html-keyboard-response","141","695319","0.0-141.0","e04s1fqv","","<span style=""color:Black; font-size:50px;"">Video 2</span>","null","","","","",""
"null","","","video-keyboard-response","142","698425","0.0-142.0","e04s1fqv","","","null","","<span style=""color:Black; font-size:50px;"">Casey","Casey","STIM_SET_20/1592804.bmp_pp69_L3_V1_veridical_freeview_isoFalse_fps144.mp4",""
"","","","call-function","143","698426","0.0-143.0","e04s1fqv","","","","","","","",""
"2676.9799999999814","","","categorize-html","144","703109","0.0-144.0","e04s1fqv","","Which video showed <span style=""font-size:30px"">Sandy's</span> attention?","49","","","","","true"
"null","","","html-keyboard-response","145","703612","0.0-145.0","e04s1fqv",""," ","null","","","","",""
"","","","call-function","146","703612","0.0-146.0","e04s1fqv","","","","","","","",""
"null","","","html-keyboard-response","147","705114","0.0-147.0","e04s1fqv","","<span style=""color:Black; font-size:50px;"">Video 1</span>","null","","","","",""
"null","","","video-keyboard-response","148","708199","0.0-148.0","e04s1fqv","","","null","","<span style=""color:Black; font-size:50px;"">Sandy","Sandy","STIM_SET_20/1159648.bmp_pp91_L3_V1_veridical_freeview_isoFalse_fps144.mp4",""
"null","","","html-keyboard-response","149","709703","0.0-149.0","e04s1fqv","","<span style=""color:Black; font-size:50px;"">Video 2</span>","null","","","","",""
"null","","","video-keyboard-response","150","712810","0.0-150.0","e04s1fqv","","","null","","<span style=""color:Black; font-size:50px;"">Casey","Casey","STIM_SET_20/1159648.bmp_pp69_L3_V1_veridical_freeview_isoFalse_fps144.mp4",""
"","","","call-function","151","712810","0.0-151.0","e04s1fqv","","","","","","","",""
"1756.7700000000186","","","categorize-html","152","716574","0.0-152.0","e04s1fqv","","Which video showed <span style=""font-size:30px"">Sandy's</span> attention?","49","","","","","true"
"null","","","html-keyboard-response","153","717080","0.0-153.0","e04s1fqv",""," ","null","","","","",""
"","","","call-function","154","717080","0.0-154.0","e04s1fqv","","","","","","","",""
"null","","","html-keyboard-response","155","718586","0.0-155.0","e04s1fqv","","<span style=""color:Black; font-size:50px;"">Video 1</span>","null","","","","",""
"null","","","video-keyboard-response","156","721696","0.0-156.0","e04s1fqv","","","null","","<span style=""color:Black; font-size:50px;"">Sandy","Sandy","STIM_SET_20/1159379.bmp_pp91_L3_V1_veridical_freeview_isoFalse_fps144.mp4",""
"null","","","html-keyboard-response","157","723198","0.0-157.0","e04s1fqv","","<span style=""color:Black; font-size:50px;"">Video 2</span>","null","","","","",""
"null","","","video-keyboard-response","158","726384","0.0-158.0","e04s1fqv","","","null","","<span style=""color:Black; font-size:50px;"">Casey","Casey","STIM_SET_20/1159379.bmp_pp69_L3_V1_veridical_freeview_isoFalse_fps144.mp4",""
"","","","call-function","159","726385","0.0-159.0","e04s1fqv","","","","","","","",""
"789.9150000000373","","","categorize-html","160","729177","0.0-160.0","e04s1fqv","","Which video showed <span style=""font-size:30px"">Sandy's</span> attention?","50","","","","","false"
"null","","","html-keyboard-response","161","729682","0.0-161.0","e04s1fqv",""," ","null","","","","",""
"","","","call-function","162","729682","0.0-162.0","e04s1fqv","","","","","","","",""
"null","","","html-keyboard-response","163","731184","0.0-163.0","e04s1fqv","","<span style=""color:Black; font-size:50px;"">Video 1</span>","null","","","","",""
"null","","","video-keyboard-response","164","734281","0.0-164.0","e04s1fqv","","","null","","<span style=""color:Black; font-size:50px;"">Sandy","Sandy","STIM_SET_20/498032.bmp_pp91_L3_V1_veridical_freeview_isoFalse_fps144.mp4",""
"null","","","html-keyboard-response","165","735783","0.0-165.0","e04s1fqv","","<span style=""color:Black; font-size:50px;"">Video 2</span>","null","","","","",""
"null","","","video-keyboard-response","166","738900","0.0-166.0","e04s1fqv","","","null","","<span style=""color:Black; font-size:50px;"">Casey","Casey","STIM_SET_20/498032.bmp_pp69_L3_V1_veridical_freeview_isoFalse_fps144.mp4",""
"","","","call-function","167","738900","0.0-167.0","e04s1fqv","","","","","","","",""
"754.5700000000652","","","categorize-html","168","741660","0.0-168.0","e04s1fqv","","Which video showed <span style=""font-size:30px"">Sandy's</span> attention?","50","","","","","false"
"null","","","html-keyboard-response","169","742163","0.0-169.0","e04s1fqv",""," ","null","","","","",""
"6254.320000000065","","","instructions","170","748417","0.0-170.0","e04s1fqv","[{""page_index"":0,""viewing_time"":5290.070000000065},{""page_index"":1,""viewing_time"":524.0499999999302},{""page_index"":2,""viewing_time"":440.07500000006985}]","","","","","","",""
"1972.734999999986","","","instructions","171","750391","0.0-171.0","e04s1fqv","[{""page_index"":0,""viewing_time"":426.6600000000326},{""page_index"":1,""viewing_time"":811.1750000000466},{""page_index"":2,""viewing_time"":734.734999999986}]","","","","","","",""
"","","","call-function","172","750391","0.0-172.0","e04s1fqv","","","","","","","",""
"null","","","html-keyboard-response","173","751897","0.0-173.0","e04s1fqv","","<span style=""color:Black; font-size:50px;"">Video 1</span>","null","","","","",""
"null","","","video-keyboard-response","174","755002","0.0-174.0","e04s1fqv","","","null","","<span style=""color:Black; font-size:50px;"">Casey","Casey","STIM_SET_20/498170.bmp_pp69_L3_V1_veridical_freeview_isoFalse_fps144.mp4",""
"null","","","html-keyboard-response","175","756505","0.0-175.0","e04s1fqv","","<span style=""color:Black; font-size:50px;"">Video 2</span>","null","","","","",""
"null","","","video-keyboard-response","176","759583","0.0-176.0","e04s1fqv","","","null","","<span style=""color:Black; font-size:50px;"">Sandy","Sandy","STIM_SET_20/498170.bmp_pp91_L3_V1_veridical_freeview_isoFalse_fps144.mp4",""
"","","","call-function","177","759584","0.0-177.0","e04s1fqv","","","","","","","",""
"1710.9000000000233","","","categorize-html","178","763298","0.0-178.0","e04s1fqv","","Which video showed <span style=""font-size:30px"">Sandy's</span> attention?","50","","","","","true"
"null","","","html-keyboard-response","179","763801","0.0-179.0","e04s1fqv",""," ","null","","","","",""
"","","","call-function","180","763801","0.0-180.0","e04s1fqv","","","","","","","",""
"null","","","html-keyboard-response","181","765303","0.0-181.0","e04s1fqv","","<span style=""color:Black; font-size:50px;"">Video 1</span>","null","","","","",""
"null","","","video-keyboard-response","182","768393","0.0-182.0","e04s1fqv","","","null","","<span style=""color:Black; font-size:50px;"">Casey","Casey","STIM_SET_20/713689.bmp_pp69_L3_V1_veridical_freeview_isoFalse_fps144.mp4",""
"null","","","html-keyboard-response","183","769898","0.0-183.0","e04s1fqv","","<span style=""color:Black; font-size:50px;"">Video 2</span>","null","","","","",""
"null","","","video-keyboard-response","184","772973","0.0-184.0","e04s1fqv","","","null","","<span style=""color:Black; font-size:50px;"">Sandy","Sandy","STIM_SET_20/713689.bmp_pp91_L3_V1_veridical_freeview_isoFalse_fps144.mp4",""
"","","","call-function","185","772974","0.0-185.0","e04s1fqv","","","","","","","",""
"488.76500000001397","","","categorize-html","186","775465","0.0-186.0","e04s1fqv","","Which video showed <span style=""font-size:30px"">Sandy's</span> attention?","49","","","","","false"
"null","","","html-keyboard-response","187","775968","0.0-187.0","e04s1fqv",""," ","null","","","","",""
"","","","call-function","188","775968","0.0-188.0","e04s1fqv","","","","","","","",""
"null","","","html-keyboard-response","189","777474","0.0-189.0","e04s1fqv","","<span style=""color:Black; font-size:50px;"">Video 1</span>","null","","","","",""
"null","","","video-keyboard-response","190","780589","0.0-190.0","e04s1fqv","","","null","","<span style=""color:Black; font-size:50px;"">Casey","Casey","STIM_SET_20/1159956.bmp_pp69_L3_V1_veridical_freeview_isoFalse_fps144.mp4",""
"null","","","html-keyboard-response","191","782091","0.0-191.0","e04s1fqv","","<span style=""color:Black; font-size:50px;"">Video 2</span>","null","","","","",""
"null","","","video-keyboard-response","192","785209","0.0-192.0","e04s1fqv","","","null","","<span style=""color:Black; font-size:50px;"">Sandy","Sandy","STIM_SET_20/1159956.bmp_pp91_L3_V1_veridical_freeview_isoFalse_fps144.mp4",""
"","","","call-function","193","785209","0.0-193.0","e04s1fqv","","","","","","","",""
"1229.4350000000559","","","categorize-html","194","788445","0.0-194.0","e04s1fqv","","Which video showed <span style=""font-size:30px"">Sandy's</span> attention?","49","","","","","false"
"null","","","html-keyboard-response","195","788952","0.0-195.0","e04s1fqv",""," ","null","","","","",""
"","","","call-function","196","788952","0.0-196.0","e04s1fqv","","","","","","","",""
"null","","","html-keyboard-response","197","790457","0.0-197.0","e04s1fqv","","<span style=""color:Black; font-size:50px;"">Video 1</span>","null","","","","",""
"null","","","video-keyboard-response","198","793573","0.0-198.0","e04s1fqv","","","null","","<span style=""color:Black; font-size:50px;"">Casey","Casey","STIM_SET_20/1159446.bmp_pp69_L3_V1_veridical_freeview_isoFalse_fps144.mp4",""
"null","","","html-keyboard-response","199","795077","0.0-199.0","e04s1fqv","","<span style=""color:Black; font-size:50px;"">Video 2</span>","null","","","","",""
"null","","","video-keyboard-response","200","798190","0.0-200.0","e04s1fqv","","","null","","<span style=""color:Black; font-size:50px;"">Sandy","Sandy","STIM_SET_20/1159446.bmp_pp91_L3_V1_veridical_freeview_isoFalse_fps144.mp4",""
"","","","call-function","201","798190","0.0-201.0","e04s1fqv","","","","","","","",""
"1624.1600000000326","","","categorize-html","202","801819","0.0-202.0","e04s1fqv","","Which video showed <span style=""font-size:30px"">Sandy's</span> attention?","50","","","","","true"
"null","","","html-keyboard-response","203","802325","0.0-203.0","e04s1fqv",""," ","null","","","","",""
"","","","call-function","204","802325","0.0-204.0","e04s1fqv","","","","","","","",""
"null","","","html-keyboard-response","205","803832","0.0-205.0","e04s1fqv","","<span style=""color:Black; font-size:50px;"">Video 1</span>","null","","","","",""
"null","","","video-keyboard-response","206","806942","0.0-206.0","e04s1fqv","","","null","","<span style=""color:Black; font-size:50px;"">Casey","Casey","STIM_SET_20/285670.bmp_pp69_L3_V1_veridical_freeview_isoFalse_fps144.mp4",""
"null","","","html-keyboard-response","207","808444","0.0-207.0","e04s1fqv","","<span style=""color:Black; font-size:50px;"">Video 2</span>","null","","","","",""
"null","","","video-keyboard-response","208","811562","0.0-208.0","e04s1fqv","","","null","","<span style=""color:Black; font-size:50px;"">Sandy","Sandy","STIM_SET_20/285670.bmp_pp91_L3_V1_veridical_freeview_isoFalse_fps144.mp4",""
"","","","call-function","209","811562","0.0-209.0","e04s1fqv","","","","","","","",""
"436.7149999999674","","","categorize-html","210","814002","0.0-210.0","e04s1fqv","","Which video showed <span style=""font-size:30px"">Sandy's</span> attention?","49","","","","","false"
"null","","","html-keyboard-response","211","814506","0.0-211.0","e04s1fqv",""," ","null","","","","",""
"","","","call-function","212","814507","0.0-212.0","e04s1fqv","","","","","","","",""
"null","","","html-keyboard-response","213","816011","0.0-213.0","e04s1fqv","","<span style=""color:Black; font-size:50px;"">Video 1</span>","null","","","","",""
"null","","","video-keyboard-response","214","819091","0.0-214.0","e04s1fqv","","","null","","<span style=""color:Black; font-size:50px;"">Casey","Casey","STIM_SET_20/1592581.bmp_pp69_L3_V1_veridical_freeview_isoFalse_fps144.mp4",""
"null","","","html-keyboard-response","215","820593","0.0-215.0","e04s1fqv","","<span style=""color:Black; font-size:50px;"">Video 2</span>","null","","","","",""
"null","","","video-keyboard-response","216","823663","0.0-216.0","e04s1fqv","","","null","","<span style=""color:Black; font-size:50px;"">Sandy","Sandy","STIM_SET_20/1592581.bmp_pp91_L3_V1_veridical_freeview_isoFalse_fps144.mp4",""
"","","","call-function","217","823663","0.0-217.0","e04s1fqv","","","","","","","",""
"1327.8099999999395","","","categorize-html","218","826998","0.0-218.0","e04s1fqv","","Which video showed <span style=""font-size:30px"">Sandy's</span> attention?","49","","","","","false"
"null","","","html-keyboard-response","219","827504","0.0-219.0","e04s1fqv",""," ","null","","","","",""
"","","","call-function","220","827505","0.0-220.0","e04s1fqv","","","","","","","",""
"null","","","html-keyboard-response","221","829006","0.0-221.0","e04s1fqv","","<span style=""color:Black; font-size:50px;"">Video 1</span>","null","","","","",""
"null","","","video-keyboard-response","222","832097","0.0-222.0","e04s1fqv","","","null","","<span style=""color:Black; font-size:50px;"">Casey","Casey","STIM_SET_20/1591994.bmp_pp69_L3_V1_veridical_freeview_isoFalse_fps144.mp4",""
"null","","","html-keyboard-response","223","833603","0.0-223.0","e04s1fqv","","<span style=""color:Black; font-size:50px;"">Video 2</span>","null","","","","",""
"null","","","video-keyboard-response","224","836683","0.0-224.0","e04s1fqv","","","null","","<span style=""color:Black; font-size:50px;"">Sandy","Sandy","STIM_SET_20/1591994.bmp_pp91_L3_V1_veridical_freeview_isoFalse_fps144.mp4",""
"","","","call-function","225","836683","0.0-225.0","e04s1fqv","","","","","","","",""
"2034.8300000000745","","","categorize-html","226","840725","0.0-226.0","e04s1fqv","","Which video showed <span style=""font-size:30px"">Sandy's</span> attention?","50","","","","","true"
"null","","","html-keyboard-response","227","841227","0.0-227.0","e04s1fqv",""," ","null","","","","",""
"","","","call-function","228","841228","0.0-228.0","e04s1fqv","","","","","","","",""
"null","","","html-keyboard-response","229","842734","0.0-229.0","e04s1fqv","","<span style=""color:Black; font-size:50px;"">Video 1</span>","null","","","","",""
"null","","","video-keyboard-response","230","845865","0.0-230.0","e04s1fqv","","","null","","<span style=""color:Black; font-size:50px;"">Casey","Casey","STIM_SET_20/1592150.bmp_pp69_L3_V1_veridical_freeview_isoFalse_fps144.mp4",""
"null","","","html-keyboard-response","231","847372","0.0-231.0","e04s1fqv","","<span style=""color:Black; font-size:50px;"">Video 2</span>","null","","","","",""
"null","","","video-keyboard-response","232","850524","0.0-232.0","e04s1fqv","","","null","","<span style=""color:Black; font-size:50px;"">Sandy","Sandy","STIM_SET_20/1592150.bmp_pp91_L3_V1_veridical_freeview_isoFalse_fps144.mp4",""
"","","","call-function","233","850524","0.0-233.0","e04s1fqv","","","","","","","",""
"754.5349999999162","","","categorize-html","234","853282","0.0-234.0","e04s1fqv","","Which video showed <span style=""font-size:30px"">Sandy's</span> attention?","50","","","","","true"
"null","","","html-keyboard-response","235","853789","0.0-235.0","e04s1fqv",""," ","null","","","","",""
"","","","call-function","236","853789","0.0-236.0","e04s1fqv","","","","","","","",""
"null","","","html-keyboard-response","237","855295","0.0-237.0","e04s1fqv","","<span style=""color:Black; font-size:50px;"">Video 1</span>","null","","","","",""
"null","","","video-keyboard-response","238","858388","0.0-238.0","e04s1fqv","","","null","","<span style=""color:Black; font-size:50px;"">Casey","Casey","STIM_SET_20/1592314.bmp_pp69_L3_V1_veridical_freeview_isoFalse_fps144.mp4",""
"null","","","html-keyboard-response","239","859891","0.0-239.0","e04s1fqv","","<span style=""color:Black; font-size:50px;"">Video 2</span>","null","","","","",""
"null","","","video-keyboard-response","240","862996","0.0-240.0","e04s1fqv","","","null","","<span style=""color:Black; font-size:50px;"">Sandy","Sandy","STIM_SET_20/1592314.bmp_pp91_L3_V1_veridical_freeview_isoFalse_fps144.mp4",""
"","","","call-function","241","862997","0.0-241.0","e04s1fqv","","","","","","","",""
"2890.125","","","categorize-html","242","867889","0.0-242.0","e04s1fqv","","Which video showed <span style=""font-size:30px"">Sandy's</span> attention?","49","","","","","false"
"null","","","html-keyboard-response","243","868392","0.0-243.0","e04s1fqv",""," ","null","","","","",""
"","","","call-function","244","868393","0.0-244.0","e04s1fqv","","","","","","","",""
"null","","","html-keyboard-response","245","869897","0.0-245.0","e04s1fqv","","<span style=""color:Black; font-size:50px;"">Video 1</span>","null","","","","",""
"null","","","video-keyboard-response","246","873010","0.0-246.0","e04s1fqv","","","null","","<span style=""color:Black; font-size:50px;"">Sandy","Sandy","STIM_SET_20/1593058.bmp_pp91_L3_V1_veridical_freeview_isoFalse_fps144.mp4",""
"null","","","html-keyboard-response","247","874514","0.0-247.0","e04s1fqv","","<span style=""color:Black; font-size:50px;"">Video 2</span>","null","","","","",""
"null","","","video-keyboard-response","248","877626","0.0-248.0","e04s1fqv","","","null","","<span style=""color:Black; font-size:50px;"">Casey","Casey","STIM_SET_20/1593058.bmp_pp69_L3_V1_veridical_freeview_isoFalse_fps144.mp4",""
"","","","call-function","249","877626","0.0-249.0","e04s1fqv","","","","","","","",""
"956.7149999999674","","","categorize-html","250","880585","0.0-250.0","e04s1fqv","","Which video showed <span style=""font-size:30px"">Sandy's</span> attention?","50","","","","","false"
"null","","","html-keyboard-response","251","881088","0.0-251.0","e04s1fqv",""," ","null","","","","",""
"4833.375","","","instructions","252","885922","0.0-252.0","e04s1fqv","[{""page_index"":0,""viewing_time"":3219.6500000000233},{""page_index"":1,""viewing_time"":968.1999999999534},{""page_index"":2,""viewing_time"":645.4050000000279}]","","","","","","",""
"1183.6649999999208","","","instructions","253","887106","0.0-253.0","e04s1fqv","[{""page_index"":0,""viewing_time"":490.9449999999488},{""page_index"":1,""viewing_time"":632.2249999999767},{""page_index"":2,""viewing_time"":60.38000000000466}]","","","","","","",""
"","","","call-function","254","887106","0.0-254.0","e04s1fqv","","","","","","","",""
"null","","","html-keyboard-response","255","888611","0.0-255.0","e04s1fqv","","<span style=""color:Black; font-size:50px;"">Video 1</span>","null","","","","",""
"null","","","video-keyboard-response","256","891690","0.0-256.0","e04s1fqv","","","null","","<span style=""color:Black; font-size:50px;"">Sandy","Sandy","STIM_SET_20/713274.bmp_pp91_L3_V1_veridical_freeview_isoFalse_fps144.mp4",""
"null","","","html-keyboard-response","257","893193","0.0-257.0","e04s1fqv","","<span style=""color:Black; font-size:50px;"">Video 2</span>","null","","","","",""
"null","","","video-keyboard-response","258","896279","0.0-258.0","e04s1fqv","","","null","","<span style=""color:Black; font-size:50px;"">Casey","Casey","STIM_SET_20/713274.bmp_pp69_L3_V1_veridical_freeview_isoFalse_fps144.mp4",""
"","","","call-function","259","896280","0.0-259.0","e04s1fqv","","","","","","","",""
"878.9949999999953","","","categorize-html","260","899162","0.0-260.0","e04s1fqv","","Which video showed <span style=""font-size:30px"">Sandy's</span> attention?","50","","","","","false"
"null","","","html-keyboard-response","261","899668","0.0-261.0","e04s1fqv",""," ","null","","","","",""
"","","","call-function","262","899668","0.0-262.0","e04s1fqv","","","","","","","",""
"null","","","html-keyboard-response","263","901174","0.0-263.0","e04s1fqv","","<span style=""color:Black; font-size:50px;"">Video 1</span>","null","","","","",""
"null","","","video-keyboard-response","264","904262","0.0-264.0","e04s1fqv","","","null","","<span style=""color:Black; font-size:50px;"">Sandy","Sandy","STIM_SET_20/1592921.bmp_pp91_L3_V1_veridical_freeview_isoFalse_fps144.mp4",""
"null","","","html-keyboard-response","265","905766","0.0-265.0","e04s1fqv","","<span style=""color:Black; font-size:50px;"">Video 2</span>","null","","","","",""
"null","","","video-keyboard-response","266","908858","0.0-266.0","e04s1fqv","","","null","","<span style=""color:Black; font-size:50px;"">Casey","Casey","STIM_SET_20/1592921.bmp_pp69_L3_V1_veridical_freeview_isoFalse_fps144.mp4",""
"","","","call-function","267","908859","0.0-267.0","e04s1fqv","","","","","","","",""
"604.3249999999534","","","categorize-html","268","911465","0.0-268.0","e04s1fqv","","Which video showed <span style=""font-size:30px"">Sandy's</span> attention?","50","","","","","false"
"null","","","html-keyboard-response","269","911967","0.0-269.0","e04s1fqv",""," ","null","","","","",""
"","","","call-function","270","911967","0.0-270.0","e04s1fqv","","","","","","","",""
"null","","","html-keyboard-response","271","913470","0.0-271.0","e04s1fqv","","<span style=""color:Black; font-size:50px;"">Video 1</span>","null","","","","",""
"null","","","video-keyboard-response","272","916571","0.0-272.0","e04s1fqv","","","null","","<span style=""color:Black; font-size:50px;"">Sandy","Sandy","STIM_SET_20/713790.bmp_pp91_L3_V1_veridical_freeview_isoFalse_fps144.mp4",""
"null","","","html-keyboard-response","273","918077","0.0-273.0","e04s1fqv","","<span style=""color:Black; font-size:50px;"">Video 2</span>","null","","","","",""
"null","","","video-keyboard-response","274","921187","0.0-274.0","e04s1fqv","","","null","","<span style=""color:Black; font-size:50px;"">Casey","Casey","STIM_SET_20/713790.bmp_pp69_L3_V1_veridical_freeview_isoFalse_fps144.mp4",""
"","","","call-function","275","921188","0.0-275.0","e04s1fqv","","","","","","","",""
"1699.6749999999302","","","categorize-html","276","924895","0.0-276.0","e04s1fqv","","Which video showed <span style=""font-size:30px"">Sandy's</span> attention?","49","","","","","true"
"null","","","html-keyboard-response","277","925401","0.0-277.0","e04s1fqv",""," ","null","","","","",""
"","","","call-function","278","925402","0.0-278.0","e04s1fqv","","","","","","","",""
"null","","","html-keyboard-response","279","926909","0.0-279.0","e04s1fqv","","<span style=""color:Black; font-size:50px;"">Video 1</span>","null","","","","",""
"null","","","video-keyboard-response","280","930022","0.0-280.0","e04s1fqv","","","null","","<span style=""color:Black; font-size:50px;"">Casey","Casey","STIM_SET_20/498261.bmp_pp69_L3_V1_veridical_freeview_isoFalse_fps144.mp4",""
"null","","","html-keyboard-response","281","931527","0.0-281.0","e04s1fqv","","<span style=""color:Black; font-size:50px;"">Video 2</span>","null","","","","",""
"null","","","video-keyboard-response","282","934631","0.0-282.0","e04s1fqv","","","null","","<span style=""color:Black; font-size:50px;"">Sandy","Sandy","STIM_SET_20/498261.bmp_pp91_L3_V1_veridical_freeview_isoFalse_fps144.mp4",""
"","","","call-function","283","934632","0.0-283.0","e04s1fqv","","","","","","","",""
"639.2449999999953","","","categorize-html","284","937275","0.0-284.0","e04s1fqv","","Which video showed <span style=""font-size:30px"">Sandy's</span> attention?","50","","","","","true"
"null","","","html-keyboard-response","285","937778","0.0-285.0","e04s1fqv",""," ","null","","","","",""
"","","","call-function","286","937778","0.0-286.0","e04s1fqv","","","","","","","",""
"null","","","html-keyboard-response","287","939281","0.0-287.0","e04s1fqv","","<span style=""color:Black; font-size:50px;"">Video 1</span>","null","","","","",""
"null","","","video-keyboard-response","288","942384","0.0-288.0","e04s1fqv","","","null","","<span style=""color:Black; font-size:50px;"">Sandy","Sandy","STIM_SET_20/713519.bmp_pp91_L3_V1_veridical_freeview_isoFalse_fps144.mp4",""
"null","","","html-keyboard-response","289","943887","0.0-289.0","e04s1fqv","","<span style=""color:Black; font-size:50px;"">Video 2</span>","null","","","","",""
"null","","","video-keyboard-response","290","946999","0.0-290.0","e04s1fqv","","","null","","<span style=""color:Black; font-size:50px;"">Casey","Casey","STIM_SET_20/713519.bmp_pp69_L3_V1_veridical_freeview_isoFalse_fps144.mp4",""
"","","","call-function","291","946999","0.0-291.0","e04s1fqv","","","","","","","",""
"719.9149999999208","","","categorize-html","292","949722","0.0-292.0","e04s1fqv","","Which video showed <span style=""font-size:30px"">Sandy's</span> attention?","50","","","","","false"
"null","","","html-keyboard-response","293","950225","0.0-293.0","e04s1fqv",""," ","null","","","","",""
"","","","call-function","294","950225","0.0-294.0","e04s1fqv","","","","","","","",""
"null","","","html-keyboard-response","295","951728","0.0-295.0","e04s1fqv","","<span style=""color:Black; font-size:50px;"">Video 1</span>","null","","","","",""
"null","","","video-keyboard-response","296","954810","0.0-296.0","e04s1fqv","","","null","","<span style=""color:Black; font-size:50px;"">Sandy","Sandy","STIM_SET_20/1592303.bmp_pp91_L3_V1_veridical_freeview_isoFalse_fps144.mp4",""
"null","","","html-keyboard-response","297","956312","0.0-297.0","e04s1fqv","","<span style=""color:Black; font-size:50px;"">Video 2</span>","null","","","","",""
"null","","","video-keyboard-response","298","959394","0.0-298.0","e04s1fqv","","","null","","<span style=""color:Black; font-size:50px;"">Casey","Casey","STIM_SET_20/1592303.bmp_pp69_L3_V1_veridical_freeview_isoFalse_fps144.mp4",""
"","","","call-function","299","959395","0.0-299.0","e04s1fqv","","","","","","","",""
"532.2950000000419","","","categorize-html","300","961929","0.0-300.0","e04s1fqv","","Which video showed <span style=""font-size:30px"">Sandy's</span> attention?","50","","","","","false"
"null","","","html-keyboard-response","301","962433","0.0-301.0","e04s1fqv",""," ","null","","","","",""
"","","","call-function","302","962434","0.0-302.0","e04s1fqv","","","","","","","",""
"null","","","html-keyboard-response","303","963936","0.0-303.0","e04s1fqv","","<span style=""color:Black; font-size:50px;"">Video 1</span>","null","","","","",""
"null","","","video-keyboard-response","304","967054","0.0-304.0","e04s1fqv","","","null","","<span style=""color:Black; font-size:50px;"">Casey","Casey","STIM_SET_20/498058.bmp_pp69_L3_V1_veridical_freeview_isoFalse_fps144.mp4",""
"null","","","html-keyboard-response","305","968555","0.0-305.0","e04s1fqv","","<span style=""color:Black; font-size:50px;"">Video 2</span>","null","","","","",""
"null","","","video-keyboard-response","306","972997","0.0-306.0","e04s1fqv","","","null","","<span style=""color:Black; font-size:50px;"">Sandy","Sandy","STIM_SET_20/498058.bmp_pp91_L3_V1_veridical_freeview_isoFalse_fps144.mp4",""
"","","","call-function","307","972997","0.0-307.0","e04s1fqv","","","","","","","",""
"785.6850000000559","","","categorize-html","308","975787","0.0-308.0","e04s1fqv","","Which video showed <span style=""font-size:30px"">Sandy's</span> attention?","50","","","","","true"
"null","","","html-keyboard-response","309","976290","0.0-309.0","e04s1fqv",""," ","null","","","","",""
"","","","call-function","310","976290","0.0-310.0","e04s1fqv","","","","","","","",""
"null","","","html-keyboard-response","311","977792","0.0-311.0","e04s1fqv","","<span style=""color:Black; font-size:50px;"">Video 1</span>","null","","","","",""
"null","","","video-keyboard-response","312","982275","0.0-312.0","e04s1fqv","","","null","","<span style=""color:Black; font-size:50px;"">Casey","Casey","STIM_SET_20/1593112.bmp_pp69_L3_V1_veridical_freeview_isoFalse_fps144.mp4",""
"null","","","html-keyboard-response","313","983777","0.0-313.0","e04s1fqv","","<span style=""color:Black; font-size:50px;"">Video 2</span>","null","","","","",""
"null","","","video-keyboard-response","314","986875","0.0-314.0","e04s1fqv","","","null","","<span style=""color:Black; font-size:50px;"">Sandy","Sandy","STIM_SET_20/1593112.bmp_pp91_L3_V1_veridical_freeview_isoFalse_fps144.mp4",""
"","","","call-function","315","986876","0.0-315.0","e04s1fqv","","","","","","","",""
"4523.300000000047","","","categorize-html","316","993406","0.0-316.0","e04s1fqv","","Which video showed <span style=""font-size:30px"">Sandy's</span> attention?","49","","","","","false"
"null","","","html-keyboard-response","317","993912","0.0-317.0","e04s1fqv",""," ","null","","","","",""
"","","","call-function","318","993912","0.0-318.0","e04s1fqv","","","","","","","",""
"null","","","html-keyboard-response","319","995413","0.0-319.0","e04s1fqv","","<span style=""color:Black; font-size:50px;"">Video 1</span>","null","","","","",""
"null","","","video-keyboard-response","320","998530","0.0-320.0","e04s1fqv","","","null","","<span style=""color:Black; font-size:50px;"">Sandy","Sandy","STIM_SET_20/1159541.bmp_pp91_L3_V1_veridical_freeview_isoFalse_fps144.mp4",""
"null","","","html-keyboard-response","321","1000037","0.0-321.0","e04s1fqv","","<span style=""color:Black; font-size:50px;"">Video 2</span>","null","","","","",""
"null","","","video-keyboard-response","322","1003157","0.0-322.0","e04s1fqv","","","null","","<span style=""color:Black; font-size:50px;"">Casey","Casey","STIM_SET_20/1159541.bmp_pp69_L3_V1_veridical_freeview_isoFalse_fps144.mp4",""
"","","","call-function","323","1003157","0.0-323.0","e04s1fqv","","","","","","","",""
"857.6950000000652","","","categorize-html","324","1006022","0.0-324.0","e04s1fqv","","Which video showed <span style=""font-size:30px"">Sandy's</span> attention?","49","","","","","true"
"null","","","html-keyboard-response","325","1006529","0.0-325.0","e04s1fqv",""," ","null","","","","",""
"","","","call-function","326","1006530","0.0-326.0","e04s1fqv","","","","","","","",""
"null","","","html-keyboard-response","327","1008031","0.0-327.0","e04s1fqv","","<span style=""color:Black; font-size:50px;"">Video 1</span>","null","","","","",""
"null","","","video-keyboard-response","328","1011154","0.0-328.0","e04s1fqv","","","null","","<span style=""color:Black; font-size:50px;"">Sandy","Sandy","STIM_SET_20/285766.bmp_pp91_L3_V1_veridical_freeview_isoFalse_fps144.mp4",""
"null","","","html-keyboard-response","329","1012656","0.0-329.0","e04s1fqv","","<span style=""color:Black; font-size:50px;"">Video 2</span>","null","","","","",""
"null","","","video-keyboard-response","330","1015769","0.0-330.0","e04s1fqv","","","null","","<span style=""color:Black; font-size:50px;"">Casey","Casey","STIM_SET_20/285766.bmp_pp69_L3_V1_veridical_freeview_isoFalse_fps144.mp4",""
"","","","call-function","331","1015769","0.0-331.0","e04s1fqv","","","","","","","",""
"805.8850000000093","","","categorize-html","332","1018578","0.0-332.0","e04s1fqv","","Which video showed <span style=""font-size:30px"">Sandy's</span> attention?","49","","","","","true"
"null","","","html-keyboard-response","333","1019082","0.0-333.0","e04s1fqv",""," ","null","","","","",""
"5749.689999999944","","","instructions","334","1024832","0.0-334.0","e04s1fqv","[{""page_index"":0,""viewing_time"":4271.415000000037},{""page_index"":1,""viewing_time"":757.8850000000093},{""page_index"":2,""viewing_time"":720.25}]","","","","","","",""
"3512.4250000000466","","","instructions","335","1028345","0.0-335.0","e04s1fqv","[{""page_index"":0,""viewing_time"":850.2399999999907},{""page_index"":1,""viewing_time"":1894.365000000107},{""page_index"":2,""viewing_time"":767.6999999999534}]","","","","","","",""
"","","","call-function","336","1028345","0.0-336.0","e04s1fqv","","","","","","","",""
"null","","","html-keyboard-response","337","1029847","0.0-337.0","e04s1fqv","","<span style=""color:Black; font-size:50px;"">Video 1</span>","null","","","","",""
"null","","","video-keyboard-response","338","1032936","0.0-338.0","e04s1fqv","","","null","","<span style=""color:Black; font-size:50px;"">Sandy","Sandy","STIM_SET_20/1592397.bmp_pp91_L3_V1_veridical_freeview_isoFalse_fps144.mp4",""
"null","","","html-keyboard-response","339","1034439","0.0-339.0","e04s1fqv","","<span style=""color:Black; font-size:50px;"">Video 2</span>","null","","","","",""
"null","","","video-keyboard-response","340","1037508","0.0-340.0","e04s1fqv","","","null","","<span style=""color:Black; font-size:50px;"">Casey","Casey","STIM_SET_20/1592397.bmp_pp69_L3_V1_veridical_freeview_isoFalse_fps144.mp4",""
"","","","call-function","341","1037509","0.0-341.0","e04s1fqv","","","","","","","",""
"866.2900000000373","","","categorize-html","342","1040383","0.0-342.0","e04s1fqv","","Which video showed <span style=""font-size:30px"">Sandy's</span> attention?","49","","","","","true"
"null","","","html-keyboard-response","343","1040888","0.0-343.0","e04s1fqv",""," ","null","","","","",""
"","","","call-function","344","1040888","0.0-344.0","e04s1fqv","","","","","","","",""
"null","","","html-keyboard-response","345","1042391","0.0-345.0","e04s1fqv","","<span style=""color:Black; font-size:50px;"">Video 1</span>","null","","","","",""
"null","","","video-keyboard-response","346","1045466","0.0-346.0","e04s1fqv","","","null","","<span style=""color:Black; font-size:50px;"">Sandy","Sandy","STIM_SET_20/1159592.bmp_pp91_L3_V1_veridical_freeview_isoFalse_fps144.mp4",""
"null","","","html-keyboard-response","347","1046972","0.0-347.0","e04s1fqv","","<span style=""color:Black; font-size:50px;"">Video 2</span>","null","","","","",""
"null","","","video-keyboard-response","348","1050037","0.0-348.0","e04s1fqv","","","null","","<span style=""color:Black; font-size:50px;"">Casey","Casey","STIM_SET_20/1159592.bmp_pp69_L3_V1_veridical_freeview_isoFalse_fps144.mp4",""
"","","","call-function","349","1050038","0.0-349.0","e04s1fqv","","","","","","","",""
"929.5149999998976","","","categorize-html","350","1052971","0.0-350.0","e04s1fqv","","Which video showed <span style=""font-size:30px"">Sandy's</span> attention?","50","","","","","false"
"null","","","html-keyboard-response","351","1053473","0.0-351.0","e04s1fqv",""," ","null","","","","",""
"","","","call-function","352","1053474","0.0-352.0","e04s1fqv","","","","","","","",""
"null","","","html-keyboard-response","353","1054978","0.0-353.0","e04s1fqv","","<span style=""color:Black; font-size:50px;"">Video 1</span>","null","","","","",""
"null","","","video-keyboard-response","354","1058087","0.0-354.0","e04s1fqv","","","null","","<span style=""color:Black; font-size:50px;"">Casey","Casey","STIM_SET_20/1160019.bmp_pp69_L3_V1_veridical_freeview_isoFalse_fps144.mp4",""
"null","","","html-keyboard-response","355","1059591","0.0-355.0","e04s1fqv","","<span style=""color:Black; font-size:50px;"">Video 2</span>","null","","","","",""
"null","","","video-keyboard-response","356","1062694","0.0-356.0","e04s1fqv","","","null","","<span style=""color:Black; font-size:50px;"">Sandy","Sandy","STIM_SET_20/1160019.bmp_pp91_L3_V1_veridical_freeview_isoFalse_fps144.mp4",""
"","","","call-function","357","1062695","0.0-357.0","e04s1fqv","","","","","","","",""
"688.1149999999907","","","categorize-html","358","1065385","0.0-358.0","e04s1fqv","","Which video showed <span style=""font-size:30px"">Sandy's</span> attention?","50","","","","","true"
"null","","","html-keyboard-response","359","1065889","0.0-359.0","e04s1fqv",""," ","null","","","","",""
"","","","call-function","360","1065890","0.0-360.0","e04s1fqv","","","","","","","",""
"null","","","html-keyboard-response","361","1067396","0.0-361.0","e04s1fqv","","<span style=""color:Black; font-size:50px;"">Video 1</span>","null","","","","",""
"null","","","video-keyboard-response","362","1070508","0.0-362.0","e04s1fqv","","","null","","<span style=""color:Black; font-size:50px;"">Sandy","Sandy","STIM_SET_20/713620.bmp_pp91_L3_V1_veridical_freeview_isoFalse_fps144.mp4",""
"null","","","html-keyboard-response","363","1072014","0.0-363.0","e04s1fqv","","<span style=""color:Black; font-size:50px;"">Video 2</span>","null","","","","",""
"null","","","video-keyboard-response","364","1075132","0.0-364.0","e04s1fqv","","","null","","<span style=""color:Black; font-size:50px;"">Casey","Casey","STIM_SET_20/713620.bmp_pp69_L3_V1_veridical_freeview_isoFalse_fps144.mp4",""
"","","","call-function","365","1075132","0.0-365.0","e04s1fqv","","","","","","","",""
"4899.145000000019","","","categorize-html","366","1082034","0.0-366.0","e04s1fqv","","Which video showed <span style=""font-size:30px"">Sandy's</span> attention?","50","","","","","false"
"null","","","html-keyboard-response","367","1082536","0.0-367.0","e04s1fqv",""," ","null","","","","",""
"","","","call-function","368","1082537","0.0-368.0","e04s1fqv","","","","","","","",""
"null","","","html-keyboard-response","369","1084038","0.0-369.0","e04s1fqv","","<span style=""color:Black; font-size:50px;"">Video 1</span>","null","","","","",""
"null","","","video-keyboard-response","370","1087152","0.0-370.0","e04s1fqv","","","null","","<span style=""color:Black; font-size:50px;"">Casey","Casey","STIM_SET_20/1592971.bmp_pp69_L3_V1_veridical_freeview_isoFalse_fps144.mp4",""
"null","","","html-keyboard-response","371","1088656","0.0-371.0","e04s1fqv","","<span style=""color:Black; font-size:50px;"">Video 2</span>","null","","","","",""
"null","","","video-keyboard-response","372","1091773","0.0-372.0","e04s1fqv","","","null","","<span style=""color:Black; font-size:50px;"">Sandy","Sandy","STIM_SET_20/1592971.bmp_pp91_L3_V1_veridical_freeview_isoFalse_fps144.mp4",""
"","","","call-function","373","1091773","0.0-373.0","e04s1fqv","","","","","","","",""
"569.8950000000186","","","categorize-html","374","1094346","0.0-374.0","e04s1fqv","","Which video showed <span style=""font-size:30px"">Sandy's</span> attention?","49","","","","","false"
"null","","","html-keyboard-response","375","1094853","0.0-375.0","e04s1fqv",""," ","null","","","","",""
"","","","call-function","376","1094854","0.0-376.0","e04s1fqv","","","","","","","",""
"null","","","html-keyboard-response","377","1096360","0.0-377.0","e04s1fqv","","<span style=""color:Black; font-size:50px;"">Video 1</span>","null","","","","",""
"null","","","video-keyboard-response","378","1099432","0.0-378.0","e04s1fqv","","","null","","<span style=""color:Black; font-size:50px;"">Sandy","Sandy","STIM_SET_20/1159482.bmp_pp91_L3_V1_veridical_freeview_isoFalse_fps144.mp4",""
"null","","","html-keyboard-response","379","1100936","0.0-379.0","e04s1fqv","","<span style=""color:Black; font-size:50px;"">Video 2</span>","null","","","","",""
"null","","","video-keyboard-response","380","1104010","0.0-380.0","e04s1fqv","","","null","","<span style=""color:Black; font-size:50px;"">Casey","Casey","STIM_SET_20/1159482.bmp_pp69_L3_V1_veridical_freeview_isoFalse_fps144.mp4",""
"","","","call-function","381","1104011","0.0-381.0","e04s1fqv","","","","","","","",""
"884.8149999999441","","","categorize-html","382","1106901","0.0-382.0","e04s1fqv","","Which video showed <span style=""font-size:30px"">Sandy's</span> attention?","49","","","","","true"
"null","","","html-keyboard-response","383","1107405","0.0-383.0","e04s1fqv",""," ","null","","","","",""
"","","","call-function","384","1107405","0.0-384.0","e04s1fqv","","","","","","","",""
"null","","","html-keyboard-response","385","1108912","0.0-385.0","e04s1fqv","","<span style=""color:Black; font-size:50px;"">Video 1</span>","null","","","","",""
"null","","","video-keyboard-response","386","1111995","0.0-386.0","e04s1fqv","","","null","","<span style=""color:Black; font-size:50px;"">Casey","Casey","STIM_SET_20/1159515.bmp_pp69_L3_V1_veridical_freeview_isoFalse_fps144.mp4",""
"null","","","html-keyboard-response","387","1113498","0.0-387.0","e04s1fqv","","<span style=""color:Black; font-size:50px;"">Video 2</span>","null","","","","",""
"null","","","video-keyboard-response","388","1116597","0.0-388.0","e04s1fqv","","","null","","<span style=""color:Black; font-size:50px;"">Sandy","Sandy","STIM_SET_20/1159515.bmp_pp91_L3_V1_veridical_freeview_isoFalse_fps144.mp4",""
"","","","call-function","389","1116597","0.0-389.0","e04s1fqv","","","","","","","",""
"1106.1000000000931","","","categorize-html","390","1119706","0.0-390.0","e04s1fqv","","Which video showed <span style=""font-size:30px"">Sandy's</span> attention?","50","","","","","true"
"null","","","html-keyboard-response","391","1120210","0.0-391.0","e04s1fqv",""," ","null","","","","",""
"","","","call-function","392","1120210","0.0-392.0","e04s1fqv","","","","","","","",""
"null","","","html-keyboard-response","393","1121712","0.0-393.0","e04s1fqv","","<span style=""color:Black; font-size:50px;"">Video 1</span>","null","","","","",""
"null","","","video-keyboard-response","394","1124800","0.0-394.0","e04s1fqv","","","null","","<span style=""color:Black; font-size:50px;"">Casey","Casey","STIM_SET_20/1160152.bmp_pp69_L3_V1_veridical_freeview_isoFalse_fps144.mp4",""
"null","","","html-keyboard-response","395","1126303","0.0-395.0","e04s1fqv","","<span style=""color:Black; font-size:50px;"">Video 2</span>","null","","","","",""
"null","","","video-keyboard-response","396","1129404","0.0-396.0","e04s1fqv","","","null","","<span style=""color:Black; font-size:50px;"">Sandy","Sandy","STIM_SET_20/1160152.bmp_pp91_L3_V1_veridical_freeview_isoFalse_fps144.mp4",""
"","","","call-function","397","1129405","0.0-397.0","e04s1fqv","","","","","","","",""
"554.5","","","categorize-html","398","1131966","0.0-398.0","e04s1fqv","","Which video showed <span style=""font-size:30px"">Sandy's</span> attention?","50","","","","","true"
"null","","","html-keyboard-response","399","1132469","0.0-399.0","e04s1fqv",""," ","null","","","","",""
"","","","call-function","400","1132470","0.0-400.0","e04s1fqv","","","","","","","",""
"null","","","html-keyboard-response","401","1133976","0.0-401.0","e04s1fqv","","<span style=""color:Black; font-size:50px;"">Video 1</span>","null","","","","",""
"null","","","video-keyboard-response","402","1137080","0.0-402.0","e04s1fqv","","","null","","<span style=""color:Black; font-size:50px;"">Casey","Casey","STIM_SET_20/1159777.bmp_pp69_L3_V1_veridical_freeview_isoFalse_fps144.mp4",""
"null","","","html-keyboard-response","403","1138581","0.0-403.0","e04s1fqv","","<span style=""color:Black; font-size:50px;"">Video 2</span>","null","","","","",""
"null","","","video-keyboard-response","404","1141692","0.0-404.0","e04s1fqv","","","null","","<span style=""color:Black; font-size:50px;"">Sandy","Sandy","STIM_SET_20/1159777.bmp_pp91_L3_V1_veridical_freeview_isoFalse_fps144.mp4",""
"","","","call-function","405","1141693","0.0-405.0","e04s1fqv","","","","","","","",""
"554.3349999999627","","","categorize-html","406","1144250","0.0-406.0","e04s1fqv","","Which video showed <span style=""font-size:30px"">Sandy's</span> attention?","50","","","","","true"
"null","","","html-keyboard-response","407","1144753","0.0-407.0","e04s1fqv",""," ","null","","","","",""
"","","","call-function","408","1144754","0.0-408.0","e04s1fqv","","","","","","","",""
"null","","","html-keyboard-response","409","1146260","0.0-409.0","e04s1fqv","","<span style=""color:Black; font-size:50px;"">Video 1</span>","null","","","","",""
"null","","","video-keyboard-response","410","1149380","0.0-410.0","e04s1fqv","","","null","","<span style=""color:Black; font-size:50px;"">Casey","Casey","STIM_SET_20/1159829.bmp_pp69_L3_V1_veridical_freeview_isoFalse_fps144.mp4",""
"null","","","html-keyboard-response","411","1150884","0.0-411.0","e04s1fqv","","<span style=""color:Black; font-size:50px;"">Video 2</span>","null","","","","",""
"null","","","video-keyboard-response","412","1153987","0.0-412.0","e04s1fqv","","","null","","<span style=""color:Black; font-size:50px;"">Sandy","Sandy","STIM_SET_20/1159829.bmp_pp91_L3_V1_veridical_freeview_isoFalse_fps144.mp4",""
"","","","call-function","413","1153988","0.0-413.0","e04s1fqv","","","","","","","",""
"611.7199999999721","","","categorize-html","414","1156603","0.0-414.0","e04s1fqv","","Which video showed <span style=""font-size:30px"">Sandy's</span> attention?","49","","","","","false"
"null","","","html-keyboard-response","415","1157105","0.0-415.0","e04s1fqv",""," ","null","","","","",""
"49045.55500000017","","","instructions","416","1206151","0.0-416.0","e04s1fqv","[{""page_index"":0,""viewing_time"":45155.715000000084},{""page_index"":1,""viewing_time"":927.9950000001118},{""page_index"":2,""viewing_time"":2961.7249999998603}]","","","","","","",""
"14655.689999999944","","","instructions","417","1220807","0.0-417.0","e04s1fqv","[{""page_index"":0,""viewing_time"":1483.809999999823},{""page_index"":1,""viewing_time"":3276.844999999972},{""page_index"":2,""viewing_time"":9894.905000000028}]","","","","","","",""
"","","","call-function","418","1220807","0.0-418.0","e04s1fqv","","","","","","","",""
"null","","","html-keyboard-response","419","1222312","0.0-419.0","e04s1fqv","","<span style=""color:Black; font-size:50px;"">Video 1</span>","null","","","","",""
"null","","","video-keyboard-response","420","1225395","0.0-420.0","e04s1fqv","","","null","","<span style=""color:Black; font-size:50px;"">Casey","Casey","STIM_SET_20/285610.bmp_pp69_L3_V1_veridical_freeview_isoFalse_fps144.mp4",""
"null","","","html-keyboard-response","421","1226900","0.0-421.0","e04s1fqv","","<span style=""color:Black; font-size:50px;"">Video 2</span>","null","","","","",""
"null","","","video-keyboard-response","422","1229973","0.0-422.0","e04s1fqv","","","null","","<span style=""color:Black; font-size:50px;"">Sandy","Sandy","STIM_SET_20/285610.bmp_pp91_L3_V1_veridical_freeview_isoFalse_fps144.mp4",""
"","","","call-function","423","1229974","0.0-423.0","e04s1fqv","","","","","","","",""
"1857.6850000000559","","","categorize-html","424","1233834","0.0-424.0","e04s1fqv","","Which video showed <span style=""font-size:30px"">Sandy's</span> attention?","50","","","","","true"
"null","","","html-keyboard-response","425","1234339","0.0-425.0","e04s1fqv",""," ","null","","","","",""
"","","","call-function","426","1234339","0.0-426.0","e04s1fqv","","","","","","","",""
"null","","","html-keyboard-response","427","1235846","0.0-427.0","e04s1fqv","","<span style=""color:Black; font-size:50px;"">Video 1</span>","null","","","","",""
"null","","","video-keyboard-response","428","1238926","0.0-428.0","e04s1fqv","","","null","","<span style=""color:Black; font-size:50px;"">Casey","Casey","STIM_SET_20/61537.bmp_pp69_L3_V1_veridical_freeview_isoFalse_fps144.mp4",""
"null","","","html-keyboard-response","429","1240429","0.0-429.0","e04s1fqv","","<span style=""color:Black; font-size:50px;"">Video 2</span>","null","","","","",""
"null","","","video-keyboard-response","430","1243505","0.0-430.0","e04s1fqv","","","null","","<span style=""color:Black; font-size:50px;"">Sandy","Sandy","STIM_SET_20/61537.bmp_pp91_L3_V1_veridical_freeview_isoFalse_fps144.mp4",""
"","","","call-function","431","1243505","0.0-431.0","e04s1fqv","","","","","","","",""
"982.2299999999814","","","categorize-html","432","1246491","0.0-432.0","e04s1fqv","","Which video showed <span style=""font-size:30px"">Sandy's</span> attention?","50","","","","","true"
"null","","","html-keyboard-response","433","1246998","0.0-433.0","e04s1fqv",""," ","null","","","","",""
"","","","call-function","434","1246998","0.0-434.0","e04s1fqv","","","","","","","",""
"null","","","html-keyboard-response","435","1248500","0.0-435.0","e04s1fqv","","<span style=""color:Black; font-size:50px;"">Video 1</span>","null","","","","",""
"null","","","video-keyboard-response","436","1251609","0.0-436.0","e04s1fqv","","","null","","<span style=""color:Black; font-size:50px;"">Casey","Casey","STIM_SET_20/498304.bmp_pp69_L3_V1_veridical_freeview_isoFalse_fps144.mp4",""
"null","","","html-keyboard-response","437","1253116","0.0-437.0","e04s1fqv","","<span style=""color:Black; font-size:50px;"">Video 2</span>","null","","","","",""
"null","","","video-keyboard-response","438","1256222","0.0-438.0","e04s1fqv","","","null","","<span style=""color:Black; font-size:50px;"">Sandy","Sandy","STIM_SET_20/498304.bmp_pp91_L3_V1_veridical_freeview_isoFalse_fps144.mp4",""
"","","","call-function","439","1256222","0.0-439.0","e04s1fqv","","","","","","","",""
"576.875","","","categorize-html","440","1258803","0.0-440.0","e04s1fqv","","Which video showed <span style=""font-size:30px"">Sandy's</span> attention?","50","","","","","true"
"null","","","html-keyboard-response","441","1259310","0.0-441.0","e04s1fqv",""," ","null","","","","",""
"","","","call-function","442","1259311","0.0-442.0","e04s1fqv","","","","","","","",""
"null","","","html-keyboard-response","443","1260817","0.0-443.0","e04s1fqv","","<span style=""color:Black; font-size:50px;"">Video 1</span>","null","","","","",""
"null","","","video-keyboard-response","444","1263937","0.0-444.0","e04s1fqv","","","null","","<span style=""color:Black; font-size:50px;"">Sandy","Sandy","STIM_SET_20/1159470.bmp_pp91_L3_V1_veridical_freeview_isoFalse_fps144.mp4",""
"null","","","html-keyboard-response","445","1265442","0.0-445.0","e04s1fqv","","<span style=""color:Black; font-size:50px;"">Video 2</span>","null","","","","",""
"null","","","video-keyboard-response","446","1268546","0.0-446.0","e04s1fqv","","","null","","<span style=""color:Black; font-size:50px;"">Casey","Casey","STIM_SET_20/1159470.bmp_pp69_L3_V1_veridical_freeview_isoFalse_fps144.mp4",""
"","","","call-function","447","1268547","0.0-447.0","e04s1fqv","","","","","","","",""
"1444.5100000000093","","","categorize-html","448","1271997","0.0-448.0","e04s1fqv","","Which video showed <span style=""font-size:30px"">Sandy's</span> attention?","49","","","","","true"
"null","","","html-keyboard-response","449","1272503","0.0-449.0","e04s1fqv",""," ","null","","","","",""
"","","","call-function","450","1272504","0.0-450.0","e04s1fqv","","","","","","","",""
"null","","","html-keyboard-response","451","1274011","0.0-451.0","e04s1fqv","","<span style=""color:Black; font-size:50px;"">Video 1</span>","null","","","","",""
"null","","","video-keyboard-response","452","1277114","0.0-452.0","e04s1fqv","","","null","","<span style=""color:Black; font-size:50px;"">Casey","Casey","STIM_SET_20/498092.bmp_pp69_L3_V1_veridical_freeview_isoFalse_fps144.mp4",""
"null","","","html-keyboard-response","453","1278618","0.0-453.0","e04s1fqv","","<span style=""color:Black; font-size:50px;"">Video 2</span>","null","","","","",""
"null","","","video-keyboard-response","454","1281725","0.0-454.0","e04s1fqv","","","null","","<span style=""color:Black; font-size:50px;"">Sandy","Sandy","STIM_SET_20/498092.bmp_pp91_L3_V1_veridical_freeview_isoFalse_fps144.mp4",""
"","","","call-function","455","1281726","0.0-455.0","e04s1fqv","","","","","","","",""
"497.6300000001211","","","categorize-html","456","1284231","0.0-456.0","e04s1fqv","","Which video showed <span style=""font-size:30px"">Sandy's</span> attention?","50","","","","","true"
"null","","","html-keyboard-response","457","1284734","0.0-457.0","e04s1fqv",""," ","null","","","","",""
"","","","call-function","458","1284734","0.0-458.0","e04s1fqv","","","","","","","",""
"null","","","html-keyboard-response","459","1286237","0.0-459.0","e04s1fqv","","<span style=""color:Black; font-size:50px;"">Video 1</span>","null","","","","",""
"null","","","video-keyboard-response","460","1289315","0.0-460.0","e04s1fqv","","","null","","<span style=""color:Black; font-size:50px;"">Sandy","Sandy","STIM_SET_20/1159784.bmp_pp91_L3_V1_veridical_freeview_isoFalse_fps144.mp4",""
"null","","","html-keyboard-response","461","1290820","0.0-461.0","e04s1fqv","","<span style=""color:Black; font-size:50px;"">Video 2</span>","null","","","","",""
"null","","","video-keyboard-response","462","1293897","0.0-462.0","e04s1fqv","","","null","","<span style=""color:Black; font-size:50px;"">Casey","Casey","STIM_SET_20/1159784.bmp_pp69_L3_V1_veridical_freeview_isoFalse_fps144.mp4",""
"","","","call-function","463","1293898","0.0-463.0","e04s1fqv","","","","","","","",""
"909.559999999823","","","categorize-html","464","1296812","0.0-464.0","e04s1fqv","","Which video showed <span style=""font-size:30px"">Sandy's</span> attention?","50","","","","","false"
"null","","","html-keyboard-response","465","1297315","0.0-465.0","e04s1fqv",""," ","null","","","","",""
"","","","call-function","466","1297316","0.0-466.0","e04s1fqv","","","","","","","",""
"null","","","html-keyboard-response","467","1298819","0.0-467.0","e04s1fqv","","<span style=""color:Black; font-size:50px;"">Video 1</span>","null","","","","",""
"null","","","video-keyboard-response","468","1301938","0.0-468.0","e04s1fqv","","","null","","<span style=""color:Black; font-size:50px;"">Casey","Casey","STIM_SET_20/150496.bmp_pp69_L3_V1_veridical_freeview_isoFalse_fps144.mp4",""
"null","","","html-keyboard-response","469","1303444","0.0-469.0","e04s1fqv","","<span style=""color:Black; font-size:50px;"">Video 2</span>","null","","","","",""
"null","","","video-keyboard-response","470","1306512","0.0-470.0","e04s1fqv","","","null","","<span style=""color:Black; font-size:50px;"">Sandy","Sandy","STIM_SET_20/150496.bmp_pp91_L3_V1_veridical_freeview_isoFalse_fps144.mp4",""
"","","","call-function","471","1306512","0.0-471.0","e04s1fqv","","","","","","","",""
"1007.1850000000559","","","categorize-html","472","1309523","0.0-472.0","e04s1fqv","","Which video showed <span style=""font-size:30px"">Sandy's</span> attention?","50","","","","","true"
"null","","","html-keyboard-response","473","1310029","0.0-473.0","e04s1fqv",""," ","null","","","","",""
"","","","call-function","474","1310029","0.0-474.0","e04s1fqv","","","","","","","",""
"null","","","html-keyboard-response","475","1311533","0.0-475.0","e04s1fqv","","<span style=""color:Black; font-size:50px;"">Video 1</span>","null","","","","",""
"null","","","video-keyboard-response","476","1314607","0.0-476.0","e04s1fqv","","","null","","<span style=""color:Black; font-size:50px;"">Casey","Casey","STIM_SET_20/1159870.bmp_pp69_L3_V1_veridical_freeview_isoFalse_fps144.mp4",""
"null","","","html-keyboard-response","477","1316110","0.0-477.0","e04s1fqv","","<span style=""color:Black; font-size:50px;"">Video 2</span>","null","","","","",""
"null","","","video-keyboard-response","478","1319216","0.0-478.0","e04s1fqv","","","null","","<span style=""color:Black; font-size:50px;"">Sandy","Sandy","STIM_SET_20/1159870.bmp_pp91_L3_V1_veridical_freeview_isoFalse_fps144.mp4",""
"","","","call-function","479","1319216","0.0-479.0","e04s1fqv","","","","","","","",""
"975.4250000000466","","","categorize-html","480","1322195","0.0-480.0","e04s1fqv","","Which video showed <span style=""font-size:30px"">Sandy's</span> attention?","49","","","","","false"
"null","","","html-keyboard-response","481","1322701","0.0-481.0","e04s1fqv",""," ","null","","","","",""
"","","","call-function","482","1322702","0.0-482.0","e04s1fqv","","","","","","","",""
"null","","","html-keyboard-response","483","1324209","0.0-483.0","e04s1fqv","","<span style=""color:Black; font-size:50px;"">Video 1</span>","null","","","","",""
"null","","","video-keyboard-response","484","1327326","0.0-484.0","e04s1fqv","","","null","","<span style=""color:Black; font-size:50px;"">Casey","Casey","STIM_SET_20/713211.bmp_pp69_L3_V1_veridical_freeview_isoFalse_fps144.mp4",""
"null","","","html-keyboard-response","485","1328828","0.0-485.0","e04s1fqv","","<span style=""color:Black; font-size:50px;"">Video 2</span>","null","","","","",""
"null","","","video-keyboard-response","486","1331938","0.0-486.0","e04s1fqv","","","null","","<span style=""color:Black; font-size:50px;"">Sandy","Sandy","STIM_SET_20/713211.bmp_pp91_L3_V1_veridical_freeview_isoFalse_fps144.mp4",""
"","","","call-function","487","1331938","0.0-487.0","e04s1fqv","","","","","","","",""
"837.4250000000466","","","categorize-html","488","1334778","0.0-488.0","e04s1fqv","","Which video showed <span style=""font-size:30px"">Sandy's</span> attention?","50","","","","","true"
"null","","","html-keyboard-response","489","1335284","0.0-489.0","e04s1fqv",""," ","null","","","","",""
"","","","call-function","490","1335285","0.0-490.0","e04s1fqv","","","","","","","",""
"null","","","html-keyboard-response","491","1336786","0.0-491.0","e04s1fqv","","<span style=""color:Black; font-size:50px;"">Video 1</span>","null","","","","",""
"null","","","video-keyboard-response","492","1339887","0.0-492.0","e04s1fqv","","","null","","<span style=""color:Black; font-size:50px;"">Casey","Casey","STIM_SET_20/1592241.bmp_pp69_L3_V1_veridical_freeview_isoFalse_fps144.mp4",""
"null","","","html-keyboard-response","493","1341392","0.0-493.0","e04s1fqv","","<span style=""color:Black; font-size:50px;"">Video 2</span>","null","","","","",""
"null","","","video-keyboard-response","494","1344505","0.0-494.0","e04s1fqv","","","null","","<span style=""color:Black; font-size:50px;"">Sandy","Sandy","STIM_SET_20/1592241.bmp_pp91_L3_V1_veridical_freeview_isoFalse_fps144.mp4",""
"","","","call-function","495","1344506","0.0-495.0","e04s1fqv","","","","","","","",""
"477.6149999999907","","","categorize-html","496","1346986","0.0-496.0","e04s1fqv","","Which video showed <span style=""font-size:30px"">Sandy's</span> attention?","50","","","","","true"
"null","","","html-keyboard-response","497","1347493","0.0-497.0","e04s1fqv",""," ","null","","","","",""
"70342.86499999999","","","instructions","498","1417836","0.0-498.0","e04s1fqv","[{""page_index"":0,""viewing_time"":69091.79999999981},{""page_index"":1,""viewing_time"":928.2800000000279},{""page_index"":2,""viewing_time"":322.61000000010245}]","","","","","","",""
"4137.665000000037","","","instructions","499","1421974","0.0-499.0","e04s1fqv","[{""page_index"":0,""viewing_time"":359.75},{""page_index"":1,""viewing_time"":3202.7950000001583},{""page_index"":2,""viewing_time"":574.9849999998696}]","","","","","","",""
"","","","call-function","500","1421975","0.0-500.0","e04s1fqv","","","","","","","",""
"null","","","html-keyboard-response","501","1423480","0.0-501.0","e04s1fqv","","<span style=""color:Black; font-size:50px;"">Video 1</span>","null","","","","",""
"null","","","video-keyboard-response","502","1428244","0.0-502.0","e04s1fqv","","","null","","<span style=""color:Black; font-size:50px;"">Casey","Casey","STIM_SET_20/150384.bmp_pp69_L3_V1_veridical_freeview_isoFalse_fps144.mp4",""
"null","","","html-keyboard-response","503","1429746","0.0-503.0","e04s1fqv","","<span style=""color:Black; font-size:50px;"">Video 2</span>","null","","","","",""
"null","","","video-keyboard-response","504","1432820","0.0-504.0","e04s1fqv","","","null","","<span style=""color:Black; font-size:50px;"">Sandy","Sandy","STIM_SET_20/150384.bmp_pp91_L3_V1_veridical_freeview_isoFalse_fps144.mp4",""
"","","","call-function","505","1432820","0.0-505.0","e04s1fqv","","","","","","","",""
"427.49500000011176","","","categorize-html","506","1435253","0.0-506.0","e04s1fqv","","Which video showed <span style=""font-size:30px"">Sandy's</span> attention?","50","","","","","true"
"null","","","html-keyboard-response","507","1435759","0.0-507.0","e04s1fqv",""," ","null","","","","",""
"","","","call-function","508","1435759","0.0-508.0","e04s1fqv","","","","","","","",""
"null","","","html-keyboard-response","509","1437264","0.0-509.0","e04s1fqv","","<span style=""color:Black; font-size:50px;"">Video 1</span>","null","","","","",""
"null","","","video-keyboard-response","510","1440344","0.0-510.0","e04s1fqv","","","null","","<span style=""color:Black; font-size:50px;"">Sandy","Sandy","STIM_SET_20/1592201.bmp_pp91_L3_V1_veridical_freeview_isoFalse_fps144.mp4",""
"null","","","html-keyboard-response","511","1441848","0.0-511.0","e04s1fqv","","<span style=""color:Black; font-size:50px;"">Video 2</span>","null","","","","",""
"null","","","video-keyboard-response","512","1444928","0.0-512.0","e04s1fqv","","","null","","<span style=""color:Black; font-size:50px;"">Casey","Casey","STIM_SET_20/1592201.bmp_pp69_L3_V1_veridical_freeview_isoFalse_fps144.mp4",""
"","","","call-function","513","1444928","0.0-513.0","e04s1fqv","","","","","","","",""
"671.4399999999441","","","categorize-html","514","1447606","0.0-514.0","e04s1fqv","","Which video showed <span style=""font-size:30px"">Sandy's</span> attention?","50","","","","","false"
"null","","","html-keyboard-response","515","1448107","0.0-515.0","e04s1fqv",""," ","null","","","","",""
"","","","call-function","516","1448108","0.0-516.0","e04s1fqv","","","","","","","",""
"null","","","html-keyboard-response","517","1449613","0.0-517.0","e04s1fqv","","<span style=""color:Black; font-size:50px;"">Video 1</span>","null","","","","",""
"null","","","video-keyboard-response","518","1452727","0.0-518.0","e04s1fqv","","","null","","<span style=""color:Black; font-size:50px;"">Casey","Casey","STIM_SET_20/713796.bmp_pp69_L3_V1_veridical_freeview_isoFalse_fps144.mp4",""
"null","","","html-keyboard-response","519","1454228","0.0-519.0","e04s1fqv","","<span style=""color:Black; font-size:50px;"">Video 2</span>","null","","","","",""
"null","","","video-keyboard-response","520","1457341","0.0-520.0","e04s1fqv","","","null","","<span style=""color:Black; font-size:50px;"">Sandy","Sandy","STIM_SET_20/713796.bmp_pp91_L3_V1_veridical_freeview_isoFalse_fps144.mp4",""
"","","","call-function","521","1457341","0.0-521.0","e04s1fqv","","","","","","","",""
"450.5100000000093","","","categorize-html","522","1459796","0.0-522.0","e04s1fqv","","Which video showed <span style=""font-size:30px"">Sandy's</span> attention?","50","","","","","true"
"null","","","html-keyboard-response","523","1460300","0.0-523.0","e04s1fqv",""," ","null","","","","",""
"","","","call-function","524","1460300","0.0-524.0","e04s1fqv","","","","","","","",""
"null","","","html-keyboard-response","525","1461802","0.0-525.0","e04s1fqv","","<span style=""color:Black; font-size:50px;"">Video 1</span>","null","","","","",""
"null","","","video-keyboard-response","526","1464931","0.0-526.0","e04s1fqv","","","null","","<span style=""color:Black; font-size:50px;"">Sandy","Sandy","STIM_SET_20/498405.bmp_pp91_L3_V1_veridical_freeview_isoFalse_fps144.mp4",""
"null","","","html-keyboard-response","527","1466438","0.0-527.0","e04s1fqv","","<span style=""color:Black; font-size:50px;"">Video 2</span>","null","","","","",""
"null","","","video-keyboard-response","528","1469543","0.0-528.0","e04s1fqv","","","null","","<span style=""color:Black; font-size:50px;"">Casey","Casey","STIM_SET_20/498405.bmp_pp69_L3_V1_veridical_freeview_isoFalse_fps144.mp4",""
"","","","call-function","529","1469543","0.0-529.0","e04s1fqv","","","","","","","",""
"496.2949999999255","","","categorize-html","530","1472042","0.0-530.0","e04s1fqv","","Which video showed <span style=""font-size:30px"">Sandy's</span> attention?","49","","","","","true"
"null","","","html-keyboard-response","531","1472545","0.0-531.0","e04s1fqv",""," ","null","","","","",""
"","","","call-function","532","1472546","0.0-532.0","e04s1fqv","","","","","","","",""
"null","","","html-keyboard-response","533","1474049","0.0-533.0","e04s1fqv","","<span style=""color:Black; font-size:50px;"">Video 1</span>","null","","","","",""
"null","","","video-keyboard-response","534","1477206","0.0-534.0","e04s1fqv","","","null","","<span style=""color:Black; font-size:50px;"">Casey","Casey","STIM_SET_20/497926.bmp_pp69_L3_V1_veridical_freeview_isoFalse_fps144.mp4",""
"null","","","html-keyboard-response","535","1478709","0.0-535.0","e04s1fqv","","<span style=""color:Black; font-size:50px;"">Video 2</span>","null","","","","",""
"null","","","video-keyboard-response","536","1481813","0.0-536.0","e04s1fqv","","","null","","<span style=""color:Black; font-size:50px;"">Sandy","Sandy","STIM_SET_20/497926.bmp_pp91_L3_V1_veridical_freeview_isoFalse_fps144.mp4",""
"","","","call-function","537","1481814","0.0-537.0","e04s1fqv","","","","","","","",""
"313.7299999999814","","","categorize-html","538","1484131","0.0-538.0","e04s1fqv","","Which video showed <span style=""font-size:30px"">Sandy's</span> attention?","50","","","","","true"
"null","","","html-keyboard-response","539","1484633","0.0-539.0","e04s1fqv",""," ","null","","","","",""
"","","","call-function","540","1484633","0.0-540.0","e04s1fqv","","","","","","","",""
"null","","","html-keyboard-response","541","1486135","0.0-541.0","e04s1fqv","","<span style=""color:Black; font-size:50px;"">Video 1</span>","null","","","","",""
"null","","","video-keyboard-response","542","1489249","0.0-542.0","e04s1fqv","","","null","","<span style=""color:Black; font-size:50px;"">Sandy","Sandy","STIM_SET_20/1593102.bmp_pp91_L3_V1_veridical_freeview_isoFalse_fps144.mp4",""
"null","","","html-keyboard-response","543","1490751","0.0-543.0","e04s1fqv","","<span style=""color:Black; font-size:50px;"">Video 2</span>","null","","","","",""
"null","","","video-keyboard-response","544","1493827","0.0-544.0","e04s1fqv","","","null","","<span style=""color:Black; font-size:50px;"">Casey","Casey","STIM_SET_20/1593102.bmp_pp69_L3_V1_veridical_freeview_isoFalse_fps144.mp4",""
"","","","call-function","545","1493827","0.0-545.0","e04s1fqv","","","","","","","",""
"876.4249999998137","","","categorize-html","546","1496708","0.0-546.0","e04s1fqv","","Which video showed <span style=""font-size:30px"">Sandy's</span> attention?","49","","","","","true"
"null","","","html-keyboard-response","547","1497214","0.0-547.0","e04s1fqv",""," ","null","","","","",""
"","","","call-function","548","1497215","0.0-548.0","e04s1fqv","","","","","","","",""
"null","","","html-keyboard-response","549","1498720","0.0-549.0","e04s1fqv","","<span style=""color:Black; font-size:50px;"">Video 1</span>","null","","","","",""
"null","","","video-keyboard-response","550","1501810","0.0-550.0","e04s1fqv","","","null","","<span style=""color:Black; font-size:50px;"">Sandy","Sandy","STIM_SET_20/713684.bmp_pp91_L3_V1_veridical_freeview_isoFalse_fps144.mp4",""
"null","","","html-keyboard-response","551","1503312","0.0-551.0","e04s1fqv","","<span style=""color:Black; font-size:50px;"">Video 2</span>","null","","","","",""
"null","","","video-keyboard-response","552","1506380","0.0-552.0","e04s1fqv","","","null","","<span style=""color:Black; font-size:50px;"">Casey","Casey","STIM_SET_20/713684.bmp_pp69_L3_V1_veridical_freeview_isoFalse_fps144.mp4",""
"","","","call-function","553","1506380","0.0-553.0","e04s1fqv","","","","","","","",""
"435.31999999983236","","","categorize-html","554","1508822","0.0-554.0","e04s1fqv","","Which video showed <span style=""font-size:30px"">Sandy's</span> attention?","50","","","","","false"
"null","","","html-keyboard-response","555","1509328","0.0-555.0","e04s1fqv",""," ","null","","","","",""
"","","","call-function","556","1509328","0.0-556.0","e04s1fqv","","","","","","","",""
"null","","","html-keyboard-response","557","1510832","0.0-557.0","e04s1fqv","","<span style=""color:Black; font-size:50px;"">Video 1</span>","null","","","","",""
"null","","","video-keyboard-response","558","1513923","0.0-558.0","e04s1fqv","","","null","","<span style=""color:Black; font-size:50px;"">Casey","Casey","STIM_SET_20/1592289.bmp_pp69_L3_V1_veridical_freeview_isoFalse_fps144.mp4",""
"null","","","html-keyboard-response","559","1515426","0.0-559.0","e04s1fqv","","<span style=""color:Black; font-size:50px;"">Video 2</span>","null","","","","",""
"null","","","video-keyboard-response","560","1518532","0.0-560.0","e04s1fqv","","","null","","<span style=""color:Black; font-size:50px;"">Sandy","Sandy","STIM_SET_20/1592289.bmp_pp91_L3_V1_veridical_freeview_isoFalse_fps144.mp4",""
"","","","call-function","561","1518532","0.0-561.0","e04s1fqv","","","","","","","",""
"459.2849999999162","","","categorize-html","562","1520998","0.0-562.0","e04s1fqv","","Which video showed <span style=""font-size:30px"">Sandy's</span> attention?","50","","","","","true"
"null","","","html-keyboard-response","563","1521502","0.0-563.0","e04s1fqv",""," ","null","","","","",""
"","","","call-function","564","1521502","0.0-564.0","e04s1fqv","","","","","","","",""
"null","","","html-keyboard-response","565","1523008","0.0-565.0","e04s1fqv","","<span style=""color:Black; font-size:50px;"">Video 1</span>","null","","","","",""
"null","","","video-keyboard-response","566","1526102","0.0-566.0","e04s1fqv","","","null","","<span style=""color:Black; font-size:50px;"">Sandy","Sandy","STIM_SET_20/713403.bmp_pp91_L3_V1_veridical_freeview_isoFalse_fps144.mp4",""
"null","","","html-keyboard-response","567","1527603","0.0-567.0","e04s1fqv","","<span style=""color:Black; font-size:50px;"">Video 2</span>","null","","","","",""
"null","","","video-keyboard-response","568","1530712","0.0-568.0","e04s1fqv","","","null","","<span style=""color:Black; font-size:50px;"">Casey","Casey","STIM_SET_20/713403.bmp_pp69_L3_V1_veridical_freeview_isoFalse_fps144.mp4",""
"","","","call-function","569","1530712","0.0-569.0","e04s1fqv","","","","","","","",""
"1591.4799999999814","","","categorize-html","570","1534310","0.0-570.0","e04s1fqv","","Which video showed <span style=""font-size:30px"">Sandy's</span> attention?","49","","","","","true"
"null","","","html-keyboard-response","571","1534812","0.0-571.0","e04s1fqv",""," ","null","","","","",""
"","","","call-function","572","1534812","0.0-572.0","e04s1fqv","","","","","","","",""
"null","","","html-keyboard-response","573","1536317","0.0-573.0","e04s1fqv","","<span style=""color:Black; font-size:50px;"">Video 1</span>","null","","","","",""
"null","","","video-keyboard-response","574","1539412","0.0-574.0","e04s1fqv","","","null","","<span style=""color:Black; font-size:50px;"">Casey","Casey","STIM_SET_20/1592693.bmp_pp69_L3_V1_veridical_freeview_isoFalse_fps144.mp4",""
"null","","","html-keyboard-response","575","1540914","0.0-575.0","e04s1fqv","","<span style=""color:Black; font-size:50px;"">Video 2</span>","null","","","","",""
"null","","","video-keyboard-response","576","1544027","0.0-576.0","e04s1fqv","","","null","","<span style=""color:Black; font-size:50px;"">Sandy","Sandy","STIM_SET_20/1592693.bmp_pp91_L3_V1_veridical_freeview_isoFalse_fps144.mp4",""
"","","","call-function","577","1544027","0.0-577.0","e04s1fqv","","","","","","","",""
"868.6750000000466","","","categorize-html","578","1546900","0.0-578.0","e04s1fqv","","Which video showed <span style=""font-size:30px"">Sandy's</span> attention?","50","","","","","true"
"null","","","html-keyboard-response","579","1547404","0.0-579.0","e04s1fqv",""," ","null","","","","",""
"4109.5449999999255","","","instructions","580","1551514","0.0-580.0","e04s1fqv","[{""page_index"":0,""viewing_time"":4109.425000000047}]","","","","","","",""
"2722.7100000001956","","","instructions","581","1554237","0.0-581.0","e04s1fqv","[{""page_index"":0,""viewing_time"":2722.600000000093}]","","","","","","",""
"113098.2749999999","{""Q0"":""I found that the task became progressively easier as time went on. I began to try and identify patters in categories of visual stimuli which Sandy preferred to attend to as a means of improving my accuracy over the duration of the task.""}","","survey-text","582","1667341","0.0-582.0","e04s1fqv","","","","","","","",""
"151375.84000000008","{""Q0"":""I found the experiment to be quite difficult at first, but eventually began to hone in on a strategy which made the experiment much easier. I began to notice that Sandy seemed to prefer attending to faces (non-animal), words, objects, and other surroundings in that order. When deciding between the two videos, the eye tracking which more closely mirrored this patter is the one which I believed to be Sandy.""}","","survey-text","583","1818721","0.0-583.0","e04s1fqv","","","","","","","",""
"59609.14000000013","{""Q0"":""I found the instructions at the beginning of the experiment to be slightly confusing. I felt as though I had a bit of a learning curve over the first few comparisons, but was able to overcome that quite quickly as the experiment progressed.""}","","survey-text","584","1878334","0.0-584.0","e04s1fqv","","","","","","","",""
"2114.0149999998976","","","instructions","585","1880450","0.0-585.0","e04s1fqv","[{""page_index"":0,""viewing_time"":2113.8649999999907}]","","","","","","",""
"154830.64500000002","{""Experimenter_end"":[""Printed ID# e04s1fqv on consent form"",""Given subject SONA credit or payment"",""Given the subject debrief form""]}","[0]","survey-multi-select","586","2035284","0.0-586.0","e04s1fqv","","","","","","","",""
