"rt","responses","question_order","trial_type","trial_index","time_elapsed","internal_node_id","ID","view_history","stimulus","key_press","value","agent","condition","image","correct"
"15047.645","{""Experimenter"":[""Confirmed subject's identity (ID card)"",""Confirmed normal or corrected-to-normal vision"",""Obtained consent (signature and date)"",""Checked the test room lighting"",""Checked computer screen lighting"",""Checked distance from screen to chin rest (50cm)"",""Cleaned and adjusted chin rest"",""Counterbalanced the order of the tasks"",""Opened the experiment in Firefox"",""Made the experiment full screen"",""Encouraged subject to silence phone, put away distractors, etc.""]}","[0]","survey-multi-select","0","15056","0.0-0.0","nuybp2zd","","","","","","","",""
"1061603.865","","","instructions","1","1076663","0.0-1.0","nuybp2zd","[{""page_index"":0,""viewing_time"":1061603.255}]","","","","","","",""
"10864.955000000075","","","instructions","2","1087530","0.0-2.0","nuybp2zd","[{""page_index"":0,""viewing_time"":1477.3300000000745},{""page_index"":1,""viewing_time"":5517.5449999999255},{""page_index"":2,""viewing_time"":3869.9599999999627}]","","","","","","",""
"2335.179999999935","","","instructions","3","1089865","0.0-3.0","nuybp2zd","[{""page_index"":0,""viewing_time"":2335.0749999999534}]","","","","","","",""
"null","","","video-keyboard-response","4","1092940","0.0-4.0","nuybp2zd","","","null","","","","",""
"26088.419999999925","","","instructions","5","1119028","0.0-5.0","nuybp2zd","[{""page_index"":0,""viewing_time"":2148.189999999944},{""page_index"":1,""viewing_time"":2639.964999999851},{""page_index"":2,""viewing_time"":898.0900000000838},{""page_index"":3,""viewing_time"":3913.380000000121},{""page_index"":4,""viewing_time"":4950.939999999944},{""page_index"":5,""viewing_time"":5969.784999999916},{""page_index"":6,""viewing_time"":4671.880000000121},{""page_index"":7,""viewing_time"":896.0649999999441}]","","","","","","",""
"5748.4199999999255","","","instructions","6","1124777","0.0-6.0","nuybp2zd","[{""page_index"":0,""viewing_time"":5748.284999999916}]","","","","","","",""
"5963.85999999987","","","instructions","7","1130741","0.0-7.0","nuybp2zd","[{""page_index"":0,""viewing_time"":5963.635000000009}]","","","","","","",""
"","","","call-function","8","1130742","0.0-8.0","nuybp2zd","","","","","","","",""
"null","","","html-keyboard-response","9","1132247","0.0-9.0","nuybp2zd","","<span style=""color:Black; font-size:50px;"">Video 1</span>","null","","","","",""
"null","","","video-keyboard-response","10","1135308","0.0-10.0","nuybp2zd","","","null","","<span style=""color:Black; font-size:50px;"">Casey","Casey","STIM_SET_2/1592351.bmp_pp89_L1_V1_veridical_freeview_isoFalse_fps144.mp4",""
"null","","","html-keyboard-response","11","1136815","0.0-11.0","nuybp2zd","","<span style=""color:Black; font-size:50px;"">Video 2</span>","null","","","","",""
"null","","","video-keyboard-response","12","1139875","0.0-12.0","nuybp2zd","","","null","","<span style=""color:Black; font-size:50px;"">Sandy","Sandy","STIM_SET_2/1592351.bmp_pp93_L1_V1_veridical_freeview_isoFalse_fps144.mp4",""
"","","","call-function","13","1139875","0.0-13.0","nuybp2zd","","","","","","","",""
"1456.5149999998976","","","categorize-html","14","1143334","0.0-14.0","nuybp2zd","","Which video showed <span style=""font-size:30px"">Sandy's</span> attention?","49","","","","","false"
"null","","","html-keyboard-response","15","1143837","0.0-15.0","nuybp2zd",""," ","null","","","","",""
"","","","call-function","16","1143837","0.0-16.0","nuybp2zd","","","","","","","",""
"null","","","html-keyboard-response","17","1145343","0.0-17.0","nuybp2zd","","<span style=""color:Black; font-size:50px;"">Video 1</span>","null","","","","",""
"null","","","video-keyboard-response","18","1148446","0.0-18.0","nuybp2zd","","","null","","<span style=""color:Black; font-size:50px;"">Casey","Casey","STIM_SET_2/1593047.bmp_pp89_L1_V1_veridical_freeview_isoFalse_fps144.mp4",""
"null","","","html-keyboard-response","19","1149950","0.0-19.0","nuybp2zd","","<span style=""color:Black; font-size:50px;"">Video 2</span>","null","","","","",""
"null","","","video-keyboard-response","20","1153042","0.0-20.0","nuybp2zd","","","null","","<span style=""color:Black; font-size:50px;"">Sandy","Sandy","STIM_SET_2/1593047.bmp_pp93_L1_V1_veridical_freeview_isoFalse_fps144.mp4",""
"","","","call-function","21","1153044","0.0-21.0","nuybp2zd","","","","","","","",""
"1350.4749999998603","","","categorize-html","22","1156399","0.0-22.0","nuybp2zd","","Which video showed <span style=""font-size:30px"">Sandy's</span> attention?","50","","","","","true"
"null","","","html-keyboard-response","23","1156904","0.0-23.0","nuybp2zd",""," ","null","","","","",""
"","","","call-function","24","1156904","0.0-24.0","nuybp2zd","","","","","","","",""
"null","","","html-keyboard-response","25","1158405","0.0-25.0","nuybp2zd","","<span style=""color:Black; font-size:50px;"">Video 1</span>","null","","","","",""
"null","","","video-keyboard-response","26","1161474","0.0-26.0","nuybp2zd","","","null","","<span style=""color:Black; font-size:50px;"">Casey","Casey","STIM_SET_2/1592168.bmp_pp89_L1_V1_veridical_freeview_isoFalse_fps144.mp4",""
"null","","","html-keyboard-response","27","1162978","0.0-27.0","nuybp2zd","","<span style=""color:Black; font-size:50px;"">Video 2</span>","null","","","","",""
"null","","","video-keyboard-response","28","1166064","0.0-28.0","nuybp2zd","","","null","","<span style=""color:Black; font-size:50px;"">Sandy","Sandy","STIM_SET_2/1592168.bmp_pp93_L1_V1_veridical_freeview_isoFalse_fps144.mp4",""
"","","","call-function","29","1166065","0.0-29.0","nuybp2zd","","","","","","","",""
"962.0999999998603","","","categorize-html","30","1169029","0.0-30.0","nuybp2zd","","Which video showed <span style=""font-size:30px"">Sandy's</span> attention?","49","","","","","false"
"null","","","html-keyboard-response","31","1169532","0.0-31.0","nuybp2zd",""," ","null","","","","",""
"","","","call-function","32","1169533","0.0-32.0","nuybp2zd","","","","","","","",""
"null","","","html-keyboard-response","33","1171037","0.0-33.0","nuybp2zd","","<span style=""color:Black; font-size:50px;"">Video 1</span>","null","","","","",""
"null","","","video-keyboard-response","34","1174125","0.0-34.0","nuybp2zd","","","null","","<span style=""color:Black; font-size:50px;"">Casey","Casey","STIM_SET_2/713760.bmp_pp89_L1_V1_veridical_freeview_isoFalse_fps144.mp4",""
"null","","","html-keyboard-response","35","1175627","0.0-35.0","nuybp2zd","","<span style=""color:Black; font-size:50px;"">Video 2</span>","null","","","","",""
"null","","","video-keyboard-response","36","1178718","0.0-36.0","nuybp2zd","","","null","","<span style=""color:Black; font-size:50px;"">Sandy","Sandy","STIM_SET_2/713760.bmp_pp93_L1_V1_veridical_freeview_isoFalse_fps144.mp4",""
"","","","call-function","37","1178718","0.0-37.0","nuybp2zd","","","","","","","",""
"1076.469999999972","","","categorize-html","38","1181800","0.0-38.0","nuybp2zd","","Which video showed <span style=""font-size:30px"">Sandy's</span> attention?","49","","","","","false"
"null","","","html-keyboard-response","39","1182302","0.0-39.0","nuybp2zd",""," ","null","","","","",""
"","","","call-function","40","1182303","0.0-40.0","nuybp2zd","","","","","","","",""
"null","","","html-keyboard-response","41","1183807","0.0-41.0","nuybp2zd","","<span style=""color:Black; font-size:50px;"">Video 1</span>","null","","","","",""
"null","","","video-keyboard-response","42","1186910","0.0-42.0","nuybp2zd","","","null","","<span style=""color:Black; font-size:50px;"">Sandy","Sandy","STIM_SET_2/107930.bmp_pp93_L1_V1_veridical_freeview_isoFalse_fps144.mp4",""
"null","","","html-keyboard-response","43","1188417","0.0-43.0","nuybp2zd","","<span style=""color:Black; font-size:50px;"">Video 2</span>","null","","","","",""
"null","","","video-keyboard-response","44","1191504","0.0-44.0","nuybp2zd","","","null","","<span style=""color:Black; font-size:50px;"">Casey","Casey","STIM_SET_2/107930.bmp_pp89_L1_V1_veridical_freeview_isoFalse_fps144.mp4",""
"","","","call-function","45","1191504","0.0-45.0","nuybp2zd","","","","","","","",""
"2082.4250000000466","","","categorize-html","46","1195591","0.0-46.0","nuybp2zd","","Which video showed <span style=""font-size:30px"">Sandy's</span> attention?","49","","","","","true"
"null","","","html-keyboard-response","47","1196097","0.0-47.0","nuybp2zd",""," ","null","","","","",""
"","","","call-function","48","1196098","0.0-48.0","nuybp2zd","","","","","","","",""
"null","","","html-keyboard-response","49","1197602","0.0-49.0","nuybp2zd","","<span style=""color:Black; font-size:50px;"">Video 1</span>","null","","","","",""
"null","","","video-keyboard-response","50","1200670","0.0-50.0","nuybp2zd","","","null","","<span style=""color:Black; font-size:50px;"">Sandy","Sandy","STIM_SET_2/107906.bmp_pp93_L1_V1_veridical_freeview_isoFalse_fps144.mp4",""
"null","","","html-keyboard-response","51","1202174","0.0-51.0","nuybp2zd","","<span style=""color:Black; font-size:50px;"">Video 2</span>","null","","","","",""
"null","","","video-keyboard-response","52","1205236","0.0-52.0","nuybp2zd","","","null","","<span style=""color:Black; font-size:50px;"">Casey","Casey","STIM_SET_2/107906.bmp_pp89_L1_V1_veridical_freeview_isoFalse_fps144.mp4",""
"","","","call-function","53","1205236","0.0-53.0","nuybp2zd","","","","","","","",""
"2550.4850000001024","","","categorize-html","54","1209792","0.0-54.0","nuybp2zd","","Which video showed <span style=""font-size:30px"">Sandy's</span> attention?","50","","","","","false"
"null","","","html-keyboard-response","55","1210294","0.0-55.0","nuybp2zd",""," ","null","","","","",""
"","","","call-function","56","1210294","0.0-56.0","nuybp2zd","","","","","","","",""
"null","","","html-keyboard-response","57","1211799","0.0-57.0","nuybp2zd","","<span style=""color:Black; font-size:50px;"">Video 1</span>","null","","","","",""
"null","","","video-keyboard-response","58","1214893","0.0-58.0","nuybp2zd","","","null","","<span style=""color:Black; font-size:50px;"">Sandy","Sandy","STIM_SET_2/1159408.bmp_pp93_L1_V1_veridical_freeview_isoFalse_fps144.mp4",""
"null","","","html-keyboard-response","59","1216396","0.0-59.0","nuybp2zd","","<span style=""color:Black; font-size:50px;"">Video 2</span>","null","","","","",""
"null","","","video-keyboard-response","60","1219507","0.0-60.0","nuybp2zd","","","null","","<span style=""color:Black; font-size:50px;"">Casey","Casey","STIM_SET_2/1159408.bmp_pp89_L1_V1_veridical_freeview_isoFalse_fps144.mp4",""
"","","","call-function","61","1219508","0.0-61.0","nuybp2zd","","","","","","","",""
"991.125","","","categorize-html","62","1222503","0.0-62.0","nuybp2zd","","Which video showed <span style=""font-size:30px"">Sandy's</span> attention?","50","","","","","false"
"null","","","html-keyboard-response","63","1223007","0.0-63.0","nuybp2zd",""," ","null","","","","",""
"","","","call-function","64","1223007","0.0-64.0","nuybp2zd","","","","","","","",""
"null","","","html-keyboard-response","65","1224513","0.0-65.0","nuybp2zd","","<span style=""color:Black; font-size:50px;"">Video 1</span>","null","","","","",""
"null","","","video-keyboard-response","66","1227572","0.0-66.0","nuybp2zd","","","null","","<span style=""color:Black; font-size:50px;"">Sandy","Sandy","STIM_SET_2/713228.bmp_pp93_L1_V1_veridical_freeview_isoFalse_fps144.mp4",""
"null","","","html-keyboard-response","67","1229076","0.0-67.0","nuybp2zd","","<span style=""color:Black; font-size:50px;"">Video 2</span>","null","","","","",""
"null","","","video-keyboard-response","68","1232163","0.0-68.0","nuybp2zd","","","null","","<span style=""color:Black; font-size:50px;"">Casey","Casey","STIM_SET_2/713228.bmp_pp89_L1_V1_veridical_freeview_isoFalse_fps144.mp4",""
"","","","call-function","69","1232164","0.0-69.0","nuybp2zd","","","","","","","",""
"439.1300000001211","","","categorize-html","70","1234605","0.0-70.0","nuybp2zd","","Which video showed <span style=""font-size:30px"">Sandy's</span> attention?","49","","","","","true"
"null","","","html-keyboard-response","71","1235110","0.0-71.0","nuybp2zd",""," ","null","","","","",""
"","","","call-function","72","1235110","0.0-72.0","nuybp2zd","","","","","","","",""
"null","","","html-keyboard-response","73","1236616","0.0-73.0","nuybp2zd","","<span style=""color:Black; font-size:50px;"">Video 1</span>","null","","","","",""
"null","","","video-keyboard-response","74","1239715","0.0-74.0","nuybp2zd","","","null","","<span style=""color:Black; font-size:50px;"">Sandy","Sandy","STIM_SET_2/150432.bmp_pp93_L1_V1_veridical_freeview_isoFalse_fps144.mp4",""
"null","","","html-keyboard-response","75","1241217","0.0-75.0","nuybp2zd","","<span style=""color:Black; font-size:50px;"">Video 2</span>","null","","","","",""
"null","","","video-keyboard-response","76","1244373","0.0-76.0","nuybp2zd","","","null","","<span style=""color:Black; font-size:50px;"">Casey","Casey","STIM_SET_2/150432.bmp_pp89_L1_V1_veridical_freeview_isoFalse_fps144.mp4",""
"","","","call-function","77","1244373","0.0-77.0","nuybp2zd","","","","","","","",""
"1678.030000000028","","","categorize-html","78","1248054","0.0-78.0","nuybp2zd","","Which video showed <span style=""font-size:30px"">Sandy's</span> attention?","50","","","","","false"
"null","","","html-keyboard-response","79","1248560","0.0-79.0","nuybp2zd",""," ","null","","","","",""
"","","","call-function","80","1248561","0.0-80.0","nuybp2zd","","","","","","","",""
"null","","","html-keyboard-response","81","1250067","0.0-81.0","nuybp2zd","","<span style=""color:Black; font-size:50px;"">Video 1</span>","null","","","","",""
"null","","","video-keyboard-response","82","1253177","0.0-82.0","nuybp2zd","","","null","","<span style=""color:Black; font-size:50px;"">Sandy","Sandy","STIM_SET_2/713418.bmp_pp93_L1_V1_veridical_freeview_isoFalse_fps144.mp4",""
"null","","","html-keyboard-response","83","1254678","0.0-83.0","nuybp2zd","","<span style=""color:Black; font-size:50px;"">Video 2</span>","null","","","","",""
"null","","","video-keyboard-response","84","1257808","0.0-84.0","nuybp2zd","","","null","","<span style=""color:Black; font-size:50px;"">Casey","Casey","STIM_SET_2/713418.bmp_pp89_L1_V1_veridical_freeview_isoFalse_fps144.mp4",""
"","","","call-function","85","1257808","0.0-85.0","nuybp2zd","","","","","","","",""
"458.5200000000186","","","categorize-html","86","1260271","0.0-86.0","nuybp2zd","","Which video showed <span style=""font-size:30px"">Sandy's</span> attention?","49","","","","","true"
"null","","","html-keyboard-response","87","1260773","0.0-87.0","nuybp2zd",""," ","null","","","","",""
"4875.360000000102","","","instructions","88","1265649","0.0-88.0","nuybp2zd","[{""page_index"":0,""viewing_time"":3061.0449999999255},{""page_index"":1,""viewing_time"":1069.0700000000652},{""page_index"":2,""viewing_time"":745.1300000001211}]","","","","","","",""
"3634.780000000028","","","instructions","89","1269284","0.0-89.0","nuybp2zd","[{""page_index"":0,""viewing_time"":857.4799999999814},{""page_index"":1,""viewing_time"":1959.9450000000652},{""page_index"":2,""viewing_time"":817.2249999998603}]","","","","","","",""
"","","","call-function","90","1269284","0.0-90.0","nuybp2zd","","","","","","","",""
"null","","","html-keyboard-response","91","1270789","0.0-91.0","nuybp2zd","","<span style=""color:Black; font-size:50px;"">Video 1</span>","null","","","","",""
"null","","","video-keyboard-response","92","1273864","0.0-92.0","nuybp2zd","","","null","","<span style=""color:Black; font-size:50px;"">Casey","Casey","STIM_SET_2/1159967.bmp_pp89_L1_V1_veridical_freeview_isoFalse_fps144.mp4",""
"null","","","html-keyboard-response","93","1275368","0.0-93.0","nuybp2zd","","<span style=""color:Black; font-size:50px;"">Video 2</span>","null","","","","",""
"null","","","video-keyboard-response","94","1278441","0.0-94.0","nuybp2zd","","","null","","<span style=""color:Black; font-size:50px;"">Sandy","Sandy","STIM_SET_2/1159967.bmp_pp93_L1_V1_veridical_freeview_isoFalse_fps144.mp4",""
"","","","call-function","95","1278441","0.0-95.0","nuybp2zd","","","","","","","",""
"3689.9499999999534","","","categorize-html","96","1284137","0.0-96.0","nuybp2zd","","Which video showed <span style=""font-size:30px"">Sandy's</span> attention?","50","","","","","true"
"null","","","html-keyboard-response","97","1284642","0.0-97.0","nuybp2zd",""," ","null","","","","",""
"","","","call-function","98","1284642","0.0-98.0","nuybp2zd","","","","","","","",""
"null","","","html-keyboard-response","99","1286144","0.0-99.0","nuybp2zd","","<span style=""color:Black; font-size:50px;"">Video 1</span>","null","","","","",""
"null","","","video-keyboard-response","100","1289245","0.0-100.0","nuybp2zd","","","null","","<span style=""color:Black; font-size:50px;"">Casey","Casey","STIM_SET_2/1592119.bmp_pp89_L1_V1_veridical_freeview_isoFalse_fps144.mp4",""
"null","","","html-keyboard-response","101","1290751","0.0-101.0","nuybp2zd","","<span style=""color:Black; font-size:50px;"">Video 2</span>","null","","","","",""
"null","","","video-keyboard-response","102","1293825","0.0-102.0","nuybp2zd","","","null","","<span style=""color:Black; font-size:50px;"">Sandy","Sandy","STIM_SET_2/1592119.bmp_pp93_L1_V1_veridical_freeview_isoFalse_fps144.mp4",""
"","","","call-function","103","1293826","0.0-103.0","nuybp2zd","","","","","","","",""
"864.9699999999721","","","categorize-html","104","1296694","0.0-104.0","nuybp2zd","","Which video showed <span style=""font-size:30px"">Sandy's</span> attention?","50","","","","","true"
"null","","","html-keyboard-response","105","1297200","0.0-105.0","nuybp2zd",""," ","null","","","","",""
"","","","call-function","106","1297200","0.0-106.0","nuybp2zd","","","","","","","",""
"null","","","html-keyboard-response","107","1298704","0.0-107.0","nuybp2zd","","<span style=""color:Black; font-size:50px;"">Video 1</span>","null","","","","",""
"null","","","video-keyboard-response","108","1301794","0.0-108.0","nuybp2zd","","","null","","<span style=""color:Black; font-size:50px;"">Casey","Casey","STIM_SET_2/1160189.bmp_pp89_L1_V1_veridical_freeview_isoFalse_fps144.mp4",""
"null","","","html-keyboard-response","109","1303297","0.0-109.0","nuybp2zd","","<span style=""color:Black; font-size:50px;"">Video 2</span>","null","","","","",""
"null","","","video-keyboard-response","110","1306398","0.0-110.0","nuybp2zd","","","null","","<span style=""color:Black; font-size:50px;"">Sandy","Sandy","STIM_SET_2/1160189.bmp_pp93_L1_V1_veridical_freeview_isoFalse_fps144.mp4",""
"","","","call-function","111","1306398","0.0-111.0","nuybp2zd","","","","","","","",""
"725.1650000000373","","","categorize-html","112","1309127","0.0-112.0","nuybp2zd","","Which video showed <span style=""font-size:30px"">Sandy's</span> attention?","50","","","","","true"
"null","","","html-keyboard-response","113","1309632","0.0-113.0","nuybp2zd",""," ","null","","","","",""
"","","","call-function","114","1309633","0.0-114.0","nuybp2zd","","","","","","","",""
"null","","","html-keyboard-response","115","1311138","0.0-115.0","nuybp2zd","","<span style=""color:Black; font-size:50px;"">Video 1</span>","null","","","","",""
"null","","","video-keyboard-response","116","1314231","0.0-116.0","nuybp2zd","","","null","","<span style=""color:Black; font-size:50px;"">Sandy","Sandy","STIM_SET_2/713858.bmp_pp93_L1_V1_veridical_freeview_isoFalse_fps144.mp4",""
"null","","","html-keyboard-response","117","1315737","0.0-117.0","nuybp2zd","","<span style=""color:Black; font-size:50px;"">Video 2</span>","null","","","","",""
"null","","","video-keyboard-response","118","1318821","0.0-118.0","nuybp2zd","","","null","","<span style=""color:Black; font-size:50px;"">Casey","Casey","STIM_SET_2/713858.bmp_pp89_L1_V1_veridical_freeview_isoFalse_fps144.mp4",""
"","","","call-function","119","1318821","0.0-119.0","nuybp2zd","","","","","","","",""
"342.3049999999348","","","categorize-html","120","1321168","0.0-120.0","nuybp2zd","","Which video showed <span style=""font-size:30px"">Sandy's</span> attention?","50","","","","","false"
"null","","","html-keyboard-response","121","1321670","0.0-121.0","nuybp2zd",""," ","null","","","","",""
"","","","call-function","122","1321670","0.0-122.0","nuybp2zd","","","","","","","",""
"null","","","html-keyboard-response","123","1323175","0.0-123.0","nuybp2zd","","<span style=""color:Black; font-size:50px;"">Video 1</span>","null","","","","",""
"null","","","video-keyboard-response","124","1326285","0.0-124.0","nuybp2zd","","","null","","<span style=""color:Black; font-size:50px;"">Sandy","Sandy","STIM_SET_2/150273.bmp_pp93_L1_V1_veridical_freeview_isoFalse_fps144.mp4",""
"null","","","html-keyboard-response","125","1327790","0.0-125.0","nuybp2zd","","<span style=""color:Black; font-size:50px;"">Video 2</span>","null","","","","",""
"null","","","video-keyboard-response","126","1330886","0.0-126.0","nuybp2zd","","","null","","<span style=""color:Black; font-size:50px;"">Casey","Casey","STIM_SET_2/150273.bmp_pp89_L1_V1_veridical_freeview_isoFalse_fps144.mp4",""
"","","","call-function","127","1330886","0.0-127.0","nuybp2zd","","","","","","","",""
"2124.600000000093","","","categorize-html","128","1335015","0.0-128.0","nuybp2zd","","Which video showed <span style=""font-size:30px"">Sandy's</span> attention?","50","","","","","false"
"null","","","html-keyboard-response","129","1335518","0.0-129.0","nuybp2zd",""," ","null","","","","",""
"","","","call-function","130","1335518","0.0-130.0","nuybp2zd","","","","","","","",""
"null","","","html-keyboard-response","131","1337023","0.0-131.0","nuybp2zd","","<span style=""color:Black; font-size:50px;"">Video 1</span>","null","","","","",""
"null","","","video-keyboard-response","132","1340091","0.0-132.0","nuybp2zd","","","null","","<span style=""color:Black; font-size:50px;"">Casey","Casey","STIM_SET_2/713075.bmp_pp89_L1_V1_veridical_freeview_isoFalse_fps144.mp4",""
"null","","","html-keyboard-response","133","1341597","0.0-133.0","nuybp2zd","","<span style=""color:Black; font-size:50px;"">Video 2</span>","null","","","","",""
"null","","","video-keyboard-response","134","1344672","0.0-134.0","nuybp2zd","","","null","","<span style=""color:Black; font-size:50px;"">Sandy","Sandy","STIM_SET_2/713075.bmp_pp93_L1_V1_veridical_freeview_isoFalse_fps144.mp4",""
"","","","call-function","135","1344672","0.0-135.0","nuybp2zd","","","","","","","",""
"1011.2549999998882","","","categorize-html","136","1347688","0.0-136.0","nuybp2zd","","Which video showed <span style=""font-size:30px"">Sandy's</span> attention?","49","","","","","false"
"null","","","html-keyboard-response","137","1348192","0.0-137.0","nuybp2zd",""," ","null","","","","",""
"","","","call-function","138","1348192","0.0-138.0","nuybp2zd","","","","","","","",""
"null","","","html-keyboard-response","139","1349697","0.0-139.0","nuybp2zd","","<span style=""color:Black; font-size:50px;"">Video 1</span>","null","","","","",""
"null","","","video-keyboard-response","140","1352793","0.0-140.0","nuybp2zd","","","null","","<span style=""color:Black; font-size:50px;"">Sandy","Sandy","STIM_SET_2/1592568.bmp_pp93_L1_V1_veridical_freeview_isoFalse_fps144.mp4",""
"null","","","html-keyboard-response","141","1354294","0.0-141.0","nuybp2zd","","<span style=""color:Black; font-size:50px;"">Video 2</span>","null","","","","",""
"null","","","video-keyboard-response","142","1357360","0.0-142.0","nuybp2zd","","","null","","<span style=""color:Black; font-size:50px;"">Casey","Casey","STIM_SET_2/1592568.bmp_pp89_L1_V1_veridical_freeview_isoFalse_fps144.mp4",""
"","","","call-function","143","1357361","0.0-143.0","nuybp2zd","","","","","","","",""
"322.625","","","categorize-html","144","1359685","0.0-144.0","nuybp2zd","","Which video showed <span style=""font-size:30px"">Sandy's</span> attention?","50","","","","","false"
"null","","","html-keyboard-response","145","1360187","0.0-145.0","nuybp2zd",""," ","null","","","","",""
"","","","call-function","146","1360187","0.0-146.0","nuybp2zd","","","","","","","",""
"null","","","html-keyboard-response","147","1361693","0.0-147.0","nuybp2zd","","<span style=""color:Black; font-size:50px;"">Video 1</span>","null","","","","",""
"null","","","video-keyboard-response","148","1364839","0.0-148.0","nuybp2zd","","","null","","<span style=""color:Black; font-size:50px;"">Sandy","Sandy","STIM_SET_2/1159353.bmp_pp93_L1_V1_veridical_freeview_isoFalse_fps144.mp4",""
"null","","","html-keyboard-response","149","1366346","0.0-149.0","nuybp2zd","","<span style=""color:Black; font-size:50px;"">Video 2</span>","null","","","","",""
"null","","","video-keyboard-response","150","1369440","0.0-150.0","nuybp2zd","","","null","","<span style=""color:Black; font-size:50px;"">Casey","Casey","STIM_SET_2/1159353.bmp_pp89_L1_V1_veridical_freeview_isoFalse_fps144.mp4",""
"","","","call-function","151","1369440","0.0-151.0","nuybp2zd","","","","","","","",""
"1411.1350000000093","","","categorize-html","152","1372858","0.0-152.0","nuybp2zd","","Which video showed <span style=""font-size:30px"">Sandy's</span> attention?","50","","","","","false"
"null","","","html-keyboard-response","153","1373360","0.0-153.0","nuybp2zd",""," ","null","","","","",""
"","","","call-function","154","1373360","0.0-154.0","nuybp2zd","","","","","","","",""
"null","","","html-keyboard-response","155","1374866","0.0-155.0","nuybp2zd","","<span style=""color:Black; font-size:50px;"">Video 1</span>","null","","","","",""
"null","","","video-keyboard-response","156","1377965","0.0-156.0","nuybp2zd","","","null","","<span style=""color:Black; font-size:50px;"">Sandy","Sandy","STIM_SET_2/1592286.bmp_pp93_L1_V1_veridical_freeview_isoFalse_fps144.mp4",""
"null","","","html-keyboard-response","157","1379467","0.0-157.0","nuybp2zd","","<span style=""color:Black; font-size:50px;"">Video 2</span>","null","","","","",""
"null","","","video-keyboard-response","158","1382571","0.0-158.0","nuybp2zd","","","null","","<span style=""color:Black; font-size:50px;"">Casey","Casey","STIM_SET_2/1592286.bmp_pp89_L1_V1_veridical_freeview_isoFalse_fps144.mp4",""
"","","","call-function","159","1382571","0.0-159.0","nuybp2zd","","","","","","","",""
"375.95999999996275","","","categorize-html","160","1384950","0.0-160.0","nuybp2zd","","Which video showed <span style=""font-size:30px"">Sandy's</span> attention?","50","","","","","false"
"null","","","html-keyboard-response","161","1385452","0.0-161.0","nuybp2zd",""," ","null","","","","",""
"","","","call-function","162","1385452","0.0-162.0","nuybp2zd","","","","","","","",""
"null","","","html-keyboard-response","163","1386953","0.0-163.0","nuybp2zd","","<span style=""color:Black; font-size:50px;"">Video 1</span>","null","","","","",""
"null","","","video-keyboard-response","164","1390034","0.0-164.0","nuybp2zd","","","null","","<span style=""color:Black; font-size:50px;"">Sandy","Sandy","STIM_SET_2/1592025.bmp_pp93_L1_V1_veridical_freeview_isoFalse_fps144.mp4",""
"null","","","html-keyboard-response","165","1391535","0.0-165.0","nuybp2zd","","<span style=""color:Black; font-size:50px;"">Video 2</span>","null","","","","",""
"null","","","video-keyboard-response","166","1394629","0.0-166.0","nuybp2zd","","","null","","<span style=""color:Black; font-size:50px;"">Casey","Casey","STIM_SET_2/1592025.bmp_pp89_L1_V1_veridical_freeview_isoFalse_fps144.mp4",""
"","","","call-function","167","1394629","0.0-167.0","nuybp2zd","","","","","","","",""
"525.5900000000838","","","categorize-html","168","1397157","0.0-168.0","nuybp2zd","","Which video showed <span style=""font-size:30px"">Sandy's</span> attention?","49","","","","","true"
"null","","","html-keyboard-response","169","1397664","0.0-169.0","nuybp2zd",""," ","null","","","","",""
"3671.9199999999255","","","instructions","170","1401336","0.0-170.0","nuybp2zd","[{""page_index"":0,""viewing_time"":2247.8700000001118},{""page_index"":1,""viewing_time"":665.9599999999627},{""page_index"":2,""viewing_time"":757.9749999998603}]","","","","","","",""
"2607.7600000000093","","","instructions","171","1403944","0.0-171.0","nuybp2zd","[{""page_index"":0,""viewing_time"":595.6399999998976},{""page_index"":1,""viewing_time"":1389.875},{""page_index"":2,""viewing_time"":622.1300000001211}]","","","","","","",""
"","","","call-function","172","1403944","0.0-172.0","nuybp2zd","","","","","","","",""
"null","","","html-keyboard-response","173","1405449","0.0-173.0","nuybp2zd","","<span style=""color:Black; font-size:50px;"">Video 1</span>","null","","","","",""
"null","","","video-keyboard-response","174","1408516","0.0-174.0","nuybp2zd","","","null","","<span style=""color:Black; font-size:50px;"">Sandy","Sandy","STIM_SET_2/1591909.bmp_pp93_L1_V1_veridical_freeview_isoFalse_fps144.mp4",""
"null","","","html-keyboard-response","175","1410022","0.0-175.0","nuybp2zd","","<span style=""color:Black; font-size:50px;"">Video 2</span>","null","","","","",""
"null","","","video-keyboard-response","176","1413091","0.0-176.0","nuybp2zd","","","null","","<span style=""color:Black; font-size:50px;"">Casey","Casey","STIM_SET_2/1591909.bmp_pp89_L1_V1_veridical_freeview_isoFalse_fps144.mp4",""
"","","","call-function","177","1413091","0.0-177.0","nuybp2zd","","","","","","","",""
"1160.1100000001024","","","categorize-html","178","1416258","0.0-178.0","nuybp2zd","","Which video showed <span style=""font-size:30px"">Sandy's</span> attention?","49","","","","","true"
"null","","","html-keyboard-response","179","1416760","0.0-179.0","nuybp2zd",""," ","null","","","","",""
"","","","call-function","180","1416760","0.0-180.0","nuybp2zd","","","","","","","",""
"null","","","html-keyboard-response","181","1418264","0.0-181.0","nuybp2zd","","<span style=""color:Black; font-size:50px;"">Video 1</span>","null","","","","",""
"null","","","video-keyboard-response","182","1421336","0.0-182.0","nuybp2zd","","","null","","<span style=""color:Black; font-size:50px;"">Casey","Casey","STIM_SET_2/713888.bmp_pp89_L1_V1_veridical_freeview_isoFalse_fps144.mp4",""
"null","","","html-keyboard-response","183","1422842","0.0-183.0","nuybp2zd","","<span style=""color:Black; font-size:50px;"">Video 2</span>","null","","","","",""
"null","","","video-keyboard-response","184","1425949","0.0-184.0","nuybp2zd","","","null","","<span style=""color:Black; font-size:50px;"">Sandy","Sandy","STIM_SET_2/713888.bmp_pp93_L1_V1_veridical_freeview_isoFalse_fps144.mp4",""
"","","","call-function","185","1425949","0.0-185.0","nuybp2zd","","","","","","","",""
"534.3500000000931","","","categorize-html","186","1428486","0.0-186.0","nuybp2zd","","Which video showed <span style=""font-size:30px"">Sandy's</span> attention?","49","","","","","false"
"null","","","html-keyboard-response","187","1428988","0.0-187.0","nuybp2zd",""," ","null","","","","",""
"","","","call-function","188","1428988","0.0-188.0","nuybp2zd","","","","","","","",""
"null","","","html-keyboard-response","189","1430494","0.0-189.0","nuybp2zd","","<span style=""color:Black; font-size:50px;"">Video 1</span>","null","","","","",""
"null","","","video-keyboard-response","190","1433589","0.0-190.0","nuybp2zd","","","null","","<span style=""color:Black; font-size:50px;"">Casey","Casey","STIM_SET_2/1159463.bmp_pp89_L1_V1_veridical_freeview_isoFalse_fps144.mp4",""
"null","","","html-keyboard-response","191","1435093","0.0-191.0","nuybp2zd","","<span style=""color:Black; font-size:50px;"">Video 2</span>","null","","","","",""
"null","","","video-keyboard-response","192","1438176","0.0-192.0","nuybp2zd","","","null","","<span style=""color:Black; font-size:50px;"">Sandy","Sandy","STIM_SET_2/1159463.bmp_pp93_L1_V1_veridical_freeview_isoFalse_fps144.mp4",""
"","","","call-function","193","1438176","0.0-193.0","nuybp2zd","","","","","","","",""
"626.8100000000559","","","categorize-html","194","1440808","0.0-194.0","nuybp2zd","","Which video showed <span style=""font-size:30px"">Sandy's</span> attention?","50","","","","","true"
"null","","","html-keyboard-response","195","1441315","0.0-195.0","nuybp2zd",""," ","null","","","","",""
"","","","call-function","196","1441315","0.0-196.0","nuybp2zd","","","","","","","",""
"null","","","html-keyboard-response","197","1442821","0.0-197.0","nuybp2zd","","<span style=""color:Black; font-size:50px;"">Video 1</span>","null","","","","",""
"null","","","video-keyboard-response","198","1445925","0.0-198.0","nuybp2zd","","","null","","<span style=""color:Black; font-size:50px;"">Casey","Casey","STIM_SET_2/498108.bmp_pp89_L1_V1_veridical_freeview_isoFalse_fps144.mp4",""
"null","","","html-keyboard-response","199","1447427","0.0-199.0","nuybp2zd","","<span style=""color:Black; font-size:50px;"">Video 2</span>","null","","","","",""
"null","","","video-keyboard-response","200","1450518","0.0-200.0","nuybp2zd","","","null","","<span style=""color:Black; font-size:50px;"">Sandy","Sandy","STIM_SET_2/498108.bmp_pp93_L1_V1_veridical_freeview_isoFalse_fps144.mp4",""
"","","","call-function","201","1450518","0.0-201.0","nuybp2zd","","","","","","","",""
"461.1700000001583","","","categorize-html","202","1452985","0.0-202.0","nuybp2zd","","Which video showed <span style=""font-size:30px"">Sandy's</span> attention?","50","","","","","true"
"null","","","html-keyboard-response","203","1453487","0.0-203.0","nuybp2zd",""," ","null","","","","",""
"","","","call-function","204","1453487","0.0-204.0","nuybp2zd","","","","","","","",""
"null","","","html-keyboard-response","205","1454992","0.0-205.0","nuybp2zd","","<span style=""color:Black; font-size:50px;"">Video 1</span>","null","","","","",""
"null","","","video-keyboard-response","206","1458095","0.0-206.0","nuybp2zd","","","null","","<span style=""color:Black; font-size:50px;"">Sandy","Sandy","STIM_SET_2/1592233.bmp_pp93_L1_V1_veridical_freeview_isoFalse_fps144.mp4",""
"null","","","html-keyboard-response","207","1459599","0.0-207.0","nuybp2zd","","<span style=""color:Black; font-size:50px;"">Video 2</span>","null","","","","",""
"null","","","video-keyboard-response","208","1462682","0.0-208.0","nuybp2zd","","","null","","<span style=""color:Black; font-size:50px;"">Casey","Casey","STIM_SET_2/1592233.bmp_pp89_L1_V1_veridical_freeview_isoFalse_fps144.mp4",""
"","","","call-function","209","1462683","0.0-209.0","nuybp2zd","","","","","","","",""
"984.565000000177","","","categorize-html","210","1465671","0.0-210.0","nuybp2zd","","Which video showed <span style=""font-size:30px"">Sandy's</span> attention?","49","","","","","true"
"null","","","html-keyboard-response","211","1466175","0.0-211.0","nuybp2zd",""," ","null","","","","",""
"","","","call-function","212","1466175","0.0-212.0","nuybp2zd","","","","","","","",""
"null","","","html-keyboard-response","213","1467679","0.0-213.0","nuybp2zd","","<span style=""color:Black; font-size:50px;"">Video 1</span>","null","","","","",""
"null","","","video-keyboard-response","214","1470781","0.0-214.0","nuybp2zd","","","null","","<span style=""color:Black; font-size:50px;"">Sandy","Sandy","STIM_SET_2/713769.bmp_pp93_L1_V1_veridical_freeview_isoFalse_fps144.mp4",""
"null","","","html-keyboard-response","215","1472286","0.0-215.0","nuybp2zd","","<span style=""color:Black; font-size:50px;"">Video 2</span>","null","","","","",""
"null","","","video-keyboard-response","216","1475361","0.0-216.0","nuybp2zd","","","null","","<span style=""color:Black; font-size:50px;"">Casey","Casey","STIM_SET_2/713769.bmp_pp89_L1_V1_veridical_freeview_isoFalse_fps144.mp4",""
"","","","call-function","217","1475361","0.0-217.0","nuybp2zd","","","","","","","",""
"346.1599999999162","","","categorize-html","218","1477715","0.0-218.0","nuybp2zd","","Which video showed <span style=""font-size:30px"">Sandy's</span> attention?","50","","","","","false"
"null","","","html-keyboard-response","219","1478219","0.0-219.0","nuybp2zd",""," ","null","","","","",""
"","","","call-function","220","1478220","0.0-220.0","nuybp2zd","","","","","","","",""
"null","","","html-keyboard-response","221","1479722","0.0-221.0","nuybp2zd","","<span style=""color:Black; font-size:50px;"">Video 1</span>","null","","","","",""
"null","","","video-keyboard-response","222","1482780","0.0-222.0","nuybp2zd","","","null","","<span style=""color:Black; font-size:50px;"">Sandy","Sandy","STIM_SET_2/713770.bmp_pp93_L1_V1_veridical_freeview_isoFalse_fps144.mp4",""
"null","","","html-keyboard-response","223","1484282","0.0-223.0","nuybp2zd","","<span style=""color:Black; font-size:50px;"">Video 2</span>","null","","","","",""
"null","","","video-keyboard-response","224","1487359","0.0-224.0","nuybp2zd","","","null","","<span style=""color:Black; font-size:50px;"">Casey","Casey","STIM_SET_2/713770.bmp_pp89_L1_V1_veridical_freeview_isoFalse_fps144.mp4",""
"","","","call-function","225","1487359","0.0-225.0","nuybp2zd","","","","","","","",""
"1556.1749999998137","","","categorize-html","226","1490920","0.0-226.0","nuybp2zd","","Which video showed <span style=""font-size:30px"">Sandy's</span> attention?","49","","","","","true"
"null","","","html-keyboard-response","227","1491423","0.0-227.0","nuybp2zd",""," ","null","","","","",""
"","","","call-function","228","1491424","0.0-228.0","nuybp2zd","","","","","","","",""
"null","","","html-keyboard-response","229","1492927","0.0-229.0","nuybp2zd","","<span style=""color:Black; font-size:50px;"">Video 1</span>","null","","","","",""
"null","","","video-keyboard-response","230","1496021","0.0-230.0","nuybp2zd","","","null","","<span style=""color:Black; font-size:50px;"">Sandy","Sandy","STIM_SET_2/286066.bmp_pp93_L1_V1_veridical_freeview_isoFalse_fps144.mp4",""
"null","","","html-keyboard-response","231","1497527","0.0-231.0","nuybp2zd","","<span style=""color:Black; font-size:50px;"">Video 2</span>","null","","","","",""
"null","","","video-keyboard-response","232","1500616","0.0-232.0","nuybp2zd","","","null","","<span style=""color:Black; font-size:50px;"">Casey","Casey","STIM_SET_2/286066.bmp_pp89_L1_V1_veridical_freeview_isoFalse_fps144.mp4",""
"","","","call-function","233","1500616","0.0-233.0","nuybp2zd","","","","","","","",""
"947.2250000000931","","","categorize-html","234","1503569","0.0-234.0","nuybp2zd","","Which video showed <span style=""font-size:30px"">Sandy's</span> attention?","50","","","","","false"
"null","","","html-keyboard-response","235","1504075","0.0-235.0","nuybp2zd",""," ","null","","","","",""
"","","","call-function","236","1504075","0.0-236.0","nuybp2zd","","","","","","","",""
"null","","","html-keyboard-response","237","1505581","0.0-237.0","nuybp2zd","","<span style=""color:Black; font-size:50px;"">Video 1</span>","null","","","","",""
"null","","","video-keyboard-response","238","1508692","0.0-238.0","nuybp2zd","","","null","","<span style=""color:Black; font-size:50px;"">Sandy","Sandy","STIM_SET_2/1159365.bmp_pp93_L1_V1_veridical_freeview_isoFalse_fps144.mp4",""
"null","","","html-keyboard-response","239","1510193","0.0-239.0","nuybp2zd","","<span style=""color:Black; font-size:50px;"">Video 2</span>","null","","","","",""
"null","","","video-keyboard-response","240","1513300","0.0-240.0","nuybp2zd","","","null","","<span style=""color:Black; font-size:50px;"">Casey","Casey","STIM_SET_2/1159365.bmp_pp89_L1_V1_veridical_freeview_isoFalse_fps144.mp4",""
"","","","call-function","241","1513300","0.0-241.0","nuybp2zd","","","","","","","",""
"975.5200000000186","","","categorize-html","242","1516283","0.0-242.0","nuybp2zd","","Which video showed <span style=""font-size:30px"">Sandy's</span> attention?","49","","","","","true"
"null","","","html-keyboard-response","243","1516789","0.0-243.0","nuybp2zd",""," ","null","","","","",""
"","","","call-function","244","1516790","0.0-244.0","nuybp2zd","","","","","","","",""
"null","","","html-keyboard-response","245","1518295","0.0-245.0","nuybp2zd","","<span style=""color:Black; font-size:50px;"">Video 1</span>","null","","","","",""
"null","","","video-keyboard-response","246","1521402","0.0-246.0","nuybp2zd","","","null","","<span style=""color:Black; font-size:50px;"">Sandy","Sandy","STIM_SET_2/285807.bmp_pp93_L1_V1_veridical_freeview_isoFalse_fps144.mp4",""
"null","","","html-keyboard-response","247","1522903","0.0-247.0","nuybp2zd","","<span style=""color:Black; font-size:50px;"">Video 2</span>","null","","","","",""
"null","","","video-keyboard-response","248","1526012","0.0-248.0","nuybp2zd","","","null","","<span style=""color:Black; font-size:50px;"">Casey","Casey","STIM_SET_2/285807.bmp_pp89_L1_V1_veridical_freeview_isoFalse_fps144.mp4",""
"","","","call-function","249","1526012","0.0-249.0","nuybp2zd","","","","","","","",""
"663.8300000000745","","","categorize-html","250","1528678","0.0-250.0","nuybp2zd","","Which video showed <span style=""font-size:30px"">Sandy's</span> attention?","50","","","","","false"
"null","","","html-keyboard-response","251","1529181","0.0-251.0","nuybp2zd",""," ","null","","","","",""
"3691.969999999972","","","instructions","252","1532873","0.0-252.0","nuybp2zd","[{""page_index"":0,""viewing_time"":2171.929999999935},{""page_index"":1,""viewing_time"":637.9250000000466},{""page_index"":2,""viewing_time"":881.9299999999348}]","","","","","","",""
"2059.689999999944","","","instructions","253","1534933","0.0-253.0","nuybp2zd","[{""page_index"":0,""viewing_time"":593.684999999823},{""page_index"":1,""viewing_time"":700.8700000001118},{""page_index"":2,""viewing_time"":765.0300000000279}]","","","","","","",""
"","","","call-function","254","1534934","0.0-254.0","nuybp2zd","","","","","","","",""
"null","","","html-keyboard-response","255","1536435","0.0-255.0","nuybp2zd","","<span style=""color:Black; font-size:50px;"">Video 1</span>","null","","","","",""
"null","","","video-keyboard-response","256","1539503","0.0-256.0","nuybp2zd","","","null","","<span style=""color:Black; font-size:50px;"">Casey","Casey","STIM_SET_2/1592372.bmp_pp89_L1_V1_veridical_freeview_isoFalse_fps144.mp4",""
"null","","","html-keyboard-response","257","1541007","0.0-257.0","nuybp2zd","","<span style=""color:Black; font-size:50px;"">Video 2</span>","null","","","","",""
"null","","","video-keyboard-response","258","1544107","0.0-258.0","nuybp2zd","","","null","","<span style=""color:Black; font-size:50px;"">Sandy","Sandy","STIM_SET_2/1592372.bmp_pp93_L1_V1_veridical_freeview_isoFalse_fps144.mp4",""
"","","","call-function","259","1544108","0.0-259.0","nuybp2zd","","","","","","","",""
"919.7650000001304","","","categorize-html","260","1547032","0.0-260.0","nuybp2zd","","Which video showed <span style=""font-size:30px"">Sandy's</span> attention?","49","","","","","false"
"null","","","html-keyboard-response","261","1547537","0.0-261.0","nuybp2zd",""," ","null","","","","",""
"","","","call-function","262","1547538","0.0-262.0","nuybp2zd","","","","","","","",""
"null","","","html-keyboard-response","263","1549042","0.0-263.0","nuybp2zd","","<span style=""color:Black; font-size:50px;"">Video 1</span>","null","","","","",""
"null","","","video-keyboard-response","264","1552102","0.0-264.0","nuybp2zd","","","null","","<span style=""color:Black; font-size:50px;"">Casey","Casey","STIM_SET_2/1593056.bmp_pp89_L1_V1_veridical_freeview_isoFalse_fps144.mp4",""
"null","","","html-keyboard-response","265","1553608","0.0-265.0","nuybp2zd","","<span style=""color:Black; font-size:50px;"">Video 2</span>","null","","","","",""
"null","","","video-keyboard-response","266","1556670","0.0-266.0","nuybp2zd","","","null","","<span style=""color:Black; font-size:50px;"">Sandy","Sandy","STIM_SET_2/1593056.bmp_pp93_L1_V1_veridical_freeview_isoFalse_fps144.mp4",""
"","","","call-function","267","1556670","0.0-267.0","nuybp2zd","","","","","","","",""
"709.4049999997951","","","categorize-html","268","1559385","0.0-268.0","nuybp2zd","","Which video showed <span style=""font-size:30px"">Sandy's</span> attention?","50","","","","","true"
"null","","","html-keyboard-response","269","1559889","0.0-269.0","nuybp2zd",""," ","null","","","","",""
"","","","call-function","270","1559890","0.0-270.0","nuybp2zd","","","","","","","",""
"null","","","html-keyboard-response","271","1561394","0.0-271.0","nuybp2zd","","<span style=""color:Black; font-size:50px;"">Video 1</span>","null","","","","",""
"null","","","video-keyboard-response","272","1564525","0.0-272.0","nuybp2zd","","","null","","<span style=""color:Black; font-size:50px;"">Sandy","Sandy","STIM_SET_2/1592530.bmp_pp93_L1_V1_veridical_freeview_isoFalse_fps144.mp4",""
"null","","","html-keyboard-response","273","1566030","0.0-273.0","nuybp2zd","","<span style=""color:Black; font-size:50px;"">Video 2</span>","null","","","","",""
"null","","","video-keyboard-response","274","1569116","0.0-274.0","nuybp2zd","","","null","","<span style=""color:Black; font-size:50px;"">Casey","Casey","STIM_SET_2/1592530.bmp_pp89_L1_V1_veridical_freeview_isoFalse_fps144.mp4",""
"","","","call-function","275","1569116","0.0-275.0","nuybp2zd","","","","","","","",""
"343.5150000001304","","","categorize-html","276","1571464","0.0-276.0","nuybp2zd","","Which video showed <span style=""font-size:30px"">Sandy's</span> attention?","50","","","","","false"
"null","","","html-keyboard-response","277","1571969","0.0-277.0","nuybp2zd",""," ","null","","","","",""
"","","","call-function","278","1571969","0.0-278.0","nuybp2zd","","","","","","","",""
"null","","","html-keyboard-response","279","1573475","0.0-279.0","nuybp2zd","","<span style=""color:Black; font-size:50px;"">Video 1</span>","null","","","","",""
"null","","","video-keyboard-response","280","1576624","0.0-280.0","nuybp2zd","","","null","","<span style=""color:Black; font-size:50px;"">Sandy","Sandy","STIM_SET_2/1159318.bmp_pp93_L1_V1_veridical_freeview_isoFalse_fps144.mp4",""
"null","","","html-keyboard-response","281","1578127","0.0-281.0","nuybp2zd","","<span style=""color:Black; font-size:50px;"">Video 2</span>","null","","","","",""
"null","","","video-keyboard-response","282","1581216","0.0-282.0","nuybp2zd","","","null","","<span style=""color:Black; font-size:50px;"">Casey","Casey","STIM_SET_2/1159318.bmp_pp89_L1_V1_veridical_freeview_isoFalse_fps144.mp4",""
"","","","call-function","283","1581217","0.0-283.0","nuybp2zd","","","","","","","",""
"682.9949999998789","","","categorize-html","284","1583903","0.0-284.0","nuybp2zd","","Which video showed <span style=""font-size:30px"">Sandy's</span> attention?","50","","","","","false"
"null","","","html-keyboard-response","285","1584406","0.0-285.0","nuybp2zd",""," ","null","","","","",""
"","","","call-function","286","1584406","0.0-286.0","nuybp2zd","","","","","","","",""
"null","","","html-keyboard-response","287","1585912","0.0-287.0","nuybp2zd","","<span style=""color:Black; font-size:50px;"">Video 1</span>","null","","","","",""
"null","","","video-keyboard-response","288","1589001","0.0-288.0","nuybp2zd","","","null","","<span style=""color:Black; font-size:50px;"">Casey","Casey","STIM_SET_2/150474.bmp_pp89_L1_V1_veridical_freeview_isoFalse_fps144.mp4",""
"null","","","html-keyboard-response","289","1590504","0.0-289.0","nuybp2zd","","<span style=""color:Black; font-size:50px;"">Video 2</span>","null","","","","",""
"null","","","video-keyboard-response","290","1593605","0.0-290.0","nuybp2zd","","","null","","<span style=""color:Black; font-size:50px;"">Sandy","Sandy","STIM_SET_2/150474.bmp_pp93_L1_V1_veridical_freeview_isoFalse_fps144.mp4",""
"","","","call-function","291","1593606","0.0-291.0","nuybp2zd","","","","","","","",""
"325.910000000149","","","categorize-html","292","1595934","0.0-292.0","nuybp2zd","","Which video showed <span style=""font-size:30px"">Sandy's</span> attention?","50","","","","","true"
"null","","","html-keyboard-response","293","1596437","0.0-293.0","nuybp2zd",""," ","null","","","","",""
"","","","call-function","294","1596437","0.0-294.0","nuybp2zd","","","","","","","",""
"null","","","html-keyboard-response","295","1597939","0.0-295.0","nuybp2zd","","<span style=""color:Black; font-size:50px;"">Video 1</span>","null","","","","",""
"null","","","video-keyboard-response","296","1601044","0.0-296.0","nuybp2zd","","","null","","<span style=""color:Black; font-size:50px;"">Sandy","Sandy","STIM_SET_2/498258.bmp_pp93_L1_V1_veridical_freeview_isoFalse_fps144.mp4",""
"null","","","html-keyboard-response","297","1602549","0.0-297.0","nuybp2zd","","<span style=""color:Black; font-size:50px;"">Video 2</span>","null","","","","",""
"null","","","video-keyboard-response","298","1605617","0.0-298.0","nuybp2zd","","","null","","<span style=""color:Black; font-size:50px;"">Casey","Casey","STIM_SET_2/498258.bmp_pp89_L1_V1_veridical_freeview_isoFalse_fps144.mp4",""
"","","","call-function","299","1605618","0.0-299.0","nuybp2zd","","","","","","","",""
"417.61000000010245","","","categorize-html","300","1608040","0.0-300.0","nuybp2zd","","Which video showed <span style=""font-size:30px"">Sandy's</span> attention?","50","","","","","false"
"null","","","html-keyboard-response","301","1608543","0.0-301.0","nuybp2zd",""," ","null","","","","",""
"","","","call-function","302","1608543","0.0-302.0","nuybp2zd","","","","","","","",""
"null","","","html-keyboard-response","303","1610049","0.0-303.0","nuybp2zd","","<span style=""color:Black; font-size:50px;"">Video 1</span>","null","","","","",""
"null","","","video-keyboard-response","304","1613150","0.0-304.0","nuybp2zd","","","null","","<span style=""color:Black; font-size:50px;"">Sandy","Sandy","STIM_SET_2/1591932.bmp_pp93_L1_V1_veridical_freeview_isoFalse_fps144.mp4",""
"null","","","html-keyboard-response","305","1614653","0.0-305.0","nuybp2zd","","<span style=""color:Black; font-size:50px;"">Video 2</span>","null","","","","",""
"null","","","video-keyboard-response","306","1617729","0.0-306.0","nuybp2zd","","","null","","<span style=""color:Black; font-size:50px;"">Casey","Casey","STIM_SET_2/1591932.bmp_pp89_L1_V1_veridical_freeview_isoFalse_fps144.mp4",""
"","","","call-function","307","1617730","0.0-307.0","nuybp2zd","","","","","","","",""
"762.0749999999534","","","categorize-html","308","1620494","0.0-308.0","nuybp2zd","","Which video showed <span style=""font-size:30px"">Sandy's</span> attention?","50","","","","","false"
"null","","","html-keyboard-response","309","1620999","0.0-309.0","nuybp2zd",""," ","null","","","","",""
"","","","call-function","310","1620999","0.0-310.0","nuybp2zd","","","","","","","",""
"null","","","html-keyboard-response","311","1622503","0.0-311.0","nuybp2zd","","<span style=""color:Black; font-size:50px;"">Video 1</span>","null","","","","",""
"null","","","video-keyboard-response","312","1625564","0.0-312.0","nuybp2zd","","","null","","<span style=""color:Black; font-size:50px;"">Casey","Casey","STIM_SET_2/1592094.bmp_pp89_L1_V1_veridical_freeview_isoFalse_fps144.mp4",""
"null","","","html-keyboard-response","313","1627069","0.0-313.0","nuybp2zd","","<span style=""color:Black; font-size:50px;"">Video 2</span>","null","","","","",""
"null","","","video-keyboard-response","314","1630154","0.0-314.0","nuybp2zd","","","null","","<span style=""color:Black; font-size:50px;"">Sandy","Sandy","STIM_SET_2/1592094.bmp_pp93_L1_V1_veridical_freeview_isoFalse_fps144.mp4",""
"","","","call-function","315","1630154","0.0-315.0","nuybp2zd","","","","","","","",""
"617.7250000000931","","","categorize-html","316","1632777","0.0-316.0","nuybp2zd","","Which video showed <span style=""font-size:30px"">Sandy's</span> attention?","50","","","","","true"
"null","","","html-keyboard-response","317","1633279","0.0-317.0","nuybp2zd",""," ","null","","","","",""
"","","","call-function","318","1633280","0.0-318.0","nuybp2zd","","","","","","","",""
"null","","","html-keyboard-response","319","1634784","0.0-319.0","nuybp2zd","","<span style=""color:Black; font-size:50px;"">Video 1</span>","null","","","","",""
"null","","","video-keyboard-response","320","1637890","0.0-320.0","nuybp2zd","","","null","","<span style=""color:Black; font-size:50px;"">Casey","Casey","STIM_SET_2/498326.bmp_pp89_L1_V1_veridical_freeview_isoFalse_fps144.mp4",""
"null","","","html-keyboard-response","321","1639393","0.0-321.0","nuybp2zd","","<span style=""color:Black; font-size:50px;"">Video 2</span>","null","","","","",""
"null","","","video-keyboard-response","322","1642484","0.0-322.0","nuybp2zd","","","null","","<span style=""color:Black; font-size:50px;"">Sandy","Sandy","STIM_SET_2/498326.bmp_pp93_L1_V1_veridical_freeview_isoFalse_fps144.mp4",""
"","","","call-function","323","1642485","0.0-323.0","nuybp2zd","","","","","","","",""
"358.95999999996275","","","categorize-html","324","1644846","0.0-324.0","nuybp2zd","","Which video showed <span style=""font-size:30px"">Sandy's</span> attention?","50","","","","","true"
"null","","","html-keyboard-response","325","1645349","0.0-325.0","nuybp2zd",""," ","null","","","","",""
"","","","call-function","326","1645349","0.0-326.0","nuybp2zd","","","","","","","",""
"null","","","html-keyboard-response","327","1646853","0.0-327.0","nuybp2zd","","<span style=""color:Black; font-size:50px;"">Video 1</span>","null","","","","",""
"null","","","video-keyboard-response","328","1649956","0.0-328.0","nuybp2zd","","","null","","<span style=""color:Black; font-size:50px;"">Sandy","Sandy","STIM_SET_2/1592047.bmp_pp93_L1_V1_veridical_freeview_isoFalse_fps144.mp4",""
"null","","","html-keyboard-response","329","1651461","0.0-329.0","nuybp2zd","","<span style=""color:Black; font-size:50px;"">Video 2</span>","null","","","","",""
"null","","","video-keyboard-response","330","1654547","0.0-330.0","nuybp2zd","","","null","","<span style=""color:Black; font-size:50px;"">Casey","Casey","STIM_SET_2/1592047.bmp_pp89_L1_V1_veridical_freeview_isoFalse_fps144.mp4",""
"","","","call-function","331","1654547","0.0-331.0","nuybp2zd","","","","","","","",""
"280.5150000001304","","","categorize-html","332","1656833","0.0-332.0","nuybp2zd","","Which video showed <span style=""font-size:30px"">Sandy's</span> attention?","49","","","","","true"
"null","","","html-keyboard-response","333","1657335","0.0-333.0","nuybp2zd",""," ","null","","","","",""
"3033.755000000121","","","instructions","334","1660369","0.0-334.0","nuybp2zd","[{""page_index"":0,""viewing_time"":2254.840000000084},{""page_index"":1,""viewing_time"":383.74500000011176},{""page_index"":2,""viewing_time"":395.05999999982305}]","","","","","","",""
"1641.529999999795","","","instructions","335","1662011","0.0-335.0","nuybp2zd","[{""page_index"":0,""viewing_time"":451.6649999998044},{""page_index"":1,""viewing_time"":539.8000000000466},{""page_index"":2,""viewing_time"":649.9599999999627}]","","","","","","",""
"","","","call-function","336","1662012","0.0-336.0","nuybp2zd","","","","","","","",""
"null","","","html-keyboard-response","337","1663516","0.0-337.0","nuybp2zd","","<span style=""color:Black; font-size:50px;"">Video 1</span>","null","","","","",""
"null","","","video-keyboard-response","338","1666622","0.0-338.0","nuybp2zd","","","null","","<span style=""color:Black; font-size:50px;"">Casey","Casey","STIM_SET_2/498339.bmp_pp89_L1_V1_veridical_freeview_isoFalse_fps144.mp4",""
"null","","","html-keyboard-response","339","1668126","0.0-339.0","nuybp2zd","","<span style=""color:Black; font-size:50px;"">Video 2</span>","null","","","","",""
"null","","","video-keyboard-response","340","1671201","0.0-340.0","nuybp2zd","","","null","","<span style=""color:Black; font-size:50px;"">Sandy","Sandy","STIM_SET_2/498339.bmp_pp93_L1_V1_veridical_freeview_isoFalse_fps144.mp4",""
"","","","call-function","341","1671201","0.0-341.0","nuybp2zd","","","","","","","",""
"626.5300000000279","","","categorize-html","342","1673831","0.0-342.0","nuybp2zd","","Which video showed <span style=""font-size:30px"">Sandy's</span> attention?","49","","","","","false"
"null","","","html-keyboard-response","343","1674334","0.0-343.0","nuybp2zd",""," ","null","","","","",""
"","","","call-function","344","1674334","0.0-344.0","nuybp2zd","","","","","","","",""
"null","","","html-keyboard-response","345","1675838","0.0-345.0","nuybp2zd","","<span style=""color:Black; font-size:50px;"">Video 1</span>","null","","","","",""
"null","","","video-keyboard-response","346","1678947","0.0-346.0","nuybp2zd","","","null","","<span style=""color:Black; font-size:50px;"">Sandy","Sandy","STIM_SET_2/713450.bmp_pp93_L1_V1_veridical_freeview_isoFalse_fps144.mp4",""
"null","","","html-keyboard-response","347","1680449","0.0-347.0","nuybp2zd","","<span style=""color:Black; font-size:50px;"">Video 2</span>","null","","","","",""
"null","","","video-keyboard-response","348","1683513","0.0-348.0","nuybp2zd","","","null","","<span style=""color:Black; font-size:50px;"">Casey","Casey","STIM_SET_2/713450.bmp_pp89_L1_V1_veridical_freeview_isoFalse_fps144.mp4",""
"","","","call-function","349","1683514","0.0-349.0","nuybp2zd","","","","","","","",""
"1090.1099999998696","","","categorize-html","350","1686608","0.0-350.0","nuybp2zd","","Which video showed <span style=""font-size:30px"">Sandy's</span> attention?","49","","","","","true"
"null","","","html-keyboard-response","351","1687112","0.0-351.0","nuybp2zd",""," ","null","","","","",""
"","","","call-function","352","1687112","0.0-352.0","nuybp2zd","","","","","","","",""
"null","","","html-keyboard-response","353","1688615","0.0-353.0","nuybp2zd","","<span style=""color:Black; font-size:50px;"">Video 1</span>","null","","","","",""
"null","","","video-keyboard-response","354","1691686","0.0-354.0","nuybp2zd","","","null","","<span style=""color:Black; font-size:50px;"">Casey","Casey","STIM_SET_2/1159486.bmp_pp89_L1_V1_veridical_freeview_isoFalse_fps144.mp4",""
"null","","","html-keyboard-response","355","1693191","0.0-355.0","nuybp2zd","","<span style=""color:Black; font-size:50px;"">Video 2</span>","null","","","","",""
"null","","","video-keyboard-response","356","1696304","0.0-356.0","nuybp2zd","","","null","","<span style=""color:Black; font-size:50px;"">Sandy","Sandy","STIM_SET_2/1159486.bmp_pp93_L1_V1_veridical_freeview_isoFalse_fps144.mp4",""
"","","","call-function","357","1696304","0.0-357.0","nuybp2zd","","","","","","","",""
"435.35000000009313","","","categorize-html","358","1698743","0.0-358.0","nuybp2zd","","Which video showed <span style=""font-size:30px"">Sandy's</span> attention?","50","","","","","true"
"null","","","html-keyboard-response","359","1699245","0.0-359.0","nuybp2zd",""," ","null","","","","",""
"","","","call-function","360","1699245","0.0-360.0","nuybp2zd","","","","","","","",""
"null","","","html-keyboard-response","361","1700752","0.0-361.0","nuybp2zd","","<span style=""color:Black; font-size:50px;"">Video 1</span>","null","","","","",""
"null","","","video-keyboard-response","362","1703843","0.0-362.0","nuybp2zd","","","null","","<span style=""color:Black; font-size:50px;"">Casey","Casey","STIM_SET_2/1592657.bmp_pp89_L1_V1_veridical_freeview_isoFalse_fps144.mp4",""
"null","","","html-keyboard-response","363","1705347","0.0-363.0","nuybp2zd","","<span style=""color:Black; font-size:50px;"">Video 2</span>","null","","","","",""
"null","","","video-keyboard-response","364","1708447","0.0-364.0","nuybp2zd","","","null","","<span style=""color:Black; font-size:50px;"">Sandy","Sandy","STIM_SET_2/1592657.bmp_pp93_L1_V1_veridical_freeview_isoFalse_fps144.mp4",""
"","","","call-function","365","1708447","0.0-365.0","nuybp2zd","","","","","","","",""
"844.6450000000186","","","categorize-html","366","1711294","0.0-366.0","nuybp2zd","","Which video showed <span style=""font-size:30px"">Sandy's</span> attention?","50","","","","","true"
"null","","","html-keyboard-response","367","1711799","0.0-367.0","nuybp2zd",""," ","null","","","","",""
"","","","call-function","368","1711799","0.0-368.0","nuybp2zd","","","","","","","",""
"null","","","html-keyboard-response","369","1713301","0.0-369.0","nuybp2zd","","<span style=""color:Black; font-size:50px;"">Video 1</span>","null","","","","",""
"null","","","video-keyboard-response","370","1716398","0.0-370.0","nuybp2zd","","","null","","<span style=""color:Black; font-size:50px;"">Casey","Casey","STIM_SET_2/498280.bmp_pp89_L1_V1_veridical_freeview_isoFalse_fps144.mp4",""
"null","","","html-keyboard-response","371","1717900","0.0-371.0","nuybp2zd","","<span style=""color:Black; font-size:50px;"">Video 2</span>","null","","","","",""
"null","","","video-keyboard-response","372","1721000","0.0-372.0","nuybp2zd","","","null","","<span style=""color:Black; font-size:50px;"">Sandy","Sandy","STIM_SET_2/498280.bmp_pp93_L1_V1_veridical_freeview_isoFalse_fps144.mp4",""
"","","","call-function","373","1721001","0.0-373.0","nuybp2zd","","","","","","","",""
"755.0699999998324","","","categorize-html","374","1723759","0.0-374.0","nuybp2zd","","Which video showed <span style=""font-size:30px"">Sandy's</span> attention?","50","","","","","true"
"null","","","html-keyboard-response","375","1724263","0.0-375.0","nuybp2zd",""," ","null","","","","",""
"","","","call-function","376","1724263","0.0-376.0","nuybp2zd","","","","","","","",""
"null","","","html-keyboard-response","377","1725765","0.0-377.0","nuybp2zd","","<span style=""color:Black; font-size:50px;"">Video 1</span>","null","","","","",""
"null","","","video-keyboard-response","378","1728861","0.0-378.0","nuybp2zd","","","null","","<span style=""color:Black; font-size:50px;"">Casey","Casey","STIM_SET_2/1592807.bmp_pp89_L1_V1_veridical_freeview_isoFalse_fps144.mp4",""
"null","","","html-keyboard-response","379","1730363","0.0-379.0","nuybp2zd","","<span style=""color:Black; font-size:50px;"">Video 2</span>","null","","","","",""
"null","","","video-keyboard-response","380","1733468","0.0-380.0","nuybp2zd","","","null","","<span style=""color:Black; font-size:50px;"">Sandy","Sandy","STIM_SET_2/1592807.bmp_pp93_L1_V1_veridical_freeview_isoFalse_fps144.mp4",""
"","","","call-function","381","1733468","0.0-381.0","nuybp2zd","","","","","","","",""
"375.92500000004657","","","categorize-html","382","1735849","0.0-382.0","nuybp2zd","","Which video showed <span style=""font-size:30px"">Sandy's</span> attention?","50","","","","","true"
"null","","","html-keyboard-response","383","1736353","0.0-383.0","nuybp2zd",""," ","null","","","","",""
"","","","call-function","384","1736354","0.0-384.0","nuybp2zd","","","","","","","",""
"null","","","html-keyboard-response","385","1737859","0.0-385.0","nuybp2zd","","<span style=""color:Black; font-size:50px;"">Video 1</span>","null","","","","",""
"null","","","video-keyboard-response","386","1740922","0.0-386.0","nuybp2zd","","","null","","<span style=""color:Black; font-size:50px;"">Sandy","Sandy","STIM_SET_2/713936.bmp_pp93_L1_V1_veridical_freeview_isoFalse_fps144.mp4",""
"null","","","html-keyboard-response","387","1742427","0.0-387.0","nuybp2zd","","<span style=""color:Black; font-size:50px;"">Video 2</span>","null","","","","",""
"null","","","video-keyboard-response","388","1745535","0.0-388.0","nuybp2zd","","","null","","<span style=""color:Black; font-size:50px;"">Casey","Casey","STIM_SET_2/713936.bmp_pp89_L1_V1_veridical_freeview_isoFalse_fps144.mp4",""
"","","","call-function","389","1745535","0.0-389.0","nuybp2zd","","","","","","","",""
"349.0450000001583","","","categorize-html","390","1747890","0.0-390.0","nuybp2zd","","Which video showed <span style=""font-size:30px"">Sandy's</span> attention?","49","","","","","true"
"null","","","html-keyboard-response","391","1748395","0.0-391.0","nuybp2zd",""," ","null","","","","",""
"","","","call-function","392","1748395","0.0-392.0","nuybp2zd","","","","","","","",""
"null","","","html-keyboard-response","393","1749902","0.0-393.0","nuybp2zd","","<span style=""color:Black; font-size:50px;"">Video 1</span>","null","","","","",""
"null","","","video-keyboard-response","394","1752961","0.0-394.0","nuybp2zd","","","null","","<span style=""color:Black; font-size:50px;"">Casey","Casey","STIM_SET_2/713707.bmp_pp89_L1_V1_veridical_freeview_isoFalse_fps144.mp4",""
"null","","","html-keyboard-response","395","1754466","0.0-395.0","nuybp2zd","","<span style=""color:Black; font-size:50px;"">Video 2</span>","null","","","","",""
"null","","","video-keyboard-response","396","1757539","0.0-396.0","nuybp2zd","","","null","","<span style=""color:Black; font-size:50px;"">Sandy","Sandy","STIM_SET_2/713707.bmp_pp93_L1_V1_veridical_freeview_isoFalse_fps144.mp4",""
"","","","call-function","397","1757540","0.0-397.0","nuybp2zd","","","","","","","",""
"344.0349999999162","","","categorize-html","398","1759886","0.0-398.0","nuybp2zd","","Which video showed <span style=""font-size:30px"">Sandy's</span> attention?","50","","","","","true"
"null","","","html-keyboard-response","399","1760389","0.0-399.0","nuybp2zd",""," ","null","","","","",""
"","","","call-function","400","1760390","0.0-400.0","nuybp2zd","","","","","","","",""
"null","","","html-keyboard-response","401","1761894","0.0-401.0","nuybp2zd","","<span style=""color:Black; font-size:50px;"">Video 1</span>","null","","","","",""
"null","","","video-keyboard-response","402","1764983","0.0-402.0","nuybp2zd","","","null","","<span style=""color:Black; font-size:50px;"">Sandy","Sandy","STIM_SET_2/497950.bmp_pp93_L1_V1_veridical_freeview_isoFalse_fps144.mp4",""
"null","","","html-keyboard-response","403","1766486","0.0-403.0","nuybp2zd","","<span style=""color:Black; font-size:50px;"">Video 2</span>","null","","","","",""
"null","","","video-keyboard-response","404","1769637","0.0-404.0","nuybp2zd","","","null","","<span style=""color:Black; font-size:50px;"">Casey","Casey","STIM_SET_2/497950.bmp_pp89_L1_V1_veridical_freeview_isoFalse_fps144.mp4",""
"","","","call-function","405","1769637","0.0-405.0","nuybp2zd","","","","","","","",""
"2286.5250000001397","","","categorize-html","406","1773927","0.0-406.0","nuybp2zd","","Which video showed <span style=""font-size:30px"">Sandy's</span> attention?","50","","","","","false"
"null","","","html-keyboard-response","407","1774430","0.0-407.0","nuybp2zd",""," ","null","","","","",""
"","","","call-function","408","1774431","0.0-408.0","nuybp2zd","","","","","","","",""
"null","","","html-keyboard-response","409","1775932","0.0-409.0","nuybp2zd","","<span style=""color:Black; font-size:50px;"">Video 1</span>","null","","","","",""
"null","","","video-keyboard-response","410","1779018","0.0-410.0","nuybp2zd","","","null","","<span style=""color:Black; font-size:50px;"">Casey","Casey","STIM_SET_2/713652.bmp_pp89_L1_V1_veridical_freeview_isoFalse_fps144.mp4",""
"null","","","html-keyboard-response","411","1780520","0.0-411.0","nuybp2zd","","<span style=""color:Black; font-size:50px;"">Video 2</span>","null","","","","",""
"null","","","video-keyboard-response","412","1783608","0.0-412.0","nuybp2zd","","","null","","<span style=""color:Black; font-size:50px;"">Sandy","Sandy","STIM_SET_2/713652.bmp_pp93_L1_V1_veridical_freeview_isoFalse_fps144.mp4",""
"","","","call-function","413","1783608","0.0-413.0","nuybp2zd","","","","","","","",""
"307.66500000003725","","","categorize-html","414","1785922","0.0-414.0","nuybp2zd","","Which video showed <span style=""font-size:30px"">Sandy's</span> attention?","49","","","","","false"
"null","","","html-keyboard-response","415","1786428","0.0-415.0","nuybp2zd",""," ","null","","","","",""
"231588.53000000003","","","instructions","416","2018017","0.0-416.0","nuybp2zd","[{""page_index"":0,""viewing_time"":2836.6100000001024},{""page_index"":1,""viewing_time"":228136.31499999994},{""page_index"":2,""viewing_time"":615.4950000001118}]","","","","","","",""
"1741.6350000000093","","","instructions","417","2019759","0.0-417.0","nuybp2zd","[{""page_index"":0,""viewing_time"":419.57499999995343},{""page_index"":1,""viewing_time"":492.94999999995343},{""page_index"":2,""viewing_time"":829}]","","","","","","",""
"","","","call-function","418","2019759","0.0-418.0","nuybp2zd","","","","","","","",""
"null","","","html-keyboard-response","419","2021265","0.0-419.0","nuybp2zd","","<span style=""color:Black; font-size:50px;"">Video 1</span>","null","","","","",""
"null","","","video-keyboard-response","420","2024327","0.0-420.0","nuybp2zd","","","null","","<span style=""color:Black; font-size:50px;"">Casey","Casey","STIM_SET_2/1591838.bmp_pp89_L1_V1_veridical_freeview_isoFalse_fps144.mp4",""
"null","","","html-keyboard-response","421","2025833","0.0-421.0","nuybp2zd","","<span style=""color:Black; font-size:50px;"">Video 2</span>","null","","","","",""
"null","","","video-keyboard-response","422","2028908","0.0-422.0","nuybp2zd","","","null","","<span style=""color:Black; font-size:50px;"">Sandy","Sandy","STIM_SET_2/1591838.bmp_pp93_L1_V1_veridical_freeview_isoFalse_fps144.mp4",""
"","","","call-function","423","2028908","0.0-423.0","nuybp2zd","","","","","","","",""
"952.0349999999162","","","categorize-html","424","2031868","0.0-424.0","nuybp2zd","","Which video showed <span style=""font-size:30px"">Sandy's</span> attention?","50","","","","","true"
"null","","","html-keyboard-response","425","2032374","0.0-425.0","nuybp2zd",""," ","null","","","","",""
"","","","call-function","426","2032374","0.0-426.0","nuybp2zd","","","","","","","",""
"null","","","html-keyboard-response","427","2033877","0.0-427.0","nuybp2zd","","<span style=""color:Black; font-size:50px;"">Video 1</span>","null","","","","",""
"null","","","video-keyboard-response","428","2036954","0.0-428.0","nuybp2zd","","","null","","<span style=""color:Black; font-size:50px;"">Casey","Casey","STIM_SET_2/1591977.bmp_pp89_L1_V1_veridical_freeview_isoFalse_fps144.mp4",""
"null","","","html-keyboard-response","429","2038455","0.0-429.0","nuybp2zd","","<span style=""color:Black; font-size:50px;"">Video 2</span>","null","","","","",""
"null","","","video-keyboard-response","430","2041541","0.0-430.0","nuybp2zd","","","null","","<span style=""color:Black; font-size:50px;"">Sandy","Sandy","STIM_SET_2/1591977.bmp_pp93_L1_V1_veridical_freeview_isoFalse_fps144.mp4",""
"","","","call-function","431","2041541","0.0-431.0","nuybp2zd","","","","","","","",""
"303.3300000000745","","","categorize-html","432","2043847","0.0-432.0","nuybp2zd","","Which video showed <span style=""font-size:30px"">Sandy's</span> attention?","50","","","","","true"
"null","","","html-keyboard-response","433","2044353","0.0-433.0","nuybp2zd",""," ","null","","","","",""
"","","","call-function","434","2044354","0.0-434.0","nuybp2zd","","","","","","","",""
"null","","","html-keyboard-response","435","2045860","0.0-435.0","nuybp2zd","","<span style=""color:Black; font-size:50px;"">Video 1</span>","null","","","","",""
"null","","","video-keyboard-response","436","2048966","0.0-436.0","nuybp2zd","","","null","","<span style=""color:Black; font-size:50px;"">Sandy","Sandy","STIM_SET_2/285932.bmp_pp93_L1_V1_veridical_freeview_isoFalse_fps144.mp4",""
"null","","","html-keyboard-response","437","2050470","0.0-437.0","nuybp2zd","","<span style=""color:Black; font-size:50px;"">Video 2</span>","null","","","","",""
"null","","","video-keyboard-response","438","2053559","0.0-438.0","nuybp2zd","","","null","","<span style=""color:Black; font-size:50px;"">Casey","Casey","STIM_SET_2/285932.bmp_pp89_L1_V1_veridical_freeview_isoFalse_fps144.mp4",""
"","","","call-function","439","2053560","0.0-439.0","nuybp2zd","","","","","","","",""
"644.1049999999814","","","categorize-html","440","2056208","0.0-440.0","nuybp2zd","","Which video showed <span style=""font-size:30px"">Sandy's</span> attention?","50","","","","","false"
"null","","","html-keyboard-response","441","2056711","0.0-441.0","nuybp2zd",""," ","null","","","","",""
"","","","call-function","442","2056712","0.0-442.0","nuybp2zd","","","","","","","",""
"null","","","html-keyboard-response","443","2058214","0.0-443.0","nuybp2zd","","<span style=""color:Black; font-size:50px;"">Video 1</span>","null","","","","",""
"null","","","video-keyboard-response","444","2061304","0.0-444.0","nuybp2zd","","","null","","<span style=""color:Black; font-size:50px;"">Sandy","Sandy","STIM_SET_2/713024.bmp_pp93_L1_V1_veridical_freeview_isoFalse_fps144.mp4",""
"null","","","html-keyboard-response","445","2062810","0.0-445.0","nuybp2zd","","<span style=""color:Black; font-size:50px;"">Video 2</span>","null","","","","",""
"null","","","video-keyboard-response","446","2065894","0.0-446.0","nuybp2zd","","","null","","<span style=""color:Black; font-size:50px;"">Casey","Casey","STIM_SET_2/713024.bmp_pp89_L1_V1_veridical_freeview_isoFalse_fps144.mp4",""
"","","","call-function","447","2065894","0.0-447.0","nuybp2zd","","","","","","","",""
"766.660000000149","","","categorize-html","448","2068665","0.0-448.0","nuybp2zd","","Which video showed <span style=""font-size:30px"">Sandy's</span> attention?","49","","","","","true"
"null","","","html-keyboard-response","449","2069169","0.0-449.0","nuybp2zd",""," ","null","","","","",""
"","","","call-function","450","2069170","0.0-450.0","nuybp2zd","","","","","","","",""
"null","","","html-keyboard-response","451","2070672","0.0-451.0","nuybp2zd","","<span style=""color:Black; font-size:50px;"">Video 1</span>","null","","","","",""
"null","","","video-keyboard-response","452","2073779","0.0-452.0","nuybp2zd","","","null","","<span style=""color:Black; font-size:50px;"">Casey","Casey","STIM_SET_2/1591781.bmp_pp89_L1_V1_veridical_freeview_isoFalse_fps144.mp4",""
"null","","","html-keyboard-response","453","2075283","0.0-453.0","nuybp2zd","","<span style=""color:Black; font-size:50px;"">Video 2</span>","null","","","","",""
"null","","","video-keyboard-response","454","2078382","0.0-454.0","nuybp2zd","","","null","","<span style=""color:Black; font-size:50px;"">Sandy","Sandy","STIM_SET_2/1591781.bmp_pp93_L1_V1_veridical_freeview_isoFalse_fps144.mp4",""
"","","","call-function","455","2078383","0.0-455.0","nuybp2zd","","","","","","","",""
"733.8899999998976","","","categorize-html","456","2081119","0.0-456.0","nuybp2zd","","Which video showed <span style=""font-size:30px"">Sandy's</span> attention?","50","","","","","true"
"null","","","html-keyboard-response","457","2081623","0.0-457.0","nuybp2zd",""," ","null","","","","",""
"","","","call-function","458","2081623","0.0-458.0","nuybp2zd","","","","","","","",""
"null","","","html-keyboard-response","459","2083128","0.0-459.0","nuybp2zd","","<span style=""color:Black; font-size:50px;"">Video 1</span>","null","","","","",""
"null","","","video-keyboard-response","460","2086240","0.0-460.0","nuybp2zd","","","null","","<span style=""color:Black; font-size:50px;"">Casey","Casey","STIM_SET_2/61513.bmp_pp89_L1_V1_veridical_freeview_isoFalse_fps144.mp4",""
"null","","","html-keyboard-response","461","2087746","0.0-461.0","nuybp2zd","","<span style=""color:Black; font-size:50px;"">Video 2</span>","null","","","","",""
"null","","","video-keyboard-response","462","2090808","0.0-462.0","nuybp2zd","","","null","","<span style=""color:Black; font-size:50px;"">Sandy","Sandy","STIM_SET_2/61513.bmp_pp93_L1_V1_veridical_freeview_isoFalse_fps144.mp4",""
"","","","call-function","463","2090808","0.0-463.0","nuybp2zd","","","","","","","",""
"564.559999999823","","","categorize-html","464","2093375","0.0-464.0","nuybp2zd","","Which video showed <span style=""font-size:30px"">Sandy's</span> attention?","49","","","","","false"
"null","","","html-keyboard-response","465","2093879","0.0-465.0","nuybp2zd",""," ","null","","","","",""
"","","","call-function","466","2093879","0.0-466.0","nuybp2zd","","","","","","","",""
"null","","","html-keyboard-response","467","2095384","0.0-467.0","nuybp2zd","","<span style=""color:Black; font-size:50px;"">Video 1</span>","null","","","","",""
"null","","","video-keyboard-response","468","2098459","0.0-468.0","nuybp2zd","","","null","","<span style=""color:Black; font-size:50px;"">Sandy","Sandy","STIM_SET_2/497974.bmp_pp93_L1_V1_veridical_freeview_isoFalse_fps144.mp4",""
"null","","","html-keyboard-response","469","2099966","0.0-469.0","nuybp2zd","","<span style=""color:Black; font-size:50px;"">Video 2</span>","null","","","","",""
"null","","","video-keyboard-response","470","2103033","0.0-470.0","nuybp2zd","","","null","","<span style=""color:Black; font-size:50px;"">Casey","Casey","STIM_SET_2/497974.bmp_pp89_L1_V1_veridical_freeview_isoFalse_fps144.mp4",""
"","","","call-function","471","2103034","0.0-471.0","nuybp2zd","","","","","","","",""
"1530.8850000002421","","","categorize-html","472","2106568","0.0-472.0","nuybp2zd","","Which video showed <span style=""font-size:30px"">Sandy's</span> attention?","49","","","","","true"
"null","","","html-keyboard-response","473","2107073","0.0-473.0","nuybp2zd",""," ","null","","","","",""
"","","","call-function","474","2107074","0.0-474.0","nuybp2zd","","","","","","","",""
"null","","","html-keyboard-response","475","2108577","0.0-475.0","nuybp2zd","","<span style=""color:Black; font-size:50px;"">Video 1</span>","null","","","","",""
"null","","","video-keyboard-response","476","2111696","0.0-476.0","nuybp2zd","","","null","","<span style=""color:Black; font-size:50px;"">Sandy","Sandy","STIM_SET_2/1159749.bmp_pp93_L1_V1_veridical_freeview_isoFalse_fps144.mp4",""
"null","","","html-keyboard-response","477","2113198","0.0-477.0","nuybp2zd","","<span style=""color:Black; font-size:50px;"">Video 2</span>","null","","","","",""
"null","","","video-keyboard-response","478","2116294","0.0-478.0","nuybp2zd","","","null","","<span style=""color:Black; font-size:50px;"">Casey","Casey","STIM_SET_2/1159749.bmp_pp89_L1_V1_veridical_freeview_isoFalse_fps144.mp4",""
"","","","call-function","479","2116295","0.0-479.0","nuybp2zd","","","","","","","",""
"773.9400000004098","","","categorize-html","480","2119072","0.0-480.0","nuybp2zd","","Which video showed <span style=""font-size:30px"">Sandy's</span> attention?","49","","","","","true"
"null","","","html-keyboard-response","481","2119579","0.0-481.0","nuybp2zd",""," ","null","","","","",""
"","","","call-function","482","2119579","0.0-482.0","nuybp2zd","","","","","","","",""
"null","","","html-keyboard-response","483","2121082","0.0-483.0","nuybp2zd","","<span style=""color:Black; font-size:50px;"">Video 1</span>","null","","","","",""
"null","","","video-keyboard-response","484","2124189","0.0-484.0","nuybp2zd","","","null","","<span style=""color:Black; font-size:50px;"">Sandy","Sandy","STIM_SET_2/150303.bmp_pp93_L1_V1_veridical_freeview_isoFalse_fps144.mp4",""
"null","","","html-keyboard-response","485","2125695","0.0-485.0","nuybp2zd","","<span style=""color:Black; font-size:50px;"">Video 2</span>","null","","","","",""
"null","","","video-keyboard-response","486","2128821","0.0-486.0","nuybp2zd","","","null","","<span style=""color:Black; font-size:50px;"">Casey","Casey","STIM_SET_2/150303.bmp_pp89_L1_V1_veridical_freeview_isoFalse_fps144.mp4",""
"","","","call-function","487","2128822","0.0-487.0","nuybp2zd","","","","","","","",""
"582.7700000000186","","","categorize-html","488","2131409","0.0-488.0","nuybp2zd","","Which video showed <span style=""font-size:30px"">Sandy's</span> attention?","50","","","","","false"
"null","","","html-keyboard-response","489","2131912","0.0-489.0","nuybp2zd",""," ","null","","","","",""
"","","","call-function","490","2131913","0.0-490.0","nuybp2zd","","","","","","","",""
"null","","","html-keyboard-response","491","2133416","0.0-491.0","nuybp2zd","","<span style=""color:Black; font-size:50px;"">Video 1</span>","null","","","","",""
"null","","","video-keyboard-response","492","2136511","0.0-492.0","nuybp2zd","","","null","","<span style=""color:Black; font-size:50px;"">Sandy","Sandy","STIM_SET_2/713633.bmp_pp93_L1_V1_veridical_freeview_isoFalse_fps144.mp4",""
"null","","","html-keyboard-response","493","2138016","0.0-493.0","nuybp2zd","","<span style=""color:Black; font-size:50px;"">Video 2</span>","null","","","","",""
"null","","","video-keyboard-response","494","2141112","0.0-494.0","nuybp2zd","","","null","","<span style=""color:Black; font-size:50px;"">Casey","Casey","STIM_SET_2/713633.bmp_pp89_L1_V1_veridical_freeview_isoFalse_fps144.mp4",""
"","","","call-function","495","2141113","0.0-495.0","nuybp2zd","","","","","","","",""
"355.875","","","categorize-html","496","2143471","0.0-496.0","nuybp2zd","","Which video showed <span style=""font-size:30px"">Sandy's</span> attention?","49","","","","","true"
"null","","","html-keyboard-response","497","2143972","0.0-497.0","nuybp2zd",""," ","null","","","","",""
"2193.4799999999814","","","instructions","498","2146167","0.0-498.0","nuybp2zd","[{""page_index"":0,""viewing_time"":1528.3050000001676},{""page_index"":1,""viewing_time"":303.7449999996461},{""page_index"":2,""viewing_time"":361.3150000004098}]","","","","","","",""
"1406.8349999999627","","","instructions","499","2147574","0.0-499.0","nuybp2zd","[{""page_index"":0,""viewing_time"":221.68999999994412},{""page_index"":1,""viewing_time"":433.83499999996275},{""page_index"":2,""viewing_time"":751.1949999998324}]","","","","","","",""
"","","","call-function","500","2147574","0.0-500.0","nuybp2zd","","","","","","","",""
"null","","","html-keyboard-response","501","2149078","0.0-501.0","nuybp2zd","","<span style=""color:Black; font-size:50px;"">Video 1</span>","null","","","","",""
"null","","","video-keyboard-response","502","2152171","0.0-502.0","nuybp2zd","","","null","","<span style=""color:Black; font-size:50px;"">Sandy","Sandy","STIM_SET_2/498175.bmp_pp93_L1_V1_veridical_freeview_isoFalse_fps144.mp4",""
"null","","","html-keyboard-response","503","2153674","0.0-503.0","nuybp2zd","","<span style=""color:Black; font-size:50px;"">Video 2</span>","null","","","","",""
"null","","","video-keyboard-response","504","2156750","0.0-504.0","nuybp2zd","","","null","","<span style=""color:Black; font-size:50px;"">Casey","Casey","STIM_SET_2/498175.bmp_pp89_L1_V1_veridical_freeview_isoFalse_fps144.mp4",""
"","","","call-function","505","2156750","0.0-505.0","nuybp2zd","","","","","","","",""
"294.464999999851","","","categorize-html","506","2159050","0.0-506.0","nuybp2zd","","Which video showed <span style=""font-size:30px"">Sandy's</span> attention?","50","","","","","false"
"null","","","html-keyboard-response","507","2159556","0.0-507.0","nuybp2zd",""," ","null","","","","",""
"","","","call-function","508","2159556","0.0-508.0","nuybp2zd","","","","","","","",""
"null","","","html-keyboard-response","509","2161059","0.0-509.0","nuybp2zd","","<span style=""color:Black; font-size:50px;"">Video 1</span>","null","","","","",""
"null","","","video-keyboard-response","510","2164125","0.0-510.0","nuybp2zd","","","null","","<span style=""color:Black; font-size:50px;"">Casey","Casey","STIM_SET_2/1593146.bmp_pp89_L1_V1_veridical_freeview_isoFalse_fps144.mp4",""
"null","","","html-keyboard-response","511","2165628","0.0-511.0","nuybp2zd","","<span style=""color:Black; font-size:50px;"">Video 2</span>","null","","","","",""
"null","","","video-keyboard-response","512","2168702","0.0-512.0","nuybp2zd","","","null","","<span style=""color:Black; font-size:50px;"">Sandy","Sandy","STIM_SET_2/1593146.bmp_pp93_L1_V1_veridical_freeview_isoFalse_fps144.mp4",""
"","","","call-function","513","2168702","0.0-513.0","nuybp2zd","","","","","","","",""
"1102.8300000000745","","","categorize-html","514","2171811","0.0-514.0","nuybp2zd","","Which video showed <span style=""font-size:30px"">Sandy's</span> attention?","49","","","","","false"
"null","","","html-keyboard-response","515","2172313","0.0-515.0","nuybp2zd",""," ","null","","","","",""
"","","","call-function","516","2172313","0.0-516.0","nuybp2zd","","","","","","","",""
"null","","","html-keyboard-response","517","2173816","0.0-517.0","nuybp2zd","","<span style=""color:Black; font-size:50px;"">Video 1</span>","null","","","","",""
"null","","","video-keyboard-response","518","2176909","0.0-518.0","nuybp2zd","","","null","","<span style=""color:Black; font-size:50px;"">Casey","Casey","STIM_SET_2/285959.bmp_pp89_L1_V1_veridical_freeview_isoFalse_fps144.mp4",""
"null","","","html-keyboard-response","519","2178413","0.0-519.0","nuybp2zd","","<span style=""color:Black; font-size:50px;"">Video 2</span>","null","","","","",""
"null","","","video-keyboard-response","520","2181513","0.0-520.0","nuybp2zd","","","null","","<span style=""color:Black; font-size:50px;"">Sandy","Sandy","STIM_SET_2/285959.bmp_pp93_L1_V1_veridical_freeview_isoFalse_fps144.mp4",""
"","","","call-function","521","2181514","0.0-521.0","nuybp2zd","","","","","","","",""
"739.035000000149","","","categorize-html","522","2184255","0.0-522.0","nuybp2zd","","Which video showed <span style=""font-size:30px"">Sandy's</span> attention?","50","","","","","true"
"null","","","html-keyboard-response","523","2184758","0.0-523.0","nuybp2zd",""," ","null","","","","",""
"","","","call-function","524","2184758","0.0-524.0","nuybp2zd","","","","","","","",""
"null","","","html-keyboard-response","525","2186264","0.0-525.0","nuybp2zd","","<span style=""color:Black; font-size:50px;"">Video 1</span>","null","","","","",""
"null","","","video-keyboard-response","526","2189352","0.0-526.0","nuybp2zd","","","null","","<span style=""color:Black; font-size:50px;"">Casey","Casey","STIM_SET_2/712977.bmp_pp89_L1_V1_veridical_freeview_isoFalse_fps144.mp4",""
"null","","","html-keyboard-response","527","2190854","0.0-527.0","nuybp2zd","","<span style=""color:Black; font-size:50px;"">Video 2</span>","null","","","","",""
"null","","","video-keyboard-response","528","2193954","0.0-528.0","nuybp2zd","","","null","","<span style=""color:Black; font-size:50px;"">Sandy","Sandy","STIM_SET_2/712977.bmp_pp93_L1_V1_veridical_freeview_isoFalse_fps144.mp4",""
"","","","call-function","529","2193955","0.0-529.0","nuybp2zd","","","","","","","",""
"394.1199999996461","","","categorize-html","530","2196353","0.0-530.0","nuybp2zd","","Which video showed <span style=""font-size:30px"">Sandy's</span> attention?","50","","","","","true"
"null","","","html-keyboard-response","531","2196856","0.0-531.0","nuybp2zd",""," ","null","","","","",""
"","","","call-function","532","2196856","0.0-532.0","nuybp2zd","","","","","","","",""
"null","","","html-keyboard-response","533","2198360","0.0-533.0","nuybp2zd","","<span style=""color:Black; font-size:50px;"">Video 1</span>","null","","","","",""
"null","","","video-keyboard-response","534","2201494","0.0-534.0","nuybp2zd","","","null","","<span style=""color:Black; font-size:50px;"">Casey","Casey","STIM_SET_2/1159572.bmp_pp89_L1_V1_veridical_freeview_isoFalse_fps144.mp4",""
"null","","","html-keyboard-response","535","2202999","0.0-535.0","nuybp2zd","","<span style=""color:Black; font-size:50px;"">Video 2</span>","null","","","","",""
"null","","","video-keyboard-response","536","2206095","0.0-536.0","nuybp2zd","","","null","","<span style=""color:Black; font-size:50px;"">Sandy","Sandy","STIM_SET_2/1159572.bmp_pp93_L1_V1_veridical_freeview_isoFalse_fps144.mp4",""
"","","","call-function","537","2206095","0.0-537.0","nuybp2zd","","","","","","","",""
"1021.7550000003539","","","categorize-html","538","2209119","0.0-538.0","nuybp2zd","","Which video showed <span style=""font-size:30px"">Sandy's</span> attention?","49","","","","","false"
"null","","","html-keyboard-response","539","2209623","0.0-539.0","nuybp2zd",""," ","null","","","","",""
"","","","call-function","540","2209624","0.0-540.0","nuybp2zd","","","","","","","",""
"null","","","html-keyboard-response","541","2211127","0.0-541.0","nuybp2zd","","<span style=""color:Black; font-size:50px;"">Video 1</span>","null","","","","",""
"null","","","video-keyboard-response","542","2214215","0.0-542.0","nuybp2zd","","","null","","<span style=""color:Black; font-size:50px;"">Casey","Casey","STIM_SET_2/1592501.bmp_pp89_L1_V1_veridical_freeview_isoFalse_fps144.mp4",""
"null","","","html-keyboard-response","543","2215720","0.0-543.0","nuybp2zd","","<span style=""color:Black; font-size:50px;"">Video 2</span>","null","","","","",""
"null","","","video-keyboard-response","544","2218827","0.0-544.0","nuybp2zd","","","null","","<span style=""color:Black; font-size:50px;"">Sandy","Sandy","STIM_SET_2/1592501.bmp_pp93_L1_V1_veridical_freeview_isoFalse_fps144.mp4",""
"","","","call-function","545","2218827","0.0-545.0","nuybp2zd","","","","","","","",""
"289.7299999999814","","","categorize-html","546","2221123","0.0-546.0","nuybp2zd","","Which video showed <span style=""font-size:30px"">Sandy's</span> attention?","50","","","","","true"
"null","","","html-keyboard-response","547","2221630","0.0-547.0","nuybp2zd",""," ","null","","","","",""
"","","","call-function","548","2221630","0.0-548.0","nuybp2zd","","","","","","","",""
"null","","","html-keyboard-response","549","2223133","0.0-549.0","nuybp2zd","","<span style=""color:Black; font-size:50px;"">Video 1</span>","null","","","","",""
"null","","","video-keyboard-response","550","2226212","0.0-550.0","nuybp2zd","","","null","","<span style=""color:Black; font-size:50px;"">Sandy","Sandy","STIM_SET_2/1592017.bmp_pp93_L1_V1_veridical_freeview_isoFalse_fps144.mp4",""
"null","","","html-keyboard-response","551","2227719","0.0-551.0","nuybp2zd","","<span style=""color:Black; font-size:50px;"">Video 2</span>","null","","","","",""
"null","","","video-keyboard-response","552","2230784","0.0-552.0","nuybp2zd","","","null","","<span style=""color:Black; font-size:50px;"">Casey","Casey","STIM_SET_2/1592017.bmp_pp89_L1_V1_veridical_freeview_isoFalse_fps144.mp4",""
"","","","call-function","553","2230784","0.0-553.0","nuybp2zd","","","","","","","",""
"316.39999999990687","","","categorize-html","554","2233105","0.0-554.0","nuybp2zd","","Which video showed <span style=""font-size:30px"">Sandy's</span> attention?","49","","","","","true"
"null","","","html-keyboard-response","555","2233608","0.0-555.0","nuybp2zd",""," ","null","","","","",""
"","","","call-function","556","2233609","0.0-556.0","nuybp2zd","","","","","","","",""
"null","","","html-keyboard-response","557","2235114","0.0-557.0","nuybp2zd","","<span style=""color:Black; font-size:50px;"">Video 1</span>","null","","","","",""
"null","","","video-keyboard-response","558","2238176","0.0-558.0","nuybp2zd","","","null","","<span style=""color:Black; font-size:50px;"">Sandy","Sandy","STIM_SET_2/1592133.bmp_pp93_L1_V1_veridical_freeview_isoFalse_fps144.mp4",""
"null","","","html-keyboard-response","559","2239677","0.0-559.0","nuybp2zd","","<span style=""color:Black; font-size:50px;"">Video 2</span>","null","","","","",""
"null","","","video-keyboard-response","560","2242774","0.0-560.0","nuybp2zd","","","null","","<span style=""color:Black; font-size:50px;"">Casey","Casey","STIM_SET_2/1592133.bmp_pp89_L1_V1_veridical_freeview_isoFalse_fps144.mp4",""
"","","","call-function","561","2242774","0.0-561.0","nuybp2zd","","","","","","","",""
"2750.8549999999814","","","categorize-html","562","2247529","0.0-562.0","nuybp2zd","","Which video showed <span style=""font-size:30px"">Sandy's</span> attention?","49","","","","","true"
"null","","","html-keyboard-response","563","2248031","0.0-563.0","nuybp2zd",""," ","null","","","","",""
"","","","call-function","564","2248032","0.0-564.0","nuybp2zd","","","","","","","",""
"null","","","html-keyboard-response","565","2249538","0.0-565.0","nuybp2zd","","<span style=""color:Black; font-size:50px;"">Video 1</span>","null","","","","",""
"null","","","video-keyboard-response","566","2252640","0.0-566.0","nuybp2zd","","","null","","<span style=""color:Black; font-size:50px;"">Sandy","Sandy","STIM_SET_2/1592874.bmp_pp93_L1_V1_veridical_freeview_isoFalse_fps144.mp4",""
"null","","","html-keyboard-response","567","2254142","0.0-567.0","nuybp2zd","","<span style=""color:Black; font-size:50px;"">Video 2</span>","null","","","","",""
"null","","","video-keyboard-response","568","2257243","0.0-568.0","nuybp2zd","","","null","","<span style=""color:Black; font-size:50px;"">Casey","Casey","STIM_SET_2/1592874.bmp_pp89_L1_V1_veridical_freeview_isoFalse_fps144.mp4",""
"","","","call-function","569","2257243","0.0-569.0","nuybp2zd","","","","","","","",""
"1337.445000000298","","","categorize-html","570","2260586","0.0-570.0","nuybp2zd","","Which video showed <span style=""font-size:30px"">Sandy's</span> attention?","50","","","","","false"
"null","","","html-keyboard-response","571","2261093","0.0-571.0","nuybp2zd",""," ","null","","","","",""
"","","","call-function","572","2261093","0.0-572.0","nuybp2zd","","","","","","","",""
"null","","","html-keyboard-response","573","2262600","0.0-573.0","nuybp2zd","","<span style=""color:Black; font-size:50px;"">Video 1</span>","null","","","","",""
"null","","","video-keyboard-response","574","2265697","0.0-574.0","nuybp2zd","","","null","","<span style=""color:Black; font-size:50px;"">Sandy","Sandy","STIM_SET_2/1592934.bmp_pp93_L1_V1_veridical_freeview_isoFalse_fps144.mp4",""
"null","","","html-keyboard-response","575","2267201","0.0-575.0","nuybp2zd","","<span style=""color:Black; font-size:50px;"">Video 2</span>","null","","","","",""
"null","","","video-keyboard-response","576","2270350","0.0-576.0","nuybp2zd","","","null","","<span style=""color:Black; font-size:50px;"">Casey","Casey","STIM_SET_2/1592934.bmp_pp89_L1_V1_veridical_freeview_isoFalse_fps144.mp4",""
"","","","call-function","577","2270351","0.0-577.0","nuybp2zd","","","","","","","",""
"310.17499999981374","","","categorize-html","578","2272664","0.0-578.0","nuybp2zd","","Which video showed <span style=""font-size:30px"">Sandy's</span> attention?","50","","","","","false"
"null","","","html-keyboard-response","579","2273169","0.0-579.0","nuybp2zd",""," ","null","","","","",""
"3225.3300000000745","","","instructions","580","2276395","0.0-580.0","nuybp2zd","[{""page_index"":0,""viewing_time"":3225.2050000000745}]","","","","","","",""
"947.6750000002794","","","instructions","581","2277343","0.0-581.0","nuybp2zd","[{""page_index"":0,""viewing_time"":947.5649999999441}]","","","","","","",""
"51959.60999999987","{""Q0"":""I thought that it was particularly tough to pick out what I thought the pattern was on non-human images, more people = more habits to detect""}","","survey-text","582","2329315","0.0-582.0","nuybp2zd","","","","","","","",""
"140914.5549999997","{""Q0"":""I used strategies and tried to find some pattern with which I could find which attention video was which. I found that being more jumpy and not going from one item to the next was Casey, while \nShirley moved up and down very carefully, and focused on the central people of the image first""}","","survey-text","583","2470234","0.0-583.0","nuybp2zd","","","","","","","",""
"36657.389999999665","{""Q0"":""The non-person images were tough. I could kind of tell who was who if there were letters, but other than that it seemed to be completely random which one was which""}","","survey-text","584","2506895","0.0-584.0","nuybp2zd","","","","","","","",""
"972.7200000002049","","","instructions","585","2507869","0.0-585.0","nuybp2zd","[{""page_index"":0,""viewing_time"":972.6099999998696}]","","","","","","",""
"1878738.1949999998","{""Experimenter_end"":[""Printed ID# nuybp2zd on consent form"",""Given subject SONA credit or payment"",""Given the subject debrief form""]}","[0]","survey-multi-select","586","4386615","0.0-586.0","nuybp2zd","","","","","","","",""
