"rt","responses","question_order","trial_type","trial_index","time_elapsed","internal_node_id","ID","view_history","stimulus","key_press","value","agent","condition","image","correct"
"62714.244999999995","{""Experimenter"":[""Confirmed subject's identity (ID card)""]}","[0]","survey-multi-select","0","62722","0.0-0.0","tr82nfna","","","","","","","",""
"47426.25","","","instructions","1","110150","0.0-1.0","tr82nfna","[{""page_index"":0,""viewing_time"":47426.100000000006}]","","","","","","",""
"8128.845000000001","{""Age"":3,""Sex"":1,""Gender"":1}","[0,1,2]","survey-likert","2","118281","0.0-2.0","tr82nfna","","","","","","","",""
"1202.9649999999965","","","instructions","3","119485","0.0-3.0","tr82nfna","[{""page_index"":0,""viewing_time"":1202.8650000000052}]","","","","","","",""
"12744.640000000014","","","instructions","4","132230","0.0-4.0","tr82nfna","[{""page_index"":0,""viewing_time"":2085.8899999999994},{""page_index"":1,""viewing_time"":6376.744999999995},{""page_index"":2,""viewing_time"":4281.884999999995}]","","","","","","",""
"1881.6399999999849","","","instructions","5","134112","0.0-5.0","tr82nfna","[{""page_index"":0,""viewing_time"":1881.539999999979}]","","","","","","",""
"null","","","video-keyboard-response","6","137187","0.0-6.0","tr82nfna","","","null","","","","",""
"40487.70999999999","","","instructions","7","177676","0.0-7.0","tr82nfna","[{""page_index"":0,""viewing_time"":2217.654999999999},{""page_index"":1,""viewing_time"":1928.1600000000035},{""page_index"":2,""viewing_time"":1361.8949999999895},{""page_index"":3,""viewing_time"":6881.8550000000105},{""page_index"":4,""viewing_time"":14769.25},{""page_index"":5,""viewing_time"":7857.984999999986},{""page_index"":6,""viewing_time"":3973.3699999999953},{""page_index"":7,""viewing_time"":1497.4200000000128}]","","","","","","",""
"50588.494999999995","","","instructions","8","228265","0.0-8.0","tr82nfna","[{""page_index"":0,""viewing_time"":50587.79500000001}]","","","","","","",""
"4290.104999999981","","","instructions","9","232556","0.0-9.0","tr82nfna","[{""page_index"":0,""viewing_time"":4290.005000000005}]","","","","","","",""
"","","","call-function","10","232557","0.0-10.0","tr82nfna","","","","","","","",""
"null","","","html-keyboard-response","11","234059","0.0-11.0","tr82nfna","","<span style=""color:Black; font-size:50px;"">Video 1</span>","null","","","","",""
"null","","","video-keyboard-response","12","237135","0.0-12.0","tr82nfna","","","null","","<span style=""color:Black; font-size:50px;"">Casey","Casey","STIM_SET_3/1592047.bmp_pp52_L1_V1_veridical_freeview_isoFalse_fps144.mp4",""
"null","","","html-keyboard-response","13","238636","0.0-13.0","tr82nfna","","<span style=""color:Black; font-size:50px;"">Video 2</span>","null","","","","",""
"null","","","video-keyboard-response","14","241697","0.0-14.0","tr82nfna","","","null","","<span style=""color:Black; font-size:50px;"">Sandy","Sandy","STIM_SET_3/1592047.bmp_pp63_L1_V1_veridical_freeview_isoFalse_fps144.mp4",""
"","","","call-function","15","241698","0.0-15.0","tr82nfna","","","","","","","",""
"2899.2600000000093","","","categorize-html","16","246600","0.0-16.0","tr82nfna","","Which video showed <span style=""font-size:30px"">Sandy's</span> attention?","49","","","","","false"
"null","","","html-keyboard-response","17","247105","0.0-17.0","tr82nfna",""," ","null","","","","",""
"","","","call-function","18","247106","0.0-18.0","tr82nfna","","","","","","","",""
"null","","","html-keyboard-response","19","248607","0.0-19.0","tr82nfna","","<span style=""color:Black; font-size:50px;"">Video 1</span>","null","","","","",""
"null","","","video-keyboard-response","20","251676","0.0-20.0","tr82nfna","","","null","","<span style=""color:Black; font-size:50px;"">Casey","Casey","STIM_SET_3/713788.bmp_pp52_L1_V1_veridical_freeview_isoFalse_fps144.mp4",""
"null","","","html-keyboard-response","21","253180","0.0-21.0","tr82nfna","","<span style=""color:Black; font-size:50px;"">Video 2</span>","null","","","","",""
"null","","","video-keyboard-response","22","256247","0.0-22.0","tr82nfna","","","null","","<span style=""color:Black; font-size:50px;"">Sandy","Sandy","STIM_SET_3/713788.bmp_pp63_L1_V1_veridical_freeview_isoFalse_fps144.mp4",""
"","","","call-function","23","256248","0.0-23.0","tr82nfna","","","","","","","",""
"1100","","","categorize-html","24","259352","0.0-24.0","tr82nfna","","Which video showed <span style=""font-size:30px"">Sandy's</span> attention?","49","","","","","false"
"null","","","html-keyboard-response","25","259857","0.0-25.0","tr82nfna",""," ","null","","","","",""
"","","","call-function","26","259857","0.0-26.0","tr82nfna","","","","","","","",""
"null","","","html-keyboard-response","27","261363","0.0-27.0","tr82nfna","","<span style=""color:Black; font-size:50px;"">Video 1</span>","null","","","","",""
"null","","","video-keyboard-response","28","264459","0.0-28.0","tr82nfna","","","null","","<span style=""color:Black; font-size:50px;"">Sandy","Sandy","STIM_SET_3/285807.bmp_pp63_L1_V1_veridical_freeview_isoFalse_fps144.mp4",""
"null","","","html-keyboard-response","29","265960","0.0-29.0","tr82nfna","","<span style=""color:Black; font-size:50px;"">Video 2</span>","null","","","","",""
"null","","","video-keyboard-response","30","269050","0.0-30.0","tr82nfna","","","null","","<span style=""color:Black; font-size:50px;"">Casey","Casey","STIM_SET_3/285807.bmp_pp52_L1_V1_veridical_freeview_isoFalse_fps144.mp4",""
"","","","call-function","31","269050","0.0-31.0","tr82nfna","","","","","","","",""
"1185.6149999999907","","","categorize-html","32","272243","0.0-32.0","tr82nfna","","Which video showed <span style=""font-size:30px"">Sandy's</span> attention?","50","","","","","false"
"null","","","html-keyboard-response","33","272745","0.0-33.0","tr82nfna",""," ","null","","","","",""
"","","","call-function","34","272745","0.0-34.0","tr82nfna","","","","","","","",""
"null","","","html-keyboard-response","35","274252","0.0-35.0","tr82nfna","","<span style=""color:Black; font-size:50px;"">Video 1</span>","null","","","","",""
"null","","","video-keyboard-response","36","277370","0.0-36.0","tr82nfna","","","null","","<span style=""color:Black; font-size:50px;"">Sandy","Sandy","STIM_SET_3/498280.bmp_pp63_L1_V1_veridical_freeview_isoFalse_fps144.mp4",""
"null","","","html-keyboard-response","37","278877","0.0-37.0","tr82nfna","","<span style=""color:Black; font-size:50px;"">Video 2</span>","null","","","","",""
"null","","","video-keyboard-response","38","281970","0.0-38.0","tr82nfna","","","null","","<span style=""color:Black; font-size:50px;"">Casey","Casey","STIM_SET_3/498280.bmp_pp52_L1_V1_veridical_freeview_isoFalse_fps144.mp4",""
"","","","call-function","39","281970","0.0-39.0","tr82nfna","","","","","","","",""
"3513.740000000049","","","categorize-html","40","287487","0.0-40.0","tr82nfna","","Which video showed <span style=""font-size:30px"">Sandy's</span> attention?","50","","","","","false"
"null","","","html-keyboard-response","41","287988","0.0-41.0","tr82nfna",""," ","null","","","","",""
"","","","call-function","42","287989","0.0-42.0","tr82nfna","","","","","","","",""
"null","","","html-keyboard-response","43","289494","0.0-43.0","tr82nfna","","<span style=""color:Black; font-size:50px;"">Video 1</span>","null","","","","",""
"null","","","video-keyboard-response","44","292582","0.0-44.0","tr82nfna","","","null","","<span style=""color:Black; font-size:50px;"">Casey","Casey","STIM_SET_3/1159572.bmp_pp52_L1_V1_veridical_freeview_isoFalse_fps144.mp4",""
"null","","","html-keyboard-response","45","294084","0.0-45.0","tr82nfna","","<span style=""color:Black; font-size:50px;"">Video 2</span>","null","","","","",""
"null","","","video-keyboard-response","46","297188","0.0-46.0","tr82nfna","","","null","","<span style=""color:Black; font-size:50px;"">Sandy","Sandy","STIM_SET_3/1159572.bmp_pp63_L1_V1_veridical_freeview_isoFalse_fps144.mp4",""
"","","","call-function","47","297188","0.0-47.0","tr82nfna","","","","","","","",""
"4960.390000000014","","","categorize-html","48","304153","0.0-48.0","tr82nfna","","Which video showed <span style=""font-size:30px"">Sandy's</span> attention?","49","","","","","false"
"null","","","html-keyboard-response","49","304659","0.0-49.0","tr82nfna",""," ","null","","","","",""
"","","","call-function","50","304660","0.0-50.0","tr82nfna","","","","","","","",""
"null","","","html-keyboard-response","51","306166","0.0-51.0","tr82nfna","","<span style=""color:Black; font-size:50px;"">Video 1</span>","null","","","","",""
"null","","","video-keyboard-response","52","309227","0.0-52.0","tr82nfna","","","null","","<span style=""color:Black; font-size:50px;"">Sandy","Sandy","STIM_SET_3/1592501.bmp_pp63_L1_V1_veridical_freeview_isoFalse_fps144.mp4",""
"null","","","html-keyboard-response","53","310729","0.0-53.0","tr82nfna","","<span style=""color:Black; font-size:50px;"">Video 2</span>","null","","","","",""
"null","","","video-keyboard-response","54","313791","0.0-54.0","tr82nfna","","","null","","<span style=""color:Black; font-size:50px;"">Casey","Casey","STIM_SET_3/1592501.bmp_pp52_L1_V1_veridical_freeview_isoFalse_fps144.mp4",""
"","","","call-function","55","313791","0.0-55.0","tr82nfna","","","","","","","",""
"1029.0449999999837","","","categorize-html","56","316826","0.0-56.0","tr82nfna","","Which video showed <span style=""font-size:30px"">Sandy's</span> attention?","50","","","","","false"
"null","","","html-keyboard-response","57","317332","0.0-57.0","tr82nfna",""," ","null","","","","",""
"","","","call-function","58","317332","0.0-58.0","tr82nfna","","","","","","","",""
"null","","","html-keyboard-response","59","318836","0.0-59.0","tr82nfna","","<span style=""color:Black; font-size:50px;"">Video 1</span>","null","","","","",""
"null","","","video-keyboard-response","60","321905","0.0-60.0","tr82nfna","","","null","","<span style=""color:Black; font-size:50px;"">Sandy","Sandy","STIM_SET_3/1159353.bmp_pp63_L1_V1_veridical_freeview_isoFalse_fps144.mp4",""
"null","","","html-keyboard-response","61","323409","0.0-61.0","tr82nfna","","<span style=""color:Black; font-size:50px;"">Video 2</span>","null","","","","",""
"null","","","video-keyboard-response","62","326473","0.0-62.0","tr82nfna","","","null","","<span style=""color:Black; font-size:50px;"">Casey","Casey","STIM_SET_3/1159353.bmp_pp52_L1_V1_veridical_freeview_isoFalse_fps144.mp4",""
"","","","call-function","63","326473","0.0-63.0","tr82nfna","","","","","","","",""
"811.0149999999558","","","categorize-html","64","329288","0.0-64.0","tr82nfna","","Which video showed <span style=""font-size:30px"">Sandy's</span> attention?","49","","","","","true"
"null","","","html-keyboard-response","65","329790","0.0-65.0","tr82nfna",""," ","null","","","","",""
"","","","call-function","66","329791","0.0-66.0","tr82nfna","","","","","","","",""
"null","","","html-keyboard-response","67","331295","0.0-67.0","tr82nfna","","<span style=""color:Black; font-size:50px;"">Video 1</span>","null","","","","",""
"null","","","video-keyboard-response","68","334401","0.0-68.0","tr82nfna","","","null","","<span style=""color:Black; font-size:50px;"">Casey","Casey","STIM_SET_3/1591781.bmp_pp52_L1_V1_veridical_freeview_isoFalse_fps144.mp4",""
"null","","","html-keyboard-response","69","335903","0.0-69.0","tr82nfna","","<span style=""color:Black; font-size:50px;"">Video 2</span>","null","","","","",""
"null","","","video-keyboard-response","70","339010","0.0-70.0","tr82nfna","","","null","","<span style=""color:Black; font-size:50px;"">Sandy","Sandy","STIM_SET_3/1591781.bmp_pp63_L1_V1_veridical_freeview_isoFalse_fps144.mp4",""
"","","","call-function","71","339010","0.0-71.0","tr82nfna","","","","","","","",""
"521.9800000000396","","","categorize-html","72","341535","0.0-72.0","tr82nfna","","Which video showed <span style=""font-size:30px"">Sandy's</span> attention?","49","","","","","false"
"null","","","html-keyboard-response","73","342036","0.0-73.0","tr82nfna",""," ","null","","","","",""
"","","","call-function","74","342037","0.0-74.0","tr82nfna","","","","","","","",""
"null","","","html-keyboard-response","75","343539","0.0-75.0","tr82nfna","","<span style=""color:Black; font-size:50px;"">Video 1</span>","null","","","","",""
"null","","","video-keyboard-response","76","346636","0.0-76.0","tr82nfna","","","null","","<span style=""color:Black; font-size:50px;"">Casey","Casey","STIM_SET_3/713707.bmp_pp52_L1_V1_veridical_freeview_isoFalse_fps144.mp4",""
"null","","","html-keyboard-response","77","348142","0.0-77.0","tr82nfna","","<span style=""color:Black; font-size:50px;"">Video 2</span>","null","","","","",""
"null","","","video-keyboard-response","78","351233","0.0-78.0","tr82nfna","","","null","","<span style=""color:Black; font-size:50px;"">Sandy","Sandy","STIM_SET_3/713707.bmp_pp63_L1_V1_veridical_freeview_isoFalse_fps144.mp4",""
"","","","call-function","79","351234","0.0-79.0","tr82nfna","","","","","","","",""
"3258.5900000000256","","","categorize-html","80","356497","0.0-80.0","tr82nfna","","Which video showed <span style=""font-size:30px"">Sandy's</span> attention?","49","","","","","false"
"null","","","html-keyboard-response","81","357001","0.0-81.0","tr82nfna",""," ","null","","","","",""
"","","","call-function","82","357001","0.0-82.0","tr82nfna","","","","","","","",""
"null","","","html-keyboard-response","83","358506","0.0-83.0","tr82nfna","","<span style=""color:Black; font-size:50px;"">Video 1</span>","null","","","","",""
"null","","","video-keyboard-response","84","361628","0.0-84.0","tr82nfna","","","null","","<span style=""color:Black; font-size:50px;"">Sandy","Sandy","STIM_SET_3/713920.bmp_pp63_L1_V1_veridical_freeview_isoFalse_fps144.mp4",""
"null","","","html-keyboard-response","85","363129","0.0-85.0","tr82nfna","","<span style=""color:Black; font-size:50px;"">Video 2</span>","null","","","","",""
"null","","","video-keyboard-response","86","366226","0.0-86.0","tr82nfna","","","null","","<span style=""color:Black; font-size:50px;"">Casey","Casey","STIM_SET_3/713920.bmp_pp52_L1_V1_veridical_freeview_isoFalse_fps144.mp4",""
"","","","call-function","87","366226","0.0-87.0","tr82nfna","","","","","","","",""
"2202.4049999999697","","","categorize-html","88","370434","0.0-88.0","tr82nfna","","Which video showed <span style=""font-size:30px"">Sandy's</span> attention?","50","","","","","false"
"null","","","html-keyboard-response","89","370941","0.0-89.0","tr82nfna",""," ","null","","","","",""
"28173.050000000047","","","instructions","90","399114","0.0-90.0","tr82nfna","[{""page_index"":0,""viewing_time"":2010.8400000000256},{""page_index"":1,""viewing_time"":25274.130000000005},{""page_index"":2,""viewing_time"":887.9749999999767}]","","","","","","",""
"3817.8649999999907","","","instructions","91","402932","0.0-91.0","tr82nfna","[{""page_index"":0,""viewing_time"":850.9150000000373},{""page_index"":1,""viewing_time"":1750.6399999999558},{""page_index"":2,""viewing_time"":1216.2000000000116}]","","","","","","",""
"","","","call-function","92","402933","0.0-92.0","tr82nfna","","","","","","","",""
"null","","","html-keyboard-response","93","404433","0.0-93.0","tr82nfna","","<span style=""color:Black; font-size:50px;"">Video 1</span>","null","","","","",""
"null","","","video-keyboard-response","94","407493","0.0-94.0","tr82nfna","","","null","","<span style=""color:Black; font-size:50px;"">Sandy","Sandy","STIM_SET_3/1592657.bmp_pp63_L1_V1_veridical_freeview_isoFalse_fps144.mp4",""
"null","","","html-keyboard-response","95","409000","0.0-95.0","tr82nfna","","<span style=""color:Black; font-size:50px;"">Video 2</span>","null","","","","",""
"null","","","video-keyboard-response","96","412076","0.0-96.0","tr82nfna","","","null","","<span style=""color:Black; font-size:50px;"">Casey","Casey","STIM_SET_3/1592657.bmp_pp52_L1_V1_veridical_freeview_isoFalse_fps144.mp4",""
"","","","call-function","97","412077","0.0-97.0","tr82nfna","","","","","","","",""
"671.4550000000163","","","categorize-html","98","414751","0.0-98.0","tr82nfna","","Which video showed <span style=""font-size:30px"">Sandy's</span> attention?","49","","","","","true"
"null","","","html-keyboard-response","99","415257","0.0-99.0","tr82nfna",""," ","null","","","","",""
"","","","call-function","100","415258","0.0-100.0","tr82nfna","","","","","","","",""
"null","","","html-keyboard-response","101","416764","0.0-101.0","tr82nfna","","<span style=""color:Black; font-size:50px;"">Video 1</span>","null","","","","",""
"null","","","video-keyboard-response","102","419824","0.0-102.0","tr82nfna","","","null","","<span style=""color:Black; font-size:50px;"">Sandy","Sandy","STIM_SET_3/713371.bmp_pp63_L1_V1_veridical_freeview_isoFalse_fps144.mp4",""
"null","","","html-keyboard-response","103","421328","0.0-103.0","tr82nfna","","<span style=""color:Black; font-size:50px;"">Video 2</span>","null","","","","",""
"null","","","video-keyboard-response","104","424402","0.0-104.0","tr82nfna","","","null","","<span style=""color:Black; font-size:50px;"">Casey","Casey","STIM_SET_3/713371.bmp_pp52_L1_V1_veridical_freeview_isoFalse_fps144.mp4",""
"","","","call-function","105","424402","0.0-105.0","tr82nfna","","","","","","","",""
"594.0800000000163","","","categorize-html","106","427003","0.0-106.0","tr82nfna","","Which video showed <span style=""font-size:30px"">Sandy's</span> attention?","50","","","","","false"
"null","","","html-keyboard-response","107","427506","0.0-107.0","tr82nfna",""," ","null","","","","",""
"","","","call-function","108","427506","0.0-108.0","tr82nfna","","","","","","","",""
"null","","","html-keyboard-response","109","429008","0.0-109.0","tr82nfna","","<span style=""color:Black; font-size:50px;"">Video 1</span>","null","","","","",""
"null","","","video-keyboard-response","110","432114","0.0-110.0","tr82nfna","","","null","","<span style=""color:Black; font-size:50px;"">Sandy","Sandy","STIM_SET_3/713075.bmp_pp63_L1_V1_veridical_freeview_isoFalse_fps144.mp4",""
"null","","","html-keyboard-response","111","433619","0.0-111.0","tr82nfna","","<span style=""color:Black; font-size:50px;"">Video 2</span>","null","","","","",""
"null","","","video-keyboard-response","112","436705","0.0-112.0","tr82nfna","","","null","","<span style=""color:Black; font-size:50px;"">Casey","Casey","STIM_SET_3/713075.bmp_pp52_L1_V1_veridical_freeview_isoFalse_fps144.mp4",""
"","","","call-function","113","436705","0.0-113.0","tr82nfna","","","","","","","",""
"1091.1699999999837","","","categorize-html","114","439804","0.0-114.0","tr82nfna","","Which video showed <span style=""font-size:30px"">Sandy's</span> attention?","49","","","","","true"
"null","","","html-keyboard-response","115","440306","0.0-115.0","tr82nfna",""," ","null","","","","",""
"","","","call-function","116","440306","0.0-116.0","tr82nfna","","","","","","","",""
"null","","","html-keyboard-response","117","441809","0.0-117.0","tr82nfna","","<span style=""color:Black; font-size:50px;"">Video 1</span>","null","","","","",""
"null","","","video-keyboard-response","118","444909","0.0-118.0","tr82nfna","","","null","","<span style=""color:Black; font-size:50px;"">Casey","Casey","STIM_SET_3/1592079.bmp_pp52_L1_V1_veridical_freeview_isoFalse_fps144.mp4",""
"null","","","html-keyboard-response","119","446416","0.0-119.0","tr82nfna","","<span style=""color:Black; font-size:50px;"">Video 2</span>","null","","","","",""
"null","","","video-keyboard-response","120","449503","0.0-120.0","tr82nfna","","","null","","<span style=""color:Black; font-size:50px;"">Sandy","Sandy","STIM_SET_3/1592079.bmp_pp63_L1_V1_veridical_freeview_isoFalse_fps144.mp4",""
"","","","call-function","121","449504","0.0-121.0","tr82nfna","","","","","","","",""
"3588.8150000000023","","","categorize-html","122","455096","0.0-122.0","tr82nfna","","Which video showed <span style=""font-size:30px"">Sandy's</span> attention?","50","","","","","true"
"null","","","html-keyboard-response","123","455602","0.0-123.0","tr82nfna",""," ","null","","","","",""
"","","","call-function","124","455602","0.0-124.0","tr82nfna","","","","","","","",""
"null","","","html-keyboard-response","125","457109","0.0-125.0","tr82nfna","","<span style=""color:Black; font-size:50px;"">Video 1</span>","null","","","","",""
"null","","","video-keyboard-response","126","460213","0.0-126.0","tr82nfna","","","null","","<span style=""color:Black; font-size:50px;"">Sandy","Sandy","STIM_SET_3/1159318.bmp_pp63_L1_V1_veridical_freeview_isoFalse_fps144.mp4",""
"null","","","html-keyboard-response","127","461718","0.0-127.0","tr82nfna","","<span style=""color:Black; font-size:50px;"">Video 2</span>","null","","","","",""
"null","","","video-keyboard-response","128","464825","0.0-128.0","tr82nfna","","","null","","<span style=""color:Black; font-size:50px;"">Casey","Casey","STIM_SET_3/1159318.bmp_pp52_L1_V1_veridical_freeview_isoFalse_fps144.mp4",""
"","","","call-function","129","464825","0.0-129.0","tr82nfna","","","","","","","",""
"1115.280000000028","","","categorize-html","130","467943","0.0-130.0","tr82nfna","","Which video showed <span style=""font-size:30px"">Sandy's</span> attention?","50","","","","","false"
"null","","","html-keyboard-response","131","468447","0.0-131.0","tr82nfna",""," ","null","","","","",""
"","","","call-function","132","468448","0.0-132.0","tr82nfna","","","","","","","",""
"null","","","html-keyboard-response","133","469953","0.0-133.0","tr82nfna","","<span style=""color:Black; font-size:50px;"">Video 1</span>","null","","","","",""
"null","","","video-keyboard-response","134","473012","0.0-134.0","tr82nfna","","","null","","<span style=""color:Black; font-size:50px;"">Sandy","Sandy","STIM_SET_3/713228.bmp_pp63_L1_V1_veridical_freeview_isoFalse_fps144.mp4",""
"null","","","html-keyboard-response","135","474517","0.0-135.0","tr82nfna","","<span style=""color:Black; font-size:50px;"">Video 2</span>","null","","","","",""
"null","","","video-keyboard-response","136","477594","0.0-136.0","tr82nfna","","","null","","<span style=""color:Black; font-size:50px;"">Casey","Casey","STIM_SET_3/713228.bmp_pp52_L1_V1_veridical_freeview_isoFalse_fps144.mp4",""
"","","","call-function","137","477594","0.0-137.0","tr82nfna","","","","","","","",""
"2146.5950000000303","","","categorize-html","138","481745","0.0-138.0","tr82nfna","","Which video showed <span style=""font-size:30px"">Sandy's</span> attention?","49","","","","","true"
"null","","","html-keyboard-response","139","482252","0.0-139.0","tr82nfna",""," ","null","","","","",""
"","","","call-function","140","482252","0.0-140.0","tr82nfna","","","","","","","",""
"null","","","html-keyboard-response","141","483755","0.0-141.0","tr82nfna","","<span style=""color:Black; font-size:50px;"">Video 1</span>","null","","","","",""
"null","","","video-keyboard-response","142","486837","0.0-142.0","tr82nfna","","","null","","<span style=""color:Black; font-size:50px;"">Sandy","Sandy","STIM_SET_3/150273.bmp_pp63_L1_V1_veridical_freeview_isoFalse_fps144.mp4",""
"null","","","html-keyboard-response","143","488338","0.0-143.0","tr82nfna","","<span style=""color:Black; font-size:50px;"">Video 2</span>","null","","","","",""
"null","","","video-keyboard-response","144","491413","0.0-144.0","tr82nfna","","","null","","<span style=""color:Black; font-size:50px;"">Casey","Casey","STIM_SET_3/150273.bmp_pp52_L1_V1_veridical_freeview_isoFalse_fps144.mp4",""
"","","","call-function","145","491414","0.0-145.0","tr82nfna","","","","","","","",""
"1310.990000000049","","","categorize-html","146","494727","0.0-146.0","tr82nfna","","Which video showed <span style=""font-size:30px"">Sandy's</span> attention?","49","","","","","true"
"null","","","html-keyboard-response","147","495232","0.0-147.0","tr82nfna",""," ","null","","","","",""
"","","","call-function","148","495232","0.0-148.0","tr82nfna","","","","","","","",""
"null","","","html-keyboard-response","149","496739","0.0-149.0","tr82nfna","","<span style=""color:Black; font-size:50px;"">Video 1</span>","null","","","","",""
"null","","","video-keyboard-response","150","499839","0.0-150.0","tr82nfna","","","null","","<span style=""color:Black; font-size:50px;"">Casey","Casey","STIM_SET_3/497950.bmp_pp52_L1_V1_veridical_freeview_isoFalse_fps144.mp4",""
"null","","","html-keyboard-response","151","501341","0.0-151.0","tr82nfna","","<span style=""color:Black; font-size:50px;"">Video 2</span>","null","","","","",""
"null","","","video-keyboard-response","152","504431","0.0-152.0","tr82nfna","","","null","","<span style=""color:Black; font-size:50px;"">Sandy","Sandy","STIM_SET_3/497950.bmp_pp63_L1_V1_veridical_freeview_isoFalse_fps144.mp4",""
"","","","call-function","153","504431","0.0-153.0","tr82nfna","","","","","","","",""
"749.6200000000536","","","categorize-html","154","507184","0.0-154.0","tr82nfna","","Which video showed <span style=""font-size:30px"">Sandy's</span> attention?","50","","","","","true"
"null","","","html-keyboard-response","155","507687","0.0-155.0","tr82nfna",""," ","null","","","","",""
"","","","call-function","156","507688","0.0-156.0","tr82nfna","","","","","","","",""
"null","","","html-keyboard-response","157","509191","0.0-157.0","tr82nfna","","<span style=""color:Black; font-size:50px;"">Video 1</span>","null","","","","",""
"null","","","video-keyboard-response","158","512292","0.0-158.0","tr82nfna","","","null","","<span style=""color:Black; font-size:50px;"">Casey","Casey","STIM_SET_3/713858.bmp_pp52_L1_V1_veridical_freeview_isoFalse_fps144.mp4",""
"null","","","html-keyboard-response","159","513795","0.0-159.0","tr82nfna","","<span style=""color:Black; font-size:50px;"">Video 2</span>","null","","","","",""
"null","","","video-keyboard-response","160","516895","0.0-160.0","tr82nfna","","","null","","<span style=""color:Black; font-size:50px;"">Sandy","Sandy","STIM_SET_3/713858.bmp_pp63_L1_V1_veridical_freeview_isoFalse_fps144.mp4",""
"","","","call-function","161","516895","0.0-161.0","tr82nfna","","","","","","","",""
"629.3349999999627","","","categorize-html","162","519529","0.0-162.0","tr82nfna","","Which video showed <span style=""font-size:30px"">Sandy's</span> attention?","49","","","","","false"
"null","","","html-keyboard-response","163","520035","0.0-163.0","tr82nfna",""," ","null","","","","",""
"","","","call-function","164","520035","0.0-164.0","tr82nfna","","","","","","","",""
"null","","","html-keyboard-response","165","521538","0.0-165.0","tr82nfna","","<span style=""color:Black; font-size:50px;"">Video 1</span>","null","","","","",""
"null","","","video-keyboard-response","166","524648","0.0-166.0","tr82nfna","","","null","","<span style=""color:Black; font-size:50px;"">Sandy","Sandy","STIM_SET_3/1592857.bmp_pp63_L1_V1_veridical_freeview_isoFalse_fps144.mp4",""
"null","","","html-keyboard-response","167","526154","0.0-167.0","tr82nfna","","<span style=""color:Black; font-size:50px;"">Video 2</span>","null","","","","",""
"null","","","video-keyboard-response","168","529246","0.0-168.0","tr82nfna","","","null","","<span style=""color:Black; font-size:50px;"">Casey","Casey","STIM_SET_3/1592857.bmp_pp52_L1_V1_veridical_freeview_isoFalse_fps144.mp4",""
"","","","call-function","169","529246","0.0-169.0","tr82nfna","","","","","","","",""
"622.6799999999348","","","categorize-html","170","531876","0.0-170.0","tr82nfna","","Which video showed <span style=""font-size:30px"">Sandy's</span> attention?","50","","","","","false"
"null","","","html-keyboard-response","171","532377","0.0-171.0","tr82nfna",""," ","null","","","","",""
"33978.69000000006","","","instructions","172","566357","0.0-172.0","tr82nfna","[{""page_index"":0,""viewing_time"":32267.5},{""page_index"":1,""viewing_time"":982.0250000000233},{""page_index"":2,""viewing_time"":729.0450000000419}]","","","","","","",""
"2461.5250000000233","","","instructions","173","568818","0.0-173.0","tr82nfna","[{""page_index"":0,""viewing_time"":776.2950000000419},{""page_index"":1,""viewing_time"":1069.2249999999767},{""page_index"":2,""viewing_time"":615.890000000014}]","","","","","","",""
"","","","call-function","174","568819","0.0-174.0","tr82nfna","","","","","","","",""
"null","","","html-keyboard-response","175","570324","0.0-175.0","tr82nfna","","<span style=""color:Black; font-size:50px;"">Video 1</span>","null","","","","",""
"null","","","video-keyboard-response","176","573385","0.0-176.0","tr82nfna","","","null","","<span style=""color:Black; font-size:50px;"">Sandy","Sandy","STIM_SET_3/1159606.bmp_pp63_L1_V1_veridical_freeview_isoFalse_fps144.mp4",""
"null","","","html-keyboard-response","177","574889","0.0-177.0","tr82nfna","","<span style=""color:Black; font-size:50px;"">Video 2</span>","null","","","","",""
"null","","","video-keyboard-response","178","577965","0.0-178.0","tr82nfna","","","null","","<span style=""color:Black; font-size:50px;"">Casey","Casey","STIM_SET_3/1159606.bmp_pp52_L1_V1_veridical_freeview_isoFalse_fps144.mp4",""
"","","","call-function","179","577965","0.0-179.0","tr82nfna","","","","","","","",""
"735.7950000000419","","","categorize-html","180","580704","0.0-180.0","tr82nfna","","Which video showed <span style=""font-size:30px"">Sandy's</span> attention?","49","","","","","true"
"null","","","html-keyboard-response","181","581207","0.0-181.0","tr82nfna",""," ","null","","","","",""
"","","","call-function","182","581207","0.0-182.0","tr82nfna","","","","","","","",""
"null","","","html-keyboard-response","183","582708","0.0-183.0","tr82nfna","","<span style=""color:Black; font-size:50px;"">Video 1</span>","null","","","","",""
"null","","","video-keyboard-response","184","585770","0.0-184.0","tr82nfna","","","null","","<span style=""color:Black; font-size:50px;"">Casey","Casey","STIM_SET_3/713450.bmp_pp52_L1_V1_veridical_freeview_isoFalse_fps144.mp4",""
"null","","","html-keyboard-response","185","587276","0.0-185.0","tr82nfna","","<span style=""color:Black; font-size:50px;"">Video 2</span>","null","","","","",""
"null","","","video-keyboard-response","186","590354","0.0-186.0","tr82nfna","","","null","","<span style=""color:Black; font-size:50px;"">Sandy","Sandy","STIM_SET_3/713450.bmp_pp63_L1_V1_veridical_freeview_isoFalse_fps144.mp4",""
"","","","call-function","187","590354","0.0-187.0","tr82nfna","","","","","","","",""
"314.63000000000466","","","categorize-html","188","592672","0.0-188.0","tr82nfna","","Which video showed <span style=""font-size:30px"">Sandy's</span> attention?","50","","","","","true"
"null","","","html-keyboard-response","189","593175","0.0-189.0","tr82nfna",""," ","null","","","","",""
"","","","call-function","190","593176","0.0-190.0","tr82nfna","","","","","","","",""
"null","","","html-keyboard-response","191","594679","0.0-191.0","tr82nfna","","<span style=""color:Black; font-size:50px;"">Video 1</span>","null","","","","",""
"null","","","video-keyboard-response","192","597764","0.0-192.0","tr82nfna","","","null","","<span style=""color:Black; font-size:50px;"">Sandy","Sandy","STIM_SET_3/1592286.bmp_pp63_L1_V1_veridical_freeview_isoFalse_fps144.mp4",""
"null","","","html-keyboard-response","193","599270","0.0-193.0","tr82nfna","","<span style=""color:Black; font-size:50px;"">Video 2</span>","null","","","","",""
"null","","","video-keyboard-response","194","602365","0.0-194.0","tr82nfna","","","null","","<span style=""color:Black; font-size:50px;"">Casey","Casey","STIM_SET_3/1592286.bmp_pp52_L1_V1_veridical_freeview_isoFalse_fps144.mp4",""
"","","","call-function","195","602365","0.0-195.0","tr82nfna","","","","","","","",""
"751.4899999999907","","","categorize-html","196","605124","0.0-196.0","tr82nfna","","Which video showed <span style=""font-size:30px"">Sandy's</span> attention?","49","","","","","true"
"null","","","html-keyboard-response","197","605628","0.0-197.0","tr82nfna",""," ","null","","","","",""
"","","","call-function","198","605628","0.0-198.0","tr82nfna","","","","","","","",""
"null","","","html-keyboard-response","199","607131","0.0-199.0","tr82nfna","","<span style=""color:Black; font-size:50px;"">Video 1</span>","null","","","","",""
"null","","","video-keyboard-response","200","610227","0.0-200.0","tr82nfna","","","null","","<span style=""color:Black; font-size:50px;"">Sandy","Sandy","STIM_SET_3/1592568.bmp_pp63_L1_V1_veridical_freeview_isoFalse_fps144.mp4",""
"null","","","html-keyboard-response","201","611732","0.0-201.0","tr82nfna","","<span style=""color:Black; font-size:50px;"">Video 2</span>","null","","","","",""
"null","","","video-keyboard-response","202","614838","0.0-202.0","tr82nfna","","","null","","<span style=""color:Black; font-size:50px;"">Casey","Casey","STIM_SET_3/1592568.bmp_pp52_L1_V1_veridical_freeview_isoFalse_fps144.mp4",""
"","","","call-function","203","614838","0.0-203.0","tr82nfna","","","","","","","",""
"806.375","","","categorize-html","204","617649","0.0-204.0","tr82nfna","","Which video showed <span style=""font-size:30px"">Sandy's</span> attention?","49","","","","","true"
"null","","","html-keyboard-response","205","618151","0.0-205.0","tr82nfna",""," ","null","","","","",""
"","","","call-function","206","618151","0.0-206.0","tr82nfna","","","","","","","",""
"null","","","html-keyboard-response","207","619653","0.0-207.0","tr82nfna","","<span style=""color:Black; font-size:50px;"">Video 1</span>","null","","","","",""
"null","","","video-keyboard-response","208","622753","0.0-208.0","tr82nfna","","","null","","<span style=""color:Black; font-size:50px;"">Casey","Casey","STIM_SET_3/1159486.bmp_pp52_L1_V1_veridical_freeview_isoFalse_fps144.mp4",""
"null","","","html-keyboard-response","209","624255","0.0-209.0","tr82nfna","","<span style=""color:Black; font-size:50px;"">Video 2</span>","null","","","","",""
"null","","","video-keyboard-response","210","627365","0.0-210.0","tr82nfna","","","null","","<span style=""color:Black; font-size:50px;"">Sandy","Sandy","STIM_SET_3/1159486.bmp_pp63_L1_V1_veridical_freeview_isoFalse_fps144.mp4",""
"","","","call-function","211","627366","0.0-211.0","tr82nfna","","","","","","","",""
"655.1500000000233","","","categorize-html","212","630025","0.0-212.0","tr82nfna","","Which video showed <span style=""font-size:30px"">Sandy's</span> attention?","49","","","","","false"
"null","","","html-keyboard-response","213","630529","0.0-213.0","tr82nfna",""," ","null","","","","",""
"","","","call-function","214","630529","0.0-214.0","tr82nfna","","","","","","","",""
"null","","","html-keyboard-response","215","632032","0.0-215.0","tr82nfna","","<span style=""color:Black; font-size:50px;"">Video 1</span>","null","","","","",""
"null","","","video-keyboard-response","216","635123","0.0-216.0","tr82nfna","","","null","","<span style=""color:Black; font-size:50px;"">Casey","Casey","STIM_SET_3/713652.bmp_pp52_L1_V1_veridical_freeview_isoFalse_fps144.mp4",""
"null","","","html-keyboard-response","217","636629","0.0-217.0","tr82nfna","","<span style=""color:Black; font-size:50px;"">Video 2</span>","null","","","","",""
"null","","","video-keyboard-response","218","639710","0.0-218.0","tr82nfna","","","null","","<span style=""color:Black; font-size:50px;"">Sandy","Sandy","STIM_SET_3/713652.bmp_pp63_L1_V1_veridical_freeview_isoFalse_fps144.mp4",""
"","","","call-function","219","639710","0.0-219.0","tr82nfna","","","","","","","",""
"734.4599999999627","","","categorize-html","220","642451","0.0-220.0","tr82nfna","","Which video showed <span style=""font-size:30px"">Sandy's</span> attention?","49","","","","","false"
"null","","","html-keyboard-response","221","642957","0.0-221.0","tr82nfna",""," ","null","","","","",""
"","","","call-function","222","642958","0.0-222.0","tr82nfna","","","","","","","",""
"null","","","html-keyboard-response","223","644459","0.0-223.0","tr82nfna","","<span style=""color:Black; font-size:50px;"">Video 1</span>","null","","","","",""
"null","","","video-keyboard-response","224","647538","0.0-224.0","tr82nfna","","","null","","<span style=""color:Black; font-size:50px;"">Casey","Casey","STIM_SET_3/107933.bmp_pp52_L1_V1_veridical_freeview_isoFalse_fps144.mp4",""
"null","","","html-keyboard-response","225","649043","0.0-225.0","tr82nfna","","<span style=""color:Black; font-size:50px;"">Video 2</span>","null","","","","",""
"null","","","video-keyboard-response","226","652119","0.0-226.0","tr82nfna","","","null","","<span style=""color:Black; font-size:50px;"">Sandy","Sandy","STIM_SET_3/107933.bmp_pp63_L1_V1_veridical_freeview_isoFalse_fps144.mp4",""
"","","","call-function","227","652120","0.0-227.0","tr82nfna","","","","","","","",""
"525.265000000014","","","categorize-html","228","654649","0.0-228.0","tr82nfna","","Which video showed <span style=""font-size:30px"">Sandy's</span> attention?","49","","","","","false"
"null","","","html-keyboard-response","229","655155","0.0-229.0","tr82nfna",""," ","null","","","","",""
"","","","call-function","230","655156","0.0-230.0","tr82nfna","","","","","","","",""
"null","","","html-keyboard-response","231","656662","0.0-231.0","tr82nfna","","<span style=""color:Black; font-size:50px;"">Video 1</span>","null","","","","",""
"null","","","video-keyboard-response","232","659729","0.0-232.0","tr82nfna","","","null","","<span style=""color:Black; font-size:50px;"">Casey","Casey","STIM_SET_3/713786.bmp_pp52_L1_V1_veridical_freeview_isoFalse_fps144.mp4",""
"null","","","html-keyboard-response","233","661232","0.0-233.0","tr82nfna","","<span style=""color:Black; font-size:50px;"">Video 2</span>","null","","","","",""
"null","","","video-keyboard-response","234","664336","0.0-234.0","tr82nfna","","","null","","<span style=""color:Black; font-size:50px;"">Sandy","Sandy","STIM_SET_3/713786.bmp_pp63_L1_V1_veridical_freeview_isoFalse_fps144.mp4",""
"","","","call-function","235","664336","0.0-235.0","tr82nfna","","","","","","","",""
"812.9549999999581","","","categorize-html","236","667152","0.0-236.0","tr82nfna","","Which video showed <span style=""font-size:30px"">Sandy's</span> attention?","50","","","","","true"
"null","","","html-keyboard-response","237","667655","0.0-237.0","tr82nfna",""," ","null","","","","",""
"","","","call-function","238","667656","0.0-238.0","tr82nfna","","","","","","","",""
"null","","","html-keyboard-response","239","669157","0.0-239.0","tr82nfna","","<span style=""color:Black; font-size:50px;"">Video 1</span>","null","","","","",""
"null","","","video-keyboard-response","240","672249","0.0-240.0","tr82nfna","","","null","","<span style=""color:Black; font-size:50px;"">Sandy","Sandy","STIM_SET_3/712977.bmp_pp63_L1_V1_veridical_freeview_isoFalse_fps144.mp4",""
"null","","","html-keyboard-response","241","673752","0.0-241.0","tr82nfna","","<span style=""color:Black; font-size:50px;"">Video 2</span>","null","","","","",""
"null","","","video-keyboard-response","242","676845","0.0-242.0","tr82nfna","","","null","","<span style=""color:Black; font-size:50px;"">Casey","Casey","STIM_SET_3/712977.bmp_pp52_L1_V1_veridical_freeview_isoFalse_fps144.mp4",""
"","","","call-function","243","676845","0.0-243.0","tr82nfna","","","","","","","",""
"903.7399999999907","","","categorize-html","244","679751","0.0-244.0","tr82nfna","","Which video showed <span style=""font-size:30px"">Sandy's</span> attention?","49","","","","","true"
"null","","","html-keyboard-response","245","680255","0.0-245.0","tr82nfna",""," ","null","","","","",""
"","","","call-function","246","680256","0.0-246.0","tr82nfna","","","","","","","",""
"null","","","html-keyboard-response","247","681759","0.0-247.0","tr82nfna","","<span style=""color:Black; font-size:50px;"">Video 1</span>","null","","","","",""
"null","","","video-keyboard-response","248","684861","0.0-248.0","tr82nfna","","","null","","<span style=""color:Black; font-size:50px;"">Sandy","Sandy","STIM_SET_3/1159768.bmp_pp63_L1_V1_veridical_freeview_isoFalse_fps144.mp4",""
"null","","","html-keyboard-response","249","686363","0.0-249.0","tr82nfna","","<span style=""color:Black; font-size:50px;"">Video 2</span>","null","","","","",""
"null","","","video-keyboard-response","250","689479","0.0-250.0","tr82nfna","","","null","","<span style=""color:Black; font-size:50px;"">Casey","Casey","STIM_SET_3/1159768.bmp_pp52_L1_V1_veridical_freeview_isoFalse_fps144.mp4",""
"","","","call-function","251","689479","0.0-251.0","tr82nfna","","","","","","","",""
"901.9499999999534","","","categorize-html","252","692383","0.0-252.0","tr82nfna","","Which video showed <span style=""font-size:30px"">Sandy's</span> attention?","49","","","","","true"
"null","","","html-keyboard-response","253","692888","0.0-253.0","tr82nfna",""," ","null","","","","",""
"19740.224999999977","","","instructions","254","712628","0.0-254.0","tr82nfna","[{""page_index"":0,""viewing_time"":8915.675000000047},{""page_index"":1,""viewing_time"":10140.929999999935},{""page_index"":2,""viewing_time"":683.5050000000047}]","","","","","","",""
"2553.164999999921","","","instructions","255","715182","0.0-255.0","tr82nfna","[{""page_index"":0,""viewing_time"":793.1399999998976},{""page_index"":1,""viewing_time"":1104.9300000000512},{""page_index"":2,""viewing_time"":654.984999999986}]","","","","","","",""
"","","","call-function","256","715182","0.0-256.0","tr82nfna","","","","","","","",""
"null","","","html-keyboard-response","257","716687","0.0-257.0","tr82nfna","","<span style=""color:Black; font-size:50px;"">Video 1</span>","null","","","","",""
"null","","","video-keyboard-response","258","719762","0.0-258.0","tr82nfna","","","null","","<span style=""color:Black; font-size:50px;"">Sandy","Sandy","STIM_SET_3/285933.bmp_pp63_L1_V1_veridical_freeview_isoFalse_fps144.mp4",""
"null","","","html-keyboard-response","259","721264","0.0-259.0","tr82nfna","","<span style=""color:Black; font-size:50px;"">Video 2</span>","null","","","","",""
"null","","","video-keyboard-response","260","724337","0.0-260.0","tr82nfna","","","null","","<span style=""color:Black; font-size:50px;"">Casey","Casey","STIM_SET_3/285933.bmp_pp52_L1_V1_veridical_freeview_isoFalse_fps144.mp4",""
"","","","call-function","261","724338","0.0-261.0","tr82nfna","","","","","","","",""
"699.1650000000373","","","categorize-html","262","727041","0.0-262.0","tr82nfna","","Which video showed <span style=""font-size:30px"">Sandy's</span> attention?","50","","","","","false"
"null","","","html-keyboard-response","263","727546","0.0-263.0","tr82nfna",""," ","null","","","","",""
"","","","call-function","264","727546","0.0-264.0","tr82nfna","","","","","","","",""
"null","","","html-keyboard-response","265","729048","0.0-265.0","tr82nfna","","<span style=""color:Black; font-size:50px;"">Video 1</span>","null","","","","",""
"null","","","video-keyboard-response","266","732109","0.0-266.0","tr82nfna","","","null","","<span style=""color:Black; font-size:50px;"">Sandy","Sandy","STIM_SET_3/1591909.bmp_pp63_L1_V1_veridical_freeview_isoFalse_fps144.mp4",""
"null","","","html-keyboard-response","267","733614","0.0-267.0","tr82nfna","","<span style=""color:Black; font-size:50px;"">Video 2</span>","null","","","","",""
"null","","","video-keyboard-response","268","736690","0.0-268.0","tr82nfna","","","null","","<span style=""color:Black; font-size:50px;"">Casey","Casey","STIM_SET_3/1591909.bmp_pp52_L1_V1_veridical_freeview_isoFalse_fps144.mp4",""
"","","","call-function","269","736690","0.0-269.0","tr82nfna","","","","","","","",""
"962.9100000000326","","","categorize-html","270","739659","0.0-270.0","tr82nfna","","Which video showed <span style=""font-size:30px"">Sandy's</span> attention?","50","","","","","false"
"null","","","html-keyboard-response","271","740161","0.0-271.0","tr82nfna",""," ","null","","","","",""
"","","","call-function","272","740161","0.0-272.0","tr82nfna","","","","","","","",""
"null","","","html-keyboard-response","273","741664","0.0-273.0","tr82nfna","","<span style=""color:Black; font-size:50px;"">Video 1</span>","null","","","","",""
"null","","","video-keyboard-response","274","744762","0.0-274.0","tr82nfna","","","null","","<span style=""color:Black; font-size:50px;"">Casey","Casey","STIM_SET_3/1159365.bmp_pp52_L1_V1_veridical_freeview_isoFalse_fps144.mp4",""
"null","","","html-keyboard-response","275","746265","0.0-275.0","tr82nfna","","<span style=""color:Black; font-size:50px;"">Video 2</span>","null","","","","",""
"null","","","video-keyboard-response","276","749366","0.0-276.0","tr82nfna","","","null","","<span style=""color:Black; font-size:50px;"">Sandy","Sandy","STIM_SET_3/1159365.bmp_pp63_L1_V1_veridical_freeview_isoFalse_fps144.mp4",""
"","","","call-function","277","749366","0.0-277.0","tr82nfna","","","","","","","",""
"750.7850000000326","","","categorize-html","278","752120","0.0-278.0","tr82nfna","","Which video showed <span style=""font-size:30px"">Sandy's</span> attention?","49","","","","","false"
"null","","","html-keyboard-response","279","752623","0.0-279.0","tr82nfna",""," ","null","","","","",""
"","","","call-function","280","752624","0.0-280.0","tr82nfna","","","","","","","",""
"null","","","html-keyboard-response","281","754129","0.0-281.0","tr82nfna","","<span style=""color:Black; font-size:50px;"">Video 1</span>","null","","","","",""
"null","","","video-keyboard-response","282","757234","0.0-282.0","tr82nfna","","","null","","<span style=""color:Black; font-size:50px;"">Sandy","Sandy","STIM_SET_3/713770.bmp_pp63_L1_V1_veridical_freeview_isoFalse_fps144.mp4",""
"null","","","html-keyboard-response","283","758736","0.0-283.0","tr82nfna","","<span style=""color:Black; font-size:50px;"">Video 2</span>","null","","","","",""
"null","","","video-keyboard-response","284","761830","0.0-284.0","tr82nfna","","","null","","<span style=""color:Black; font-size:50px;"">Casey","Casey","STIM_SET_3/713770.bmp_pp52_L1_V1_veridical_freeview_isoFalse_fps144.mp4",""
"","","","call-function","285","761830","0.0-285.0","tr82nfna","","","","","","","",""
"2326.920000000042","","","categorize-html","286","766161","0.0-286.0","tr82nfna","","Which video showed <span style=""font-size:30px"">Sandy's</span> attention?","49","","","","","true"
"null","","","html-keyboard-response","287","766664","0.0-287.0","tr82nfna",""," ","null","","","","",""
"","","","call-function","288","766665","0.0-288.0","tr82nfna","","","","","","","",""
"null","","","html-keyboard-response","289","768168","0.0-289.0","tr82nfna","","<span style=""color:Black; font-size:50px;"">Video 1</span>","null","","","","",""
"null","","","video-keyboard-response","290","771254","0.0-290.0","tr82nfna","","","null","","<span style=""color:Black; font-size:50px;"">Casey","Casey","STIM_SET_3/713760.bmp_pp52_L1_V1_veridical_freeview_isoFalse_fps144.mp4",""
"null","","","html-keyboard-response","291","772757","0.0-291.0","tr82nfna","","<span style=""color:Black; font-size:50px;"">Video 2</span>","null","","","","",""
"null","","","video-keyboard-response","292","775844","0.0-292.0","tr82nfna","","","null","","<span style=""color:Black; font-size:50px;"">Sandy","Sandy","STIM_SET_3/713760.bmp_pp63_L1_V1_veridical_freeview_isoFalse_fps144.mp4",""
"","","","call-function","293","775844","0.0-293.0","tr82nfna","","","","","","","",""
"752.5850000000792","","","categorize-html","294","778601","0.0-294.0","tr82nfna","","Which video showed <span style=""font-size:30px"">Sandy's</span> attention?","50","","","","","true"
"null","","","html-keyboard-response","295","779107","0.0-295.0","tr82nfna",""," ","null","","","","",""
"","","","call-function","296","779107","0.0-296.0","tr82nfna","","","","","","","",""
"null","","","html-keyboard-response","297","780609","0.0-297.0","tr82nfna","","<span style=""color:Black; font-size:50px;"">Video 1</span>","null","","","","",""
"null","","","video-keyboard-response","298","783670","0.0-298.0","tr82nfna","","","null","","<span style=""color:Black; font-size:50px;"">Casey","Casey","STIM_SET_3/713174.bmp_pp52_L1_V1_veridical_freeview_isoFalse_fps144.mp4",""
"null","","","html-keyboard-response","299","785176","0.0-299.0","tr82nfna","","<span style=""color:Black; font-size:50px;"">Video 2</span>","null","","","","",""
"null","","","video-keyboard-response","300","788254","0.0-300.0","tr82nfna","","","null","","<span style=""color:Black; font-size:50px;"">Sandy","Sandy","STIM_SET_3/713174.bmp_pp63_L1_V1_veridical_freeview_isoFalse_fps144.mp4",""
"","","","call-function","301","788254","0.0-301.0","tr82nfna","","","","","","","",""
"2087.0849999999627","","","categorize-html","302","792343","0.0-302.0","tr82nfna","","Which video showed <span style=""font-size:30px"">Sandy's</span> attention?","50","","","","","true"
"null","","","html-keyboard-response","303","792845","0.0-303.0","tr82nfna",""," ","null","","","","",""
"","","","call-function","304","792846","0.0-304.0","tr82nfna","","","","","","","",""
"null","","","html-keyboard-response","305","794349","0.0-305.0","tr82nfna","","<span style=""color:Black; font-size:50px;"">Video 1</span>","null","","","","",""
"null","","","video-keyboard-response","306","797416","0.0-306.0","tr82nfna","","","null","","<span style=""color:Black; font-size:50px;"">Casey","Casey","STIM_SET_3/713418.bmp_pp52_L1_V1_veridical_freeview_isoFalse_fps144.mp4",""
"null","","","html-keyboard-response","307","798920","0.0-307.0","tr82nfna","","<span style=""color:Black; font-size:50px;"">Video 2</span>","null","","","","",""
"null","","","video-keyboard-response","308","802004","0.0-308.0","tr82nfna","","","null","","<span style=""color:Black; font-size:50px;"">Sandy","Sandy","STIM_SET_3/713418.bmp_pp63_L1_V1_veridical_freeview_isoFalse_fps144.mp4",""
"","","","call-function","309","802005","0.0-309.0","tr82nfna","","","","","","","",""
"2000.2550000000047","","","categorize-html","310","806009","0.0-310.0","tr82nfna","","Which video showed <span style=""font-size:30px"">Sandy's</span> attention?","50","","","","","true"
"null","","","html-keyboard-response","311","806515","0.0-311.0","tr82nfna",""," ","null","","","","",""
"","","","call-function","312","806516","0.0-312.0","tr82nfna","","","","","","","",""
"null","","","html-keyboard-response","313","808019","0.0-313.0","tr82nfna","","<span style=""color:Black; font-size:50px;"">Video 1</span>","null","","","","",""
"null","","","video-keyboard-response","314","811108","0.0-314.0","tr82nfna","","","null","","<span style=""color:Black; font-size:50px;"">Casey","Casey","STIM_SET_3/713769.bmp_pp52_L1_V1_veridical_freeview_isoFalse_fps144.mp4",""
"null","","","html-keyboard-response","315","812613","0.0-315.0","tr82nfna","","<span style=""color:Black; font-size:50px;"">Video 2</span>","null","","","","",""
"null","","","video-keyboard-response","316","815715","0.0-316.0","tr82nfna","","","null","","<span style=""color:Black; font-size:50px;"">Sandy","Sandy","STIM_SET_3/713769.bmp_pp63_L1_V1_veridical_freeview_isoFalse_fps144.mp4",""
"","","","call-function","317","815716","0.0-317.0","tr82nfna","","","","","","","",""
"1225.3349999999627","","","categorize-html","318","818946","0.0-318.0","tr82nfna","","Which video showed <span style=""font-size:30px"">Sandy's</span> attention?","50","","","","","true"
"null","","","html-keyboard-response","319","819451","0.0-319.0","tr82nfna",""," ","null","","","","",""
"","","","call-function","320","819452","0.0-320.0","tr82nfna","","","","","","","",""
"null","","","html-keyboard-response","321","820955","0.0-321.0","tr82nfna","","<span style=""color:Black; font-size:50px;"">Video 1</span>","null","","","","",""
"null","","","video-keyboard-response","322","824045","0.0-322.0","tr82nfna","","","null","","<span style=""color:Black; font-size:50px;"">Casey","Casey","STIM_SET_3/1159508.bmp_pp52_L1_V1_veridical_freeview_isoFalse_fps144.mp4",""
"null","","","html-keyboard-response","323","825550","0.0-323.0","tr82nfna","","<span style=""color:Black; font-size:50px;"">Video 2</span>","null","","","","",""
"null","","","video-keyboard-response","324","828646","0.0-324.0","tr82nfna","","","null","","<span style=""color:Black; font-size:50px;"">Sandy","Sandy","STIM_SET_3/1159508.bmp_pp63_L1_V1_veridical_freeview_isoFalse_fps144.mp4",""
"","","","call-function","325","828646","0.0-325.0","tr82nfna","","","","","","","",""
"718.625","","","categorize-html","326","831369","0.0-326.0","tr82nfna","","Which video showed <span style=""font-size:30px"">Sandy's</span> attention?","49","","","","","false"
"null","","","html-keyboard-response","327","831872","0.0-327.0","tr82nfna",""," ","null","","","","",""
"","","","call-function","328","831872","0.0-328.0","tr82nfna","","","","","","","",""
"null","","","html-keyboard-response","329","833376","0.0-329.0","tr82nfna","","<span style=""color:Black; font-size:50px;"">Video 1</span>","null","","","","",""
"null","","","video-keyboard-response","330","836492","0.0-330.0","tr82nfna","","","null","","<span style=""color:Black; font-size:50px;"">Casey","Casey","STIM_SET_3/1593047.bmp_pp52_L1_V1_veridical_freeview_isoFalse_fps144.mp4",""
"null","","","html-keyboard-response","331","837994","0.0-331.0","tr82nfna","","<span style=""color:Black; font-size:50px;"">Video 2</span>","null","","","","",""
"null","","","video-keyboard-response","332","841106","0.0-332.0","tr82nfna","","","null","","<span style=""color:Black; font-size:50px;"">Sandy","Sandy","STIM_SET_3/1593047.bmp_pp63_L1_V1_veridical_freeview_isoFalse_fps144.mp4",""
"","","","call-function","333","841107","0.0-333.0","tr82nfna","","","","","","","",""
"2674.8150000000605","","","categorize-html","334","845785","0.0-334.0","tr82nfna","","Which video showed <span style=""font-size:30px"">Sandy's</span> attention?","49","","","","","false"
"null","","","html-keyboard-response","335","846292","0.0-335.0","tr82nfna",""," ","null","","","","",""
"224563.56999999995","","","instructions","336","1070856","0.0-336.0","tr82nfna","[{""page_index"":0,""viewing_time"":3815.689999999944},{""page_index"":1,""viewing_time"":219763.87},{""page_index"":2,""viewing_time"":983.875}]","","","","","","",""
"7068.770000000019","","","instructions","337","1077925","0.0-337.0","tr82nfna","[{""page_index"":0,""viewing_time"":669.8500000000931},{""page_index"":1,""viewing_time"":5898.899999999907},{""page_index"":2,""viewing_time"":499.90500000002794}]","","","","","","",""
"","","","call-function","338","1077926","0.0-338.0","tr82nfna","","","","","","","",""
"null","","","html-keyboard-response","339","1079432","0.0-339.0","tr82nfna","","<span style=""color:Black; font-size:50px;"">Video 1</span>","null","","","","",""
"null","","","video-keyboard-response","340","1082507","0.0-340.0","tr82nfna","","","null","","<span style=""color:Black; font-size:50px;"">Casey","Casey","STIM_SET_3/1159973.bmp_pp52_L1_V1_veridical_freeview_isoFalse_fps144.mp4",""
"null","","","html-keyboard-response","341","1084009","0.0-341.0","tr82nfna","","<span style=""color:Black; font-size:50px;"">Video 2</span>","null","","","","",""
"null","","","video-keyboard-response","342","1087078","0.0-342.0","tr82nfna","","","null","","<span style=""color:Black; font-size:50px;"">Sandy","Sandy","STIM_SET_3/1159973.bmp_pp63_L1_V1_veridical_freeview_isoFalse_fps144.mp4",""
"","","","call-function","343","1087079","0.0-343.0","tr82nfna","","","","","","","",""
"2702.8649999999907","","","categorize-html","344","1091785","0.0-344.0","tr82nfna","","Which video showed <span style=""font-size:30px"">Sandy's</span> attention?","49","","","","","false"
"null","","","html-keyboard-response","345","1092287","0.0-345.0","tr82nfna",""," ","null","","","","",""
"","","","call-function","346","1092287","0.0-346.0","tr82nfna","","","","","","","",""
"null","","","html-keyboard-response","347","1093793","0.0-347.0","tr82nfna","","<span style=""color:Black; font-size:50px;"">Video 1</span>","null","","","","",""
"null","","","video-keyboard-response","348","1096859","0.0-348.0","tr82nfna","","","null","","<span style=""color:Black; font-size:50px;"">Casey","Casey","STIM_SET_3/1592233.bmp_pp52_L1_V1_veridical_freeview_isoFalse_fps144.mp4",""
"null","","","html-keyboard-response","349","1098363","0.0-349.0","tr82nfna","","<span style=""color:Black; font-size:50px;"">Video 2</span>","null","","","","",""
"null","","","video-keyboard-response","350","1101437","0.0-350.0","tr82nfna","","","null","","<span style=""color:Black; font-size:50px;"">Sandy","Sandy","STIM_SET_3/1592233.bmp_pp63_L1_V1_veridical_freeview_isoFalse_fps144.mp4",""
"","","","call-function","351","1101437","0.0-351.0","tr82nfna","","","","","","","",""
"1176.125","","","categorize-html","352","1104616","0.0-352.0","tr82nfna","","Which video showed <span style=""font-size:30px"">Sandy's</span> attention?","49","","","","","false"
"null","","","html-keyboard-response","353","1105119","0.0-353.0","tr82nfna",""," ","null","","","","",""
"","","","call-function","354","1105120","0.0-354.0","tr82nfna","","","","","","","",""
"null","","","html-keyboard-response","355","1106622","0.0-355.0","tr82nfna","","<span style=""color:Black; font-size:50px;"">Video 1</span>","null","","","","",""
"null","","","video-keyboard-response","356","1109715","0.0-356.0","tr82nfna","","","null","","<span style=""color:Black; font-size:50px;"">Sandy","Sandy","STIM_SET_3/498025.bmp_pp63_L1_V1_veridical_freeview_isoFalse_fps144.mp4",""
"null","","","html-keyboard-response","357","1111216","0.0-357.0","tr82nfna","","<span style=""color:Black; font-size:50px;"">Video 2</span>","null","","","","",""
"null","","","video-keyboard-response","358","1114316","0.0-358.0","tr82nfna","","","null","","<span style=""color:Black; font-size:50px;"">Casey","Casey","STIM_SET_3/498025.bmp_pp52_L1_V1_veridical_freeview_isoFalse_fps144.mp4",""
"","","","call-function","359","1114316","0.0-359.0","tr82nfna","","","","","","","",""
"953.3850000000093","","","categorize-html","360","1117275","0.0-360.0","tr82nfna","","Which video showed <span style=""font-size:30px"">Sandy's</span> attention?","50","","","","","false"
"null","","","html-keyboard-response","361","1117775","0.0-361.0","tr82nfna",""," ","null","","","","",""
"","","","call-function","362","1117775","0.0-362.0","tr82nfna","","","","","","","",""
"null","","","html-keyboard-response","363","1119278","0.0-363.0","tr82nfna","","<span style=""color:Black; font-size:50px;"">Video 1</span>","null","","","","",""
"null","","","video-keyboard-response","364","1122389","0.0-364.0","tr82nfna","","","null","","<span style=""color:Black; font-size:50px;"">Casey","Casey","STIM_SET_3/713888.bmp_pp52_L1_V1_veridical_freeview_isoFalse_fps144.mp4",""
"null","","","html-keyboard-response","365","1123893","0.0-365.0","tr82nfna","","<span style=""color:Black; font-size:50px;"">Video 2</span>","null","","","","",""
"null","","","video-keyboard-response","366","1126989","0.0-366.0","tr82nfna","","","null","","<span style=""color:Black; font-size:50px;"">Sandy","Sandy","STIM_SET_3/713888.bmp_pp63_L1_V1_veridical_freeview_isoFalse_fps144.mp4",""
"","","","call-function","367","1126989","0.0-367.0","tr82nfna","","","","","","","",""
"752.6200000001118","","","categorize-html","368","1129744","0.0-368.0","tr82nfna","","Which video showed <span style=""font-size:30px"">Sandy's</span> attention?","50","","","","","true"
"null","","","html-keyboard-response","369","1130250","0.0-369.0","tr82nfna",""," ","null","","","","",""
"","","","call-function","370","1130250","0.0-370.0","tr82nfna","","","","","","","",""
"null","","","html-keyboard-response","371","1131757","0.0-371.0","tr82nfna","","<span style=""color:Black; font-size:50px;"">Video 1</span>","null","","","","",""
"null","","","video-keyboard-response","372","1134853","0.0-372.0","tr82nfna","","","null","","<span style=""color:Black; font-size:50px;"">Sandy","Sandy","STIM_SET_3/1160140.bmp_pp63_L1_V1_veridical_freeview_isoFalse_fps144.mp4",""
"null","","","html-keyboard-response","373","1136360","0.0-373.0","tr82nfna","","<span style=""color:Black; font-size:50px;"">Video 2</span>","null","","","","",""
"null","","","video-keyboard-response","374","1139457","0.0-374.0","tr82nfna","","","null","","<span style=""color:Black; font-size:50px;"">Casey","Casey","STIM_SET_3/1160140.bmp_pp52_L1_V1_veridical_freeview_isoFalse_fps144.mp4",""
"","","","call-function","375","1139457","0.0-375.0","tr82nfna","","","","","","","",""
"940.5050000001211","","","categorize-html","376","1142402","0.0-376.0","tr82nfna","","Which video showed <span style=""font-size:30px"">Sandy's</span> attention?","49","","","","","true"
"null","","","html-keyboard-response","377","1142908","0.0-377.0","tr82nfna",""," ","null","","","","",""
"","","","call-function","378","1142909","0.0-378.0","tr82nfna","","","","","","","",""
"null","","","html-keyboard-response","379","1144415","0.0-379.0","tr82nfna","","<span style=""color:Black; font-size:50px;"">Video 1</span>","null","","","","",""
"null","","","video-keyboard-response","380","1147490","0.0-380.0","tr82nfna","","","null","","<span style=""color:Black; font-size:50px;"">Sandy","Sandy","STIM_SET_3/713024.bmp_pp63_L1_V1_veridical_freeview_isoFalse_fps144.mp4",""
"null","","","html-keyboard-response","381","1148992","0.0-381.0","tr82nfna","","<span style=""color:Black; font-size:50px;"">Video 2</span>","null","","","","",""
"null","","","video-keyboard-response","382","1152052","0.0-382.0","tr82nfna","","","null","","<span style=""color:Black; font-size:50px;"">Casey","Casey","STIM_SET_3/713024.bmp_pp52_L1_V1_veridical_freeview_isoFalse_fps144.mp4",""
"","","","call-function","383","1152052","0.0-383.0","tr82nfna","","","","","","","",""
"2377.780000000028","","","categorize-html","384","1156434","0.0-384.0","tr82nfna","","Which video showed <span style=""font-size:30px"">Sandy's</span> attention?","49","","","","","true"
"null","","","html-keyboard-response","385","1156936","0.0-385.0","tr82nfna",""," ","null","","","","",""
"","","","call-function","386","1156936","0.0-386.0","tr82nfna","","","","","","","",""
"null","","","html-keyboard-response","387","1158443","0.0-387.0","tr82nfna","","<span style=""color:Black; font-size:50px;"">Video 1</span>","null","","","","",""
"null","","","video-keyboard-response","388","1161518","0.0-388.0","tr82nfna","","","null","","<span style=""color:Black; font-size:50px;"">Sandy","Sandy","STIM_SET_3/1159463.bmp_pp63_L1_V1_veridical_freeview_isoFalse_fps144.mp4",""
"null","","","html-keyboard-response","389","1163019","0.0-389.0","tr82nfna","","<span style=""color:Black; font-size:50px;"">Video 2</span>","null","","","","",""
"null","","","video-keyboard-response","390","1166084","0.0-390.0","tr82nfna","","","null","","<span style=""color:Black; font-size:50px;"">Casey","Casey","STIM_SET_3/1159463.bmp_pp52_L1_V1_veridical_freeview_isoFalse_fps144.mp4",""
"","","","call-function","391","1166084","0.0-391.0","tr82nfna","","","","","","","",""
"769.8149999999441","","","categorize-html","392","1168859","0.0-392.0","tr82nfna","","Which video showed <span style=""font-size:30px"">Sandy's</span> attention?","50","","","","","false"
"null","","","html-keyboard-response","393","1169365","0.0-393.0","tr82nfna",""," ","null","","","","",""
"","","","call-function","394","1169366","0.0-394.0","tr82nfna","","","","","","","",""
"null","","","html-keyboard-response","395","1170871","0.0-395.0","tr82nfna","","<span style=""color:Black; font-size:50px;"">Video 1</span>","null","","","","",""
"null","","","video-keyboard-response","396","1173963","0.0-396.0","tr82nfna","","","null","","<span style=""color:Black; font-size:50px;"">Casey","Casey","STIM_SET_3/713330.bmp_pp52_L1_V1_veridical_freeview_isoFalse_fps144.mp4",""
"null","","","html-keyboard-response","397","1175467","0.0-397.0","tr82nfna","","<span style=""color:Black; font-size:50px;"">Video 2</span>","null","","","","",""
"null","","","video-keyboard-response","398","1178556","0.0-398.0","tr82nfna","","","null","","<span style=""color:Black; font-size:50px;"">Sandy","Sandy","STIM_SET_3/713330.bmp_pp63_L1_V1_veridical_freeview_isoFalse_fps144.mp4",""
"","","","call-function","399","1178557","0.0-399.0","tr82nfna","","","","","","","",""
"873.3900000001304","","","categorize-html","400","1181435","0.0-400.0","tr82nfna","","Which video showed <span style=""font-size:30px"">Sandy's</span> attention?","49","","","","","false"
"null","","","html-keyboard-response","401","1181942","0.0-401.0","tr82nfna",""," ","null","","","","",""
"","","","call-function","402","1181942","0.0-402.0","tr82nfna","","","","","","","",""
"null","","","html-keyboard-response","403","1183449","0.0-403.0","tr82nfna","","<span style=""color:Black; font-size:50px;"">Video 1</span>","null","","","","",""
"null","","","video-keyboard-response","404","1186545","0.0-404.0","tr82nfna","","","null","","<span style=""color:Black; font-size:50px;"">Casey","Casey","STIM_SET_3/150474.bmp_pp52_L1_V1_veridical_freeview_isoFalse_fps144.mp4",""
"null","","","html-keyboard-response","405","1188050","0.0-405.0","tr82nfna","","<span style=""color:Black; font-size:50px;"">Video 2</span>","null","","","","",""
"null","","","video-keyboard-response","406","1191149","0.0-406.0","tr82nfna","","","null","","<span style=""color:Black; font-size:50px;"">Sandy","Sandy","STIM_SET_3/150474.bmp_pp63_L1_V1_veridical_freeview_isoFalse_fps144.mp4",""
"","","","call-function","407","1191149","0.0-407.0","tr82nfna","","","","","","","",""
"9329.125","","","categorize-html","408","1202482","0.0-408.0","tr82nfna","","Which video showed <span style=""font-size:30px"">Sandy's</span> attention?","50","","","","","true"
"null","","","html-keyboard-response","409","1202989","0.0-409.0","tr82nfna",""," ","null","","","","",""
"","","","call-function","410","1202990","0.0-410.0","tr82nfna","","","","","","","",""
"null","","","html-keyboard-response","411","1204493","0.0-411.0","tr82nfna","","<span style=""color:Black; font-size:50px;"">Video 1</span>","null","","","","",""
"null","","","video-keyboard-response","412","1207588","0.0-412.0","tr82nfna","","","null","","<span style=""color:Black; font-size:50px;"">Sandy","Sandy","STIM_SET_3/498175.bmp_pp63_L1_V1_veridical_freeview_isoFalse_fps144.mp4",""
"null","","","html-keyboard-response","413","1209093","0.0-413.0","tr82nfna","","<span style=""color:Black; font-size:50px;"">Video 2</span>","null","","","","",""
"null","","","video-keyboard-response","414","1212196","0.0-414.0","tr82nfna","","","null","","<span style=""color:Black; font-size:50px;"">Casey","Casey","STIM_SET_3/498175.bmp_pp52_L1_V1_veridical_freeview_isoFalse_fps144.mp4",""
"","","","call-function","415","1212196","0.0-415.0","tr82nfna","","","","","","","",""
"793.7550000001211","","","categorize-html","416","1214995","0.0-416.0","tr82nfna","","Which video showed <span style=""font-size:30px"">Sandy's</span> attention?","50","","","","","false"
"null","","","html-keyboard-response","417","1215499","0.0-417.0","tr82nfna",""," ","null","","","","",""
"40106.685000000056","","","instructions","418","1255606","0.0-418.0","tr82nfna","[{""page_index"":0,""viewing_time"":32518.5},{""page_index"":1,""viewing_time"":648.0049999998882},{""page_index"":2,""viewing_time"":6939.995000000112}]","","","","","","",""
"6713.564999999944","","","instructions","419","1262320","0.0-419.0","tr82nfna","[{""page_index"":0,""viewing_time"":5482.439999999944},{""page_index"":1,""viewing_time"":691.0450000001583},{""page_index"":2,""viewing_time"":539.9699999999721}]","","","","","","",""
"","","","call-function","420","1262320","0.0-420.0","tr82nfna","","","","","","","",""
"null","","","html-keyboard-response","421","1263823","0.0-421.0","tr82nfna","","<span style=""color:Black; font-size:50px;"">Video 1</span>","null","","","","",""
"null","","","video-keyboard-response","422","1266899","0.0-422.0","tr82nfna","","","null","","<span style=""color:Black; font-size:50px;"">Casey","Casey","STIM_SET_3/1592934.bmp_pp52_L1_V1_veridical_freeview_isoFalse_fps144.mp4",""
"null","","","html-keyboard-response","423","1268401","0.0-423.0","tr82nfna","","<span style=""color:Black; font-size:50px;"">Video 2</span>","null","","","","",""
"null","","","video-keyboard-response","424","1271472","0.0-424.0","tr82nfna","","","null","","<span style=""color:Black; font-size:50px;"">Sandy","Sandy","STIM_SET_3/1592934.bmp_pp63_L1_V1_veridical_freeview_isoFalse_fps144.mp4",""
"","","","call-function","425","1271472","0.0-425.0","tr82nfna","","","","","","","",""
"1734.155000000028","","","categorize-html","426","1275209","0.0-426.0","tr82nfna","","Which video showed <span style=""font-size:30px"">Sandy's</span> attention?","50","","","","","true"
"null","","","html-keyboard-response","427","1275713","0.0-427.0","tr82nfna",""," ","null","","","","",""
"","","","call-function","428","1275714","0.0-428.0","tr82nfna","","","","","","","",""
"null","","","html-keyboard-response","429","1277216","0.0-429.0","tr82nfna","","<span style=""color:Black; font-size:50px;"">Video 1</span>","null","","","","",""
"null","","","video-keyboard-response","430","1280293","0.0-430.0","tr82nfna","","","null","","<span style=""color:Black; font-size:50px;"">Casey","Casey","STIM_SET_3/1592351.bmp_pp52_L1_V1_veridical_freeview_isoFalse_fps144.mp4",""
"null","","","html-keyboard-response","431","1281798","0.0-431.0","tr82nfna","","<span style=""color:Black; font-size:50px;"">Video 2</span>","null","","","","",""
"null","","","video-keyboard-response","432","1284888","0.0-432.0","tr82nfna","","","null","","<span style=""color:Black; font-size:50px;"">Sandy","Sandy","STIM_SET_3/1592351.bmp_pp63_L1_V1_veridical_freeview_isoFalse_fps144.mp4",""
"","","","call-function","433","1284888","0.0-433.0","tr82nfna","","","","","","","",""
"1582.1750000000466","","","categorize-html","434","1288477","0.0-434.0","tr82nfna","","Which video showed <span style=""font-size:30px"">Sandy's</span> attention?","50","","","","","true"
"null","","","html-keyboard-response","435","1288983","0.0-435.0","tr82nfna",""," ","null","","","","",""
"","","","call-function","436","1288984","0.0-436.0","tr82nfna","","","","","","","",""
"null","","","html-keyboard-response","437","1290485","0.0-437.0","tr82nfna","","<span style=""color:Black; font-size:50px;"">Video 1</span>","null","","","","",""
"null","","","video-keyboard-response","438","1293576","0.0-438.0","tr82nfna","","","null","","<span style=""color:Black; font-size:50px;"">Casey","Casey","STIM_SET_3/1592530.bmp_pp52_L1_V1_veridical_freeview_isoFalse_fps144.mp4",""
"null","","","html-keyboard-response","439","1295082","0.0-439.0","tr82nfna","","<span style=""color:Black; font-size:50px;"">Video 2</span>","null","","","","",""
"null","","","video-keyboard-response","440","1298168","0.0-440.0","tr82nfna","","","null","","<span style=""color:Black; font-size:50px;"">Sandy","Sandy","STIM_SET_3/1592530.bmp_pp63_L1_V1_veridical_freeview_isoFalse_fps144.mp4",""
"","","","call-function","441","1298169","0.0-441.0","tr82nfna","","","","","","","",""
"1349.6350000000093","","","categorize-html","442","1301525","0.0-442.0","tr82nfna","","Which video showed <span style=""font-size:30px"">Sandy's</span> attention?","49","","","","","false"
"null","","","html-keyboard-response","443","1302026","0.0-443.0","tr82nfna",""," ","null","","","","",""
"","","","call-function","444","1302026","0.0-444.0","tr82nfna","","","","","","","",""
"null","","","html-keyboard-response","445","1303531","0.0-445.0","tr82nfna","","<span style=""color:Black; font-size:50px;"">Video 1</span>","null","","","","",""
"null","","","video-keyboard-response","446","1306621","0.0-446.0","tr82nfna","","","null","","<span style=""color:Black; font-size:50px;"">Sandy","Sandy","STIM_SET_3/285959.bmp_pp63_L1_V1_veridical_freeview_isoFalse_fps144.mp4",""
"null","","","html-keyboard-response","447","1308127","0.0-447.0","tr82nfna","","<span style=""color:Black; font-size:50px;"">Video 2</span>","null","","","","",""
"null","","","video-keyboard-response","448","1311214","0.0-448.0","tr82nfna","","","null","","<span style=""color:Black; font-size:50px;"">Casey","Casey","STIM_SET_3/285959.bmp_pp52_L1_V1_veridical_freeview_isoFalse_fps144.mp4",""
"","","","call-function","449","1311214","0.0-449.0","tr82nfna","","","","","","","",""
"399.785000000149","","","categorize-html","450","1313617","0.0-450.0","tr82nfna","","Which video showed <span style=""font-size:30px"">Sandy's</span> attention?","50","","","","","false"
"null","","","html-keyboard-response","451","1314120","0.0-451.0","tr82nfna",""," ","null","","","","",""
"","","","call-function","452","1314120","0.0-452.0","tr82nfna","","","","","","","",""
"null","","","html-keyboard-response","453","1315623","0.0-453.0","tr82nfna","","<span style=""color:Black; font-size:50px;"">Video 1</span>","null","","","","",""
"null","","","video-keyboard-response","454","1318732","0.0-454.0","tr82nfna","","","null","","<span style=""color:Black; font-size:50px;"">Casey","Casey","STIM_SET_3/285905.bmp_pp52_L1_V1_veridical_freeview_isoFalse_fps144.mp4",""
"null","","","html-keyboard-response","455","1320239","0.0-455.0","tr82nfna","","<span style=""color:Black; font-size:50px;"">Video 2</span>","null","","","","",""
"null","","","video-keyboard-response","456","1323343","0.0-456.0","tr82nfna","","","null","","<span style=""color:Black; font-size:50px;"">Sandy","Sandy","STIM_SET_3/285905.bmp_pp63_L1_V1_veridical_freeview_isoFalse_fps144.mp4",""
"","","","call-function","457","1323343","0.0-457.0","tr82nfna","","","","","","","",""
"879.3649999999907","","","categorize-html","458","1326226","0.0-458.0","tr82nfna","","Which video showed <span style=""font-size:30px"">Sandy's</span> attention?","50","","","","","true"
"null","","","html-keyboard-response","459","1326733","0.0-459.0","tr82nfna",""," ","null","","","","",""
"","","","call-function","460","1326733","0.0-460.0","tr82nfna","","","","","","","",""
"null","","","html-keyboard-response","461","1328240","0.0-461.0","tr82nfna","","<span style=""color:Black; font-size:50px;"">Video 1</span>","null","","","","",""
"null","","","video-keyboard-response","462","1331307","0.0-462.0","tr82nfna","","","null","","<span style=""color:Black; font-size:50px;"">Sandy","Sandy","STIM_SET_3/150432.bmp_pp63_L1_V1_veridical_freeview_isoFalse_fps144.mp4",""
"null","","","html-keyboard-response","463","1332809","0.0-463.0","tr82nfna","","<span style=""color:Black; font-size:50px;"">Video 2</span>","null","","","","",""
"null","","","video-keyboard-response","464","1335870","0.0-464.0","tr82nfna","","","null","","<span style=""color:Black; font-size:50px;"">Casey","Casey","STIM_SET_3/150432.bmp_pp52_L1_V1_veridical_freeview_isoFalse_fps144.mp4",""
"","","","call-function","465","1335870","0.0-465.0","tr82nfna","","","","","","","",""
"1423.75","","","categorize-html","466","1339297","0.0-466.0","tr82nfna","","Which video showed <span style=""font-size:30px"">Sandy's</span> attention?","50","","","","","false"
"null","","","html-keyboard-response","467","1339802","0.0-467.0","tr82nfna",""," ","null","","","","",""
"","","","call-function","468","1339802","0.0-468.0","tr82nfna","","","","","","","",""
"null","","","html-keyboard-response","469","1341305","0.0-469.0","tr82nfna","","<span style=""color:Black; font-size:50px;"">Video 1</span>","null","","","","",""
"null","","","video-keyboard-response","470","1344363","0.0-470.0","tr82nfna","","","null","","<span style=""color:Black; font-size:50px;"">Casey","Casey","STIM_SET_3/1592189.bmp_pp52_L1_V1_veridical_freeview_isoFalse_fps144.mp4",""
"null","","","html-keyboard-response","471","1345869","0.0-471.0","tr82nfna","","<span style=""color:Black; font-size:50px;"">Video 2</span>","null","","","","",""
"null","","","video-keyboard-response","472","1348943","0.0-472.0","tr82nfna","","","null","","<span style=""color:Black; font-size:50px;"">Sandy","Sandy","STIM_SET_3/1592189.bmp_pp63_L1_V1_veridical_freeview_isoFalse_fps144.mp4",""
"","","","call-function","473","1348943","0.0-473.0","tr82nfna","","","","","","","",""
"4278.970000000205","","","categorize-html","474","1355229","0.0-474.0","tr82nfna","","Which video showed <span style=""font-size:30px"">Sandy's</span> attention?","49","","","","","false"
"null","","","html-keyboard-response","475","1355732","0.0-475.0","tr82nfna",""," ","null","","","","",""
"","","","call-function","476","1355732","0.0-476.0","tr82nfna","","","","","","","",""
"null","","","html-keyboard-response","477","1357233","0.0-477.0","tr82nfna","","<span style=""color:Black; font-size:50px;"">Video 1</span>","null","","","","",""
"null","","","video-keyboard-response","478","1360327","0.0-478.0","tr82nfna","","","null","","<span style=""color:Black; font-size:50px;"">Casey","Casey","STIM_SET_3/1592017.bmp_pp52_L1_V1_veridical_freeview_isoFalse_fps144.mp4",""
"null","","","html-keyboard-response","479","1361832","0.0-479.0","tr82nfna","","<span style=""color:Black; font-size:50px;"">Video 2</span>","null","","","","",""
"null","","","video-keyboard-response","480","1364927","0.0-480.0","tr82nfna","","","null","","<span style=""color:Black; font-size:50px;"">Sandy","Sandy","STIM_SET_3/1592017.bmp_pp63_L1_V1_veridical_freeview_isoFalse_fps144.mp4",""
"","","","call-function","481","1364927","0.0-481.0","tr82nfna","","","","","","","",""
"1046.7749999999069","","","categorize-html","482","1367980","0.0-482.0","tr82nfna","","Which video showed <span style=""font-size:30px"">Sandy's</span> attention?","49","","","","","false"
"null","","","html-keyboard-response","483","1368486","0.0-483.0","tr82nfna",""," ","null","","","","",""
"","","","call-function","484","1368486","0.0-484.0","tr82nfna","","","","","","","",""
"null","","","html-keyboard-response","485","1369989","0.0-485.0","tr82nfna","","<span style=""color:Black; font-size:50px;"">Video 1</span>","null","","","","",""
"null","","","video-keyboard-response","486","1373113","0.0-486.0","tr82nfna","","","null","","<span style=""color:Black; font-size:50px;"">Sandy","Sandy","STIM_SET_3/61513.bmp_pp63_L1_V1_veridical_freeview_isoFalse_fps144.mp4",""
"null","","","html-keyboard-response","487","1374619","0.0-487.0","tr82nfna","","<span style=""color:Black; font-size:50px;"">Video 2</span>","null","","","","",""
"null","","","video-keyboard-response","488","1377737","0.0-488.0","tr82nfna","","","null","","<span style=""color:Black; font-size:50px;"">Casey","Casey","STIM_SET_3/61513.bmp_pp52_L1_V1_veridical_freeview_isoFalse_fps144.mp4",""
"","","","call-function","489","1377737","0.0-489.0","tr82nfna","","","","","","","",""
"524.8850000000093","","","categorize-html","490","1380265","0.0-490.0","tr82nfna","","Which video showed <span style=""font-size:30px"">Sandy's</span> attention?","49","","","","","true"
"null","","","html-keyboard-response","491","1380768","0.0-491.0","tr82nfna",""," ","null","","","","",""
"","","","call-function","492","1380768","0.0-492.0","tr82nfna","","","","","","","",""
"null","","","html-keyboard-response","493","1382272","0.0-493.0","tr82nfna","","<span style=""color:Black; font-size:50px;"">Video 1</span>","null","","","","",""
"null","","","video-keyboard-response","494","1385376","0.0-494.0","tr82nfna","","","null","","<span style=""color:Black; font-size:50px;"">Sandy","Sandy","STIM_SET_3/1592094.bmp_pp63_L1_V1_veridical_freeview_isoFalse_fps144.mp4",""
"null","","","html-keyboard-response","495","1386882","0.0-495.0","tr82nfna","","<span style=""color:Black; font-size:50px;"">Video 2</span>","null","","","","",""
"null","","","video-keyboard-response","496","1389983","0.0-496.0","tr82nfna","","","null","","<span style=""color:Black; font-size:50px;"">Casey","Casey","STIM_SET_3/1592094.bmp_pp52_L1_V1_veridical_freeview_isoFalse_fps144.mp4",""
"","","","call-function","497","1389983","0.0-497.0","tr82nfna","","","","","","","",""
"727.1499999999069","","","categorize-html","498","1392716","0.0-498.0","tr82nfna","","Which video showed <span style=""font-size:30px"">Sandy's</span> attention?","49","","","","","true"
"null","","","html-keyboard-response","499","1393221","0.0-499.0","tr82nfna",""," ","null","","","","",""
"2906.6399999998976","","","instructions","500","1396128","0.0-500.0","tr82nfna","[{""page_index"":0,""viewing_time"":2158.4749999998603},{""page_index"":1,""viewing_time"":409.875},{""page_index"":2,""viewing_time"":338.18000000016764}]","","","","","","",""
"2684.5100000000093","","","instructions","501","1398813","0.0-501.0","tr82nfna","[{""page_index"":0,""viewing_time"":384.67500000004657},{""page_index"":1,""viewing_time"":1780.7950000001583},{""page_index"":2,""viewing_time"":518.934999999823}]","","","","","","",""
"","","","call-function","502","1398813","0.0-502.0","tr82nfna","","","","","","","",""
"null","","","html-keyboard-response","503","1400315","0.0-503.0","tr82nfna","","<span style=""color:Black; font-size:50px;"">Video 1</span>","null","","","","",""
"null","","","video-keyboard-response","504","1403382","0.0-504.0","tr82nfna","","","null","","<span style=""color:Black; font-size:50px;"">Casey","Casey","STIM_SET_3/713765.bmp_pp52_L1_V1_veridical_freeview_isoFalse_fps144.mp4",""
"null","","","html-keyboard-response","505","1404889","0.0-505.0","tr82nfna","","<span style=""color:Black; font-size:50px;"">Video 2</span>","null","","","","",""
"null","","","video-keyboard-response","506","1407962","0.0-506.0","tr82nfna","","","null","","<span style=""color:Black; font-size:50px;"">Sandy","Sandy","STIM_SET_3/713765.bmp_pp63_L1_V1_veridical_freeview_isoFalse_fps144.mp4",""
"","","","call-function","507","1407963","0.0-507.0","tr82nfna","","","","","","","",""
"3915.5149999998976","","","categorize-html","508","1413885","0.0-508.0","tr82nfna","","Which video showed <span style=""font-size:30px"">Sandy's</span> attention?","50","","","","","true"
"null","","","html-keyboard-response","509","1414388","0.0-509.0","tr82nfna",""," ","null","","","","",""
"","","","call-function","510","1414389","0.0-510.0","tr82nfna","","","","","","","",""
"null","","","html-keyboard-response","511","1415891","0.0-511.0","tr82nfna","","<span style=""color:Black; font-size:50px;"">Video 1</span>","null","","","","",""
"null","","","video-keyboard-response","512","1418956","0.0-512.0","tr82nfna","","","null","","<span style=""color:Black; font-size:50px;"">Sandy","Sandy","STIM_SET_3/1592874.bmp_pp63_L1_V1_veridical_freeview_isoFalse_fps144.mp4",""
"null","","","html-keyboard-response","513","1420461","0.0-513.0","tr82nfna","","<span style=""color:Black; font-size:50px;"">Video 2</span>","null","","","","",""
"null","","","video-keyboard-response","514","1423529","0.0-514.0","tr82nfna","","","null","","<span style=""color:Black; font-size:50px;"">Casey","Casey","STIM_SET_3/1592874.bmp_pp52_L1_V1_veridical_freeview_isoFalse_fps144.mp4",""
"","","","call-function","515","1423530","0.0-515.0","tr82nfna","","","","","","","",""
"692.4749999998603","","","categorize-html","516","1426228","0.0-516.0","tr82nfna","","Which video showed <span style=""font-size:30px"">Sandy's</span> attention?","50","","","","","false"
"null","","","html-keyboard-response","517","1426734","0.0-517.0","tr82nfna",""," ","null","","","","",""
"","","","call-function","518","1426734","0.0-518.0","tr82nfna","","","","","","","",""
"null","","","html-keyboard-response","519","1428236","0.0-519.0","tr82nfna","","<span style=""color:Black; font-size:50px;"">Video 1</span>","null","","","","",""
"null","","","video-keyboard-response","520","1431334","0.0-520.0","tr82nfna","","","null","","<span style=""color:Black; font-size:50px;"">Casey","Casey","STIM_SET_3/498398.bmp_pp52_L1_V1_veridical_freeview_isoFalse_fps144.mp4",""
"null","","","html-keyboard-response","521","1432839","0.0-521.0","tr82nfna","","<span style=""color:Black; font-size:50px;"">Video 2</span>","null","","","","",""
"null","","","video-keyboard-response","522","1435956","0.0-522.0","tr82nfna","","","null","","<span style=""color:Black; font-size:50px;"">Sandy","Sandy","STIM_SET_3/498398.bmp_pp63_L1_V1_veridical_freeview_isoFalse_fps144.mp4",""
"","","","call-function","523","1435957","0.0-523.0","tr82nfna","","","","","","","",""
"3561.8649999999907","","","categorize-html","524","1441526","0.0-524.0","tr82nfna","","Which video showed <span style=""font-size:30px"">Sandy's</span> attention?","50","","","","","true"
"null","","","html-keyboard-response","525","1442028","0.0-525.0","tr82nfna",""," ","null","","","","",""
"","","","call-function","526","1442029","0.0-526.0","tr82nfna","","","","","","","",""
"null","","","html-keyboard-response","527","1443533","0.0-527.0","tr82nfna","","<span style=""color:Black; font-size:50px;"">Video 1</span>","null","","","","",""
"null","","","video-keyboard-response","528","1446636","0.0-528.0","tr82nfna","","","null","","<span style=""color:Black; font-size:50px;"">Sandy","Sandy","STIM_SET_3/285992.bmp_pp63_L1_V1_veridical_freeview_isoFalse_fps144.mp4",""
"null","","","html-keyboard-response","529","1448139","0.0-529.0","tr82nfna","","<span style=""color:Black; font-size:50px;"">Video 2</span>","null","","","","",""
"null","","","video-keyboard-response","530","1451239","0.0-530.0","tr82nfna","","","null","","<span style=""color:Black; font-size:50px;"">Casey","Casey","STIM_SET_3/285992.bmp_pp52_L1_V1_veridical_freeview_isoFalse_fps144.mp4",""
"","","","call-function","531","1451240","0.0-531.0","tr82nfna","","","","","","","",""
"558.8100000000559","","","categorize-html","532","1453803","0.0-532.0","tr82nfna","","Which video showed <span style=""font-size:30px"">Sandy's</span> attention?","50","","","","","false"
"null","","","html-keyboard-response","533","1454307","0.0-533.0","tr82nfna",""," ","null","","","","",""
"","","","call-function","534","1454308","0.0-534.0","tr82nfna","","","","","","","",""
"null","","","html-keyboard-response","535","1455810","0.0-535.0","tr82nfna","","<span style=""color:Black; font-size:50px;"">Video 1</span>","null","","","","",""
"null","","","video-keyboard-response","536","1458914","0.0-536.0","tr82nfna","","","null","","<span style=""color:Black; font-size:50px;"">Sandy","Sandy","STIM_SET_3/1592372.bmp_pp63_L1_V1_veridical_freeview_isoFalse_fps144.mp4",""
"null","","","html-keyboard-response","537","1460417","0.0-537.0","tr82nfna","","<span style=""color:Black; font-size:50px;"">Video 2</span>","null","","","","",""
"null","","","video-keyboard-response","538","1463504","0.0-538.0","tr82nfna","","","null","","<span style=""color:Black; font-size:50px;"">Casey","Casey","STIM_SET_3/1592372.bmp_pp52_L1_V1_veridical_freeview_isoFalse_fps144.mp4",""
"","","","call-function","539","1463505","0.0-539.0","tr82nfna","","","","","","","",""
"1397.6699999999255","","","categorize-html","540","1466907","0.0-540.0","tr82nfna","","Which video showed <span style=""font-size:30px"">Sandy's</span> attention?","50","","","","","false"
"null","","","html-keyboard-response","541","1467411","0.0-541.0","tr82nfna",""," ","null","","","","",""
"","","","call-function","542","1467411","0.0-542.0","tr82nfna","","","","","","","",""
"null","","","html-keyboard-response","543","1468913","0.0-543.0","tr82nfna","","<span style=""color:Black; font-size:50px;"">Video 1</span>","null","","","","",""
"null","","","video-keyboard-response","544","1471980","0.0-544.0","tr82nfna","","","null","","<span style=""color:Black; font-size:50px;"">Sandy","Sandy","STIM_SET_3/1591838.bmp_pp63_L1_V1_veridical_freeview_isoFalse_fps144.mp4",""
"null","","","html-keyboard-response","545","1473483","0.0-545.0","tr82nfna","","<span style=""color:Black; font-size:50px;"">Video 2</span>","null","","","","",""
"null","","","video-keyboard-response","546","1476551","0.0-546.0","tr82nfna","","","null","","<span style=""color:Black; font-size:50px;"">Casey","Casey","STIM_SET_3/1591838.bmp_pp52_L1_V1_veridical_freeview_isoFalse_fps144.mp4",""
"","","","call-function","547","1476551","0.0-547.0","tr82nfna","","","","","","","",""
"1175.1350000000093","","","categorize-html","548","1479730","0.0-548.0","tr82nfna","","Which video showed <span style=""font-size:30px"">Sandy's</span> attention?","49","","","","","true"
"null","","","html-keyboard-response","549","1480232","0.0-549.0","tr82nfna",""," ","null","","","","",""
"","","","call-function","550","1480233","0.0-550.0","tr82nfna","","","","","","","",""
"null","","","html-keyboard-response","551","1481734","0.0-551.0","tr82nfna","","<span style=""color:Black; font-size:50px;"">Video 1</span>","null","","","","",""
"null","","","video-keyboard-response","552","1484810","0.0-552.0","tr82nfna","","","null","","<span style=""color:Black; font-size:50px;"">Casey","Casey","STIM_SET_3/1159425.bmp_pp52_L1_V1_veridical_freeview_isoFalse_fps144.mp4",""
"null","","","html-keyboard-response","553","1486313","0.0-553.0","tr82nfna","","<span style=""color:Black; font-size:50px;"">Video 2</span>","null","","","","",""
"null","","","video-keyboard-response","554","1489380","0.0-554.0","tr82nfna","","","null","","<span style=""color:Black; font-size:50px;"">Sandy","Sandy","STIM_SET_3/1159425.bmp_pp63_L1_V1_veridical_freeview_isoFalse_fps144.mp4",""
"","","","call-function","555","1489380","0.0-555.0","tr82nfna","","","","","","","",""
"442.6149999999907","","","categorize-html","556","1491828","0.0-556.0","tr82nfna","","Which video showed <span style=""font-size:30px"">Sandy's</span> attention?","49","","","","","false"
"null","","","html-keyboard-response","557","1492333","0.0-557.0","tr82nfna",""," ","null","","","","",""
"","","","call-function","558","1492333","0.0-558.0","tr82nfna","","","","","","","",""
"null","","","html-keyboard-response","559","1493836","0.0-559.0","tr82nfna","","<span style=""color:Black; font-size:50px;"">Video 1</span>","null","","","","",""
"null","","","video-keyboard-response","560","1496925","0.0-560.0","tr82nfna","","","null","","<span style=""color:Black; font-size:50px;"">Casey","Casey","STIM_SET_3/1591876.bmp_pp52_L1_V1_veridical_freeview_isoFalse_fps144.mp4",""
"null","","","html-keyboard-response","561","1498431","0.0-561.0","tr82nfna","","<span style=""color:Black; font-size:50px;"">Video 2</span>","null","","","","",""
"null","","","video-keyboard-response","562","1501536","0.0-562.0","tr82nfna","","","null","","<span style=""color:Black; font-size:50px;"">Sandy","Sandy","STIM_SET_3/1591876.bmp_pp63_L1_V1_veridical_freeview_isoFalse_fps144.mp4",""
"","","","call-function","563","1501537","0.0-563.0","tr82nfna","","","","","","","",""
"909.9650000000838","","","categorize-html","564","1504453","0.0-564.0","tr82nfna","","Which video showed <span style=""font-size:30px"">Sandy's</span> attention?","50","","","","","true"
"null","","","html-keyboard-response","565","1504957","0.0-565.0","tr82nfna",""," ","null","","","","",""
"","","","call-function","566","1504957","0.0-566.0","tr82nfna","","","","","","","",""
"null","","","html-keyboard-response","567","1506460","0.0-567.0","tr82nfna","","<span style=""color:Black; font-size:50px;"">Video 1</span>","null","","","","",""
"null","","","video-keyboard-response","568","1509550","0.0-568.0","tr82nfna","","","null","","<span style=""color:Black; font-size:50px;"">Sandy","Sandy","STIM_SET_3/1159967.bmp_pp63_L1_V1_veridical_freeview_isoFalse_fps144.mp4",""
"null","","","html-keyboard-response","569","1511054","0.0-569.0","tr82nfna","","<span style=""color:Black; font-size:50px;"">Video 2</span>","null","","","","",""
"null","","","video-keyboard-response","570","1514154","0.0-570.0","tr82nfna","","","null","","<span style=""color:Black; font-size:50px;"">Casey","Casey","STIM_SET_3/1159967.bmp_pp52_L1_V1_veridical_freeview_isoFalse_fps144.mp4",""
"","","","call-function","571","1514154","0.0-571.0","tr82nfna","","","","","","","",""
"1564.214999999851","","","categorize-html","572","1517723","0.0-572.0","tr82nfna","","Which video showed <span style=""font-size:30px"">Sandy's</span> attention?","49","","","","","true"
"null","","","html-keyboard-response","573","1518229","0.0-573.0","tr82nfna",""," ","null","","","","",""
"","","","call-function","574","1518229","0.0-574.0","tr82nfna","","","","","","","",""
"null","","","html-keyboard-response","575","1519734","0.0-575.0","tr82nfna","","<span style=""color:Black; font-size:50px;"">Video 1</span>","null","","","","",""
"null","","","video-keyboard-response","576","1522825","0.0-576.0","tr82nfna","","","null","","<span style=""color:Black; font-size:50px;"">Casey","Casey","STIM_SET_3/1592168.bmp_pp52_L1_V1_veridical_freeview_isoFalse_fps144.mp4",""
"null","","","html-keyboard-response","577","1524327","0.0-577.0","tr82nfna","","<span style=""color:Black; font-size:50px;"">Video 2</span>","null","","","","",""
"null","","","video-keyboard-response","578","1527424","0.0-578.0","tr82nfna","","","null","","<span style=""color:Black; font-size:50px;"">Sandy","Sandy","STIM_SET_3/1592168.bmp_pp63_L1_V1_veridical_freeview_isoFalse_fps144.mp4",""
"","","","call-function","579","1527424","0.0-579.0","tr82nfna","","","","","","","",""
"1358.3300000000745","","","categorize-html","580","1530785","0.0-580.0","tr82nfna","","Which video showed <span style=""font-size:30px"">Sandy's</span> attention?","50","","","","","true"
"null","","","html-keyboard-response","581","1531291","0.0-581.0","tr82nfna",""," ","null","","","","",""
"2475.4599999999627","","","instructions","582","1533767","0.0-582.0","tr82nfna","[{""page_index"":0,""viewing_time"":2475.340000000084}]","","","","","","",""
"1170.625","","","instructions","583","1534938","0.0-583.0","tr82nfna","[{""page_index"":0,""viewing_time"":1170.5149999998976}]","","","","","","",""
"55066.375","{""Q0"":""I thought this was quite difficult! Some of the judgments I felt quite confident on, while others (that I got correct) were a slight hunch not really based on much. I kept hypothesizing on what a key difference between Casey and Sandy's attention styles might be but then it didn't always hold true for some examples.""}","","survey-text","584","1590011","0.0-584.0","tr82nfna","","","","","","","",""
"61742.919999999925","{""Q0"":""One strategy I started using was to start following the blobs themselves (I started this about halfway through the first chunk) rather than try and analytically see where the blobs were. It helped me notice some patterns that I thought were helpful in differentiating between the two attention styles. But I'm not too sure about these patterns and how right they are because I got many wrong.""}","","survey-text","585","1651758","0.0-585.0","tr82nfna","","","","","","","",""
"33279.70999999996","{""Q0"":""I just thought it was a difficult task overall there were some strong hunches I had that were just wrong. I found it difficult to tell what was different about their attention.""}","","survey-text","586","1685041","0.0-586.0","tr82nfna","","","","","","","",""
"1294.625","","","instructions","587","1686337","0.0-587.0","tr82nfna","[{""page_index"":0,""viewing_time"":1294.5150000001304}]","","","","","","",""
"192875.125","{""Experimenter_end"":[""Printed ID# tr82nfna on consent form"",""Given subject SONA credit or payment"",""Given the subject debrief form""]}","[0]","survey-multi-select","588","1879215","0.0-588.0","tr82nfna","","","","","","","",""
