"rt","responses","question_order","trial_type","trial_index","time_elapsed","internal_node_id","ID","view_history","stimulus","key_press","value","agent","condition","image","correct"
"360864.39","{""Experimenter"":[""Confirmed subject's identity (ID card)"",""Confirmed normal or corrected-to-normal vision"",""Obtained consent (signature and date)"",""Checked the test room lighting"",""Checked computer screen lighting"",""Checked distance from screen to chin rest (50cm)"",""Cleaned and adjusted chin rest"",""Counterbalanced the order of the tasks"",""Opened the experiment in Firefox"",""Made the experiment full screen"",""Encouraged subject to silence phone, put away distractors, etc.""]}","[0]","survey-multi-select","0","360876","0.0-0.0","dn28g3pa","","","","","","","",""
"155345.84500000003","","","instructions","1","516223","0.0-1.0","dn28g3pa","[{""page_index"":0,""viewing_time"":155345.7}]","","","","","","",""
"6850.734999999986","{""Age"":0,""Sex"":0,""Gender"":0}","[0,1,2]","survey-likert","2","523076","0.0-2.0","dn28g3pa","","","","","","","",""
"1354.109999999986","","","instructions","3","524431","0.0-3.0","dn28g3pa","[{""page_index"":0,""viewing_time"":1354.0050000000047}]","","","","","","",""
"9579.020000000019","","","instructions","4","534011","0.0-4.0","dn28g3pa","[{""page_index"":0,""viewing_time"":1231.5650000000605},{""page_index"":1,""viewing_time"":4274.630000000005},{""page_index"":2,""viewing_time"":4072.274999999907}]","","","","","","",""
"2324.1049999999814","","","instructions","5","536336","0.0-5.0","dn28g3pa","[{""page_index"":0,""viewing_time"":2324.0050000000047}]","","","","","","",""
"null","","","video-keyboard-response","6","539412","0.0-6.0","dn28g3pa","","","null","","","","",""
"30647.14500000002","","","instructions","7","570060","0.0-7.0","dn28g3pa","[{""page_index"":0,""viewing_time"":1993.1849999999395},{""page_index"":1,""viewing_time"":6755.9700000000885},{""page_index"":2,""viewing_time"":782.984999999986},{""page_index"":3,""viewing_time"":5433.939999999944},{""page_index"":4,""viewing_time"":3457.530000000028},{""page_index"":5,""viewing_time"":6053.479999999981},{""page_index"":6,""viewing_time"":4633.920000000042},{""page_index"":7,""viewing_time"":1535.9499999999534}]","","","","","","",""
"4578.219999999972","","","instructions","8","574639","0.0-8.0","dn28g3pa","[{""page_index"":0,""viewing_time"":4578.094999999972}]","","","","","","",""
"1440.9350000000559","","","instructions","9","576080","0.0-9.0","dn28g3pa","[{""page_index"":0,""viewing_time"":1440.8100000000559}]","","","","","","",""
"","","","call-function","10","576081","0.0-10.0","dn28g3pa","","","","","","","",""
"null","","","html-keyboard-response","11","577582","0.0-11.0","dn28g3pa","","<span style=""color:Black; font-size:50px;"">Video 1</span>","null","","","","",""
"null","","","video-keyboard-response","12","580662","0.0-12.0","dn28g3pa","","","null","","<span style=""color:Black; font-size:50px;"">Sandy","Sandy","STIM_SET_4/1592501.bmp_pp51_L1_V1_veridical_freeview_isoFalse_fps144.mp4",""
"null","","","html-keyboard-response","13","582165","0.0-13.0","dn28g3pa","","<span style=""color:Black; font-size:50px;"">Video 2</span>","null","","","","",""
"null","","","video-keyboard-response","14","585243","0.0-14.0","dn28g3pa","","","null","","<span style=""color:Black; font-size:50px;"">Casey","Casey","STIM_SET_4/1592501.bmp_pp98_L1_V1_veridical_freeview_isoFalse_fps144.mp4",""
"","","","call-function","15","585243","0.0-15.0","dn28g3pa","","","","","","","",""
"1795.0200000000186","","","categorize-html","16","589041","0.0-16.0","dn28g3pa","","Which video showed <span style=""font-size:30px"">Sandy's</span> attention?","49","","","","","true"
"null","","","html-keyboard-response","17","589542","0.0-17.0","dn28g3pa",""," ","null","","","","",""
"","","","call-function","18","589542","0.0-18.0","dn28g3pa","","","","","","","",""
"null","","","html-keyboard-response","19","591044","0.0-19.0","dn28g3pa","","<span style=""color:Black; font-size:50px;"">Video 1</span>","null","","","","",""
"null","","","video-keyboard-response","20","594121","0.0-20.0","dn28g3pa","","","null","","<span style=""color:Black; font-size:50px;"">Sandy","Sandy","STIM_SET_4/1592133.bmp_pp51_L1_V1_veridical_freeview_isoFalse_fps144.mp4",""
"null","","","html-keyboard-response","21","595626","0.0-21.0","dn28g3pa","","<span style=""color:Black; font-size:50px;"">Video 2</span>","null","","","","",""
"null","","","video-keyboard-response","22","598740","0.0-22.0","dn28g3pa","","","null","","<span style=""color:Black; font-size:50px;"">Casey","Casey","STIM_SET_4/1592133.bmp_pp98_L1_V1_veridical_freeview_isoFalse_fps144.mp4",""
"","","","call-function","23","598740","0.0-23.0","dn28g3pa","","","","","","","",""
"1128.9400000000605","","","categorize-html","24","601873","0.0-24.0","dn28g3pa","","Which video showed <span style=""font-size:30px"">Sandy's</span> attention?","50","","","","","false"
"null","","","html-keyboard-response","25","602375","0.0-25.0","dn28g3pa",""," ","null","","","","",""
"","","","call-function","26","602376","0.0-26.0","dn28g3pa","","","","","","","",""
"null","","","html-keyboard-response","27","603878","0.0-27.0","dn28g3pa","","<span style=""color:Black; font-size:50px;"">Video 1</span>","null","","","","",""
"null","","","video-keyboard-response","28","606954","0.0-28.0","dn28g3pa","","","null","","<span style=""color:Black; font-size:50px;"">Casey","Casey","STIM_SET_4/1592351.bmp_pp98_L1_V1_veridical_freeview_isoFalse_fps144.mp4",""
"null","","","html-keyboard-response","29","608457","0.0-29.0","dn28g3pa","","<span style=""color:Black; font-size:50px;"">Video 2</span>","null","","","","",""
"null","","","video-keyboard-response","30","611562","0.0-30.0","dn28g3pa","","","null","","<span style=""color:Black; font-size:50px;"">Sandy","Sandy","STIM_SET_4/1592351.bmp_pp51_L1_V1_veridical_freeview_isoFalse_fps144.mp4",""
"","","","call-function","31","611562","0.0-31.0","dn28g3pa","","","","","","","",""
"938.8049999999348","","","categorize-html","32","614505","0.0-32.0","dn28g3pa","","Which video showed <span style=""font-size:30px"">Sandy's</span> attention?","50","","","","","true"
"null","","","html-keyboard-response","33","615007","0.0-33.0","dn28g3pa",""," ","null","","","","",""
"","","","call-function","34","615007","0.0-34.0","dn28g3pa","","","","","","","",""
"null","","","html-keyboard-response","35","616513","0.0-35.0","dn28g3pa","","<span style=""color:Black; font-size:50px;"">Video 1</span>","null","","","","",""
"null","","","video-keyboard-response","36","619623","0.0-36.0","dn28g3pa","","","null","","<span style=""color:Black; font-size:50px;"">Casey","Casey","STIM_SET_4/1592568.bmp_pp98_L1_V1_veridical_freeview_isoFalse_fps144.mp4",""
"null","","","html-keyboard-response","37","621125","0.0-37.0","dn28g3pa","","<span style=""color:Black; font-size:50px;"">Video 2</span>","null","","","","",""
"null","","","video-keyboard-response","38","624226","0.0-38.0","dn28g3pa","","","null","","<span style=""color:Black; font-size:50px;"">Sandy","Sandy","STIM_SET_4/1592568.bmp_pp51_L1_V1_veridical_freeview_isoFalse_fps144.mp4",""
"","","","call-function","39","624226","0.0-39.0","dn28g3pa","","","","","","","",""
"507.1500000000233","","","categorize-html","40","626735","0.0-40.0","dn28g3pa","","Which video showed <span style=""font-size:30px"">Sandy's</span> attention?","49","","","","","false"
"null","","","html-keyboard-response","41","627237","0.0-41.0","dn28g3pa",""," ","null","","","","",""
"","","","call-function","42","627237","0.0-42.0","dn28g3pa","","","","","","","",""
"null","","","html-keyboard-response","43","628739","0.0-43.0","dn28g3pa","","<span style=""color:Black; font-size:50px;"">Video 1</span>","null","","","","",""
"null","","","video-keyboard-response","44","631862","0.0-44.0","dn28g3pa","","","null","","<span style=""color:Black; font-size:50px;"">Casey","Casey","STIM_SET_4/1591932.bmp_pp98_L1_V1_veridical_freeview_isoFalse_fps144.mp4",""
"null","","","html-keyboard-response","45","633367","0.0-45.0","dn28g3pa","","<span style=""color:Black; font-size:50px;"">Video 2</span>","null","","","","",""
"null","","","video-keyboard-response","46","636450","0.0-46.0","dn28g3pa","","","null","","<span style=""color:Black; font-size:50px;"">Sandy","Sandy","STIM_SET_4/1591932.bmp_pp51_L1_V1_veridical_freeview_isoFalse_fps144.mp4",""
"","","","call-function","47","636451","0.0-47.0","dn28g3pa","","","","","","","",""
"1154.204999999958","","","categorize-html","48","639610","0.0-48.0","dn28g3pa","","Which video showed <span style=""font-size:30px"">Sandy's</span> attention?","50","","","","","true"
"null","","","html-keyboard-response","49","640116","0.0-49.0","dn28g3pa",""," ","null","","","","",""
"","","","call-function","50","640116","0.0-50.0","dn28g3pa","","","","","","","",""
"null","","","html-keyboard-response","51","641621","0.0-51.0","dn28g3pa","","<span style=""color:Black; font-size:50px;"">Video 1</span>","null","","","","",""
"null","","","video-keyboard-response","52","644733","0.0-52.0","dn28g3pa","","","null","","<span style=""color:Black; font-size:50px;"">Sandy","Sandy","STIM_SET_4/1159353.bmp_pp51_L1_V1_veridical_freeview_isoFalse_fps144.mp4",""
"null","","","html-keyboard-response","53","646234","0.0-53.0","dn28g3pa","","<span style=""color:Black; font-size:50px;"">Video 2</span>","null","","","","",""
"null","","","video-keyboard-response","54","649296","0.0-54.0","dn28g3pa","","","null","","<span style=""color:Black; font-size:50px;"">Casey","Casey","STIM_SET_4/1159353.bmp_pp98_L1_V1_veridical_freeview_isoFalse_fps144.mp4",""
"","","","call-function","55","649297","0.0-55.0","dn28g3pa","","","","","","","",""
"612.7950000000419","","","categorize-html","56","651914","0.0-56.0","dn28g3pa","","Which video showed <span style=""font-size:30px"">Sandy's</span> attention?","49","","","","","true"
"null","","","html-keyboard-response","57","652421","0.0-57.0","dn28g3pa",""," ","null","","","","",""
"","","","call-function","58","652421","0.0-58.0","dn28g3pa","","","","","","","",""
"null","","","html-keyboard-response","59","653927","0.0-59.0","dn28g3pa","","<span style=""color:Black; font-size:50px;"">Video 1</span>","null","","","","",""
"null","","","video-keyboard-response","60","657027","0.0-60.0","dn28g3pa","","","null","","<span style=""color:Black; font-size:50px;"">Casey","Casey","STIM_SET_4/1592079.bmp_pp98_L1_V1_veridical_freeview_isoFalse_fps144.mp4",""
"null","","","html-keyboard-response","61","658532","0.0-61.0","dn28g3pa","","<span style=""color:Black; font-size:50px;"">Video 2</span>","null","","","","",""
"null","","","video-keyboard-response","62","661608","0.0-62.0","dn28g3pa","","","null","","<span style=""color:Black; font-size:50px;"">Sandy","Sandy","STIM_SET_4/1592079.bmp_pp51_L1_V1_veridical_freeview_isoFalse_fps144.mp4",""
"","","","call-function","63","661608","0.0-63.0","dn28g3pa","","","","","","","",""
"1213.1350000000093","","","categorize-html","64","664827","0.0-64.0","dn28g3pa","","Which video showed <span style=""font-size:30px"">Sandy's</span> attention?","50","","","","","true"
"null","","","html-keyboard-response","65","665329","0.0-65.0","dn28g3pa",""," ","null","","","","",""
"","","","call-function","66","665330","0.0-66.0","dn28g3pa","","","","","","","",""
"null","","","html-keyboard-response","67","666834","0.0-67.0","dn28g3pa","","<span style=""color:Black; font-size:50px;"">Video 1</span>","null","","","","",""
"null","","","video-keyboard-response","68","669927","0.0-68.0","dn28g3pa","","","null","","<span style=""color:Black; font-size:50px;"">Casey","Casey","STIM_SET_4/498175.bmp_pp98_L1_V1_veridical_freeview_isoFalse_fps144.mp4",""
"null","","","html-keyboard-response","69","671431","0.0-69.0","dn28g3pa","","<span style=""color:Black; font-size:50px;"">Video 2</span>","null","","","","",""
"null","","","video-keyboard-response","70","674512","0.0-70.0","dn28g3pa","","","null","","<span style=""color:Black; font-size:50px;"">Sandy","Sandy","STIM_SET_4/498175.bmp_pp51_L1_V1_veridical_freeview_isoFalse_fps144.mp4",""
"","","","call-function","71","674512","0.0-71.0","dn28g3pa","","","","","","","",""
"669.3250000000698","","","categorize-html","72","677184","0.0-72.0","dn28g3pa","","Which video showed <span style=""font-size:30px"">Sandy's</span> attention?","50","","","","","true"
"null","","","html-keyboard-response","73","677685","0.0-73.0","dn28g3pa",""," ","null","","","","",""
"","","","call-function","74","677686","0.0-74.0","dn28g3pa","","","","","","","",""
"null","","","html-keyboard-response","75","679191","0.0-75.0","dn28g3pa","","<span style=""color:Black; font-size:50px;"">Video 1</span>","null","","","","",""
"null","","","video-keyboard-response","76","682308","0.0-76.0","dn28g3pa","","","null","","<span style=""color:Black; font-size:50px;"">Casey","Casey","STIM_SET_4/285807.bmp_pp98_L1_V1_veridical_freeview_isoFalse_fps144.mp4",""
"null","","","html-keyboard-response","77","683813","0.0-77.0","dn28g3pa","","<span style=""color:Black; font-size:50px;"">Video 2</span>","null","","","","",""
"null","","","video-keyboard-response","78","686943","0.0-78.0","dn28g3pa","","","null","","<span style=""color:Black; font-size:50px;"">Sandy","Sandy","STIM_SET_4/285807.bmp_pp51_L1_V1_veridical_freeview_isoFalse_fps144.mp4",""
"","","","call-function","79","686944","0.0-79.0","dn28g3pa","","","","","","","",""
"1190.0350000000326","","","categorize-html","80","690141","0.0-80.0","dn28g3pa","","Which video showed <span style=""font-size:30px"">Sandy's</span> attention?","50","","","","","true"
"null","","","html-keyboard-response","81","690646","0.0-81.0","dn28g3pa",""," ","null","","","","",""
"","","","call-function","82","690646","0.0-82.0","dn28g3pa","","","","","","","",""
"null","","","html-keyboard-response","83","692149","0.0-83.0","dn28g3pa","","<span style=""color:Black; font-size:50px;"">Video 1</span>","null","","","","",""
"null","","","video-keyboard-response","84","695262","0.0-84.0","dn28g3pa","","","null","","<span style=""color:Black; font-size:50px;"">Sandy","Sandy","STIM_SET_4/1592168.bmp_pp51_L1_V1_veridical_freeview_isoFalse_fps144.mp4",""
"null","","","html-keyboard-response","85","696765","0.0-85.0","dn28g3pa","","<span style=""color:Black; font-size:50px;"">Video 2</span>","null","","","","",""
"null","","","video-keyboard-response","86","699874","0.0-86.0","dn28g3pa","","","null","","<span style=""color:Black; font-size:50px;"">Casey","Casey","STIM_SET_4/1592168.bmp_pp98_L1_V1_veridical_freeview_isoFalse_fps144.mp4",""
"","","","call-function","87","699874","0.0-87.0","dn28g3pa","","","","","","","",""
"1307.1899999999441","","","categorize-html","88","703189","0.0-88.0","dn28g3pa","","Which video showed <span style=""font-size:30px"">Sandy's</span> attention?","50","","","","","false"
"null","","","html-keyboard-response","89","703693","0.0-89.0","dn28g3pa",""," ","null","","","","",""
"21709.324999999953","","","instructions","90","725403","0.0-90.0","dn28g3pa","[{""page_index"":0,""viewing_time"":2298.8649999999907},{""page_index"":1,""viewing_time"":1799.3699999999953},{""page_index"":2,""viewing_time"":17610.974999999977}]","","","","","","",""
"5711.739999999991","","","instructions","91","731115","0.0-91.0","dn28g3pa","[{""page_index"":0,""viewing_time"":1905.7099999999627},{""page_index"":1,""viewing_time"":3236.185000000056},{""page_index"":2,""viewing_time"":569.7399999999907}]","","","","","","",""
"","","","call-function","92","731115","0.0-92.0","dn28g3pa","","","","","","","",""
"null","","","html-keyboard-response","93","732619","0.0-93.0","dn28g3pa","","<span style=""color:Black; font-size:50px;"">Video 1</span>","null","","","","",""
"null","","","video-keyboard-response","94","735696","0.0-94.0","dn28g3pa","","","null","","<span style=""color:Black; font-size:50px;"">Casey","Casey","STIM_SET_4/285992.bmp_pp98_L1_V1_veridical_freeview_isoFalse_fps144.mp4",""
"null","","","html-keyboard-response","95","737198","0.0-95.0","dn28g3pa","","<span style=""color:Black; font-size:50px;"">Video 2</span>","null","","","","",""
"null","","","video-keyboard-response","96","740273","0.0-96.0","dn28g3pa","","","null","","<span style=""color:Black; font-size:50px;"">Sandy","Sandy","STIM_SET_4/285992.bmp_pp51_L1_V1_veridical_freeview_isoFalse_fps144.mp4",""
"","","","call-function","97","740274","0.0-97.0","dn28g3pa","","","","","","","",""
"1979.609999999986","","","categorize-html","98","744256","0.0-98.0","dn28g3pa","","Which video showed <span style=""font-size:30px"">Sandy's</span> attention?","49","","","","","false"
"null","","","html-keyboard-response","99","744756","0.0-99.0","dn28g3pa",""," ","null","","","","",""
"","","","call-function","100","744756","0.0-100.0","dn28g3pa","","","","","","","",""
"null","","","html-keyboard-response","101","746257","0.0-101.0","dn28g3pa","","<span style=""color:Black; font-size:50px;"">Video 1</span>","null","","","","",""
"null","","","video-keyboard-response","102","749378","0.0-102.0","dn28g3pa","","","null","","<span style=""color:Black; font-size:50px;"">Sandy","Sandy","STIM_SET_4/713075.bmp_pp51_L1_V1_veridical_freeview_isoFalse_fps144.mp4",""
"null","","","html-keyboard-response","103","750882","0.0-103.0","dn28g3pa","","<span style=""color:Black; font-size:50px;"">Video 2</span>","null","","","","",""
"null","","","video-keyboard-response","104","753967","0.0-104.0","dn28g3pa","","","null","","<span style=""color:Black; font-size:50px;"">Casey","Casey","STIM_SET_4/713075.bmp_pp98_L1_V1_veridical_freeview_isoFalse_fps144.mp4",""
"","","","call-function","105","753967","0.0-105.0","dn28g3pa","","","","","","","",""
"965.9349999999395","","","categorize-html","106","756935","0.0-106.0","dn28g3pa","","Which video showed <span style=""font-size:30px"">Sandy's</span> attention?","50","","","","","false"
"null","","","html-keyboard-response","107","757436","0.0-107.0","dn28g3pa",""," ","null","","","","",""
"","","","call-function","108","757436","0.0-108.0","dn28g3pa","","","","","","","",""
"null","","","html-keyboard-response","109","758943","0.0-109.0","dn28g3pa","","<span style=""color:Black; font-size:50px;"">Video 1</span>","null","","","","",""
"null","","","video-keyboard-response","110","762095","0.0-110.0","dn28g3pa","","","null","","<span style=""color:Black; font-size:50px;"">Casey","Casey","STIM_SET_4/285948.bmp_pp98_L1_V1_veridical_freeview_isoFalse_fps144.mp4",""
"null","","","html-keyboard-response","111","763601","0.0-111.0","dn28g3pa","","<span style=""color:Black; font-size:50px;"">Video 2</span>","null","","","","",""
"null","","","video-keyboard-response","112","766711","0.0-112.0","dn28g3pa","","","null","","<span style=""color:Black; font-size:50px;"">Sandy","Sandy","STIM_SET_4/285948.bmp_pp51_L1_V1_veridical_freeview_isoFalse_fps144.mp4",""
"","","","call-function","113","766711","0.0-113.0","dn28g3pa","","","","","","","",""
"750.1550000000279","","","categorize-html","114","769464","0.0-114.0","dn28g3pa","","Which video showed <span style=""font-size:30px"">Sandy's</span> attention?","50","","","","","true"
"null","","","html-keyboard-response","115","769970","0.0-115.0","dn28g3pa",""," ","null","","","","",""
"","","","call-function","116","769970","0.0-116.0","dn28g3pa","","","","","","","",""
"null","","","html-keyboard-response","117","771472","0.0-117.0","dn28g3pa","","<span style=""color:Black; font-size:50px;"">Video 1</span>","null","","","","",""
"null","","","video-keyboard-response","118","774572","0.0-118.0","dn28g3pa","","","null","","<span style=""color:Black; font-size:50px;"">Casey","Casey","STIM_SET_4/713371.bmp_pp98_L1_V1_veridical_freeview_isoFalse_fps144.mp4",""
"null","","","html-keyboard-response","119","776075","0.0-119.0","dn28g3pa","","<span style=""color:Black; font-size:50px;"">Video 2</span>","null","","","","",""
"null","","","video-keyboard-response","120","779171","0.0-120.0","dn28g3pa","","","null","","<span style=""color:Black; font-size:50px;"">Sandy","Sandy","STIM_SET_4/713371.bmp_pp51_L1_V1_veridical_freeview_isoFalse_fps144.mp4",""
"","","","call-function","121","779172","0.0-121.0","dn28g3pa","","","","","","","",""
"817.625","","","categorize-html","122","781996","0.0-122.0","dn28g3pa","","Which video showed <span style=""font-size:30px"">Sandy's</span> attention?","50","","","","","true"
"null","","","html-keyboard-response","123","782498","0.0-123.0","dn28g3pa",""," ","null","","","","",""
"","","","call-function","124","782498","0.0-124.0","dn28g3pa","","","","","","","",""
"null","","","html-keyboard-response","125","784001","0.0-125.0","dn28g3pa","","<span style=""color:Black; font-size:50px;"">Video 1</span>","null","","","","",""
"null","","","video-keyboard-response","126","787095","0.0-126.0","dn28g3pa","","","null","","<span style=""color:Black; font-size:50px;"">Sandy","Sandy","STIM_SET_4/1591781.bmp_pp51_L1_V1_veridical_freeview_isoFalse_fps144.mp4",""
"null","","","html-keyboard-response","127","788597","0.0-127.0","dn28g3pa","","<span style=""color:Black; font-size:50px;"">Video 2</span>","null","","","","",""
"null","","","video-keyboard-response","128","791702","0.0-128.0","dn28g3pa","","","null","","<span style=""color:Black; font-size:50px;"">Casey","Casey","STIM_SET_4/1591781.bmp_pp98_L1_V1_veridical_freeview_isoFalse_fps144.mp4",""
"","","","call-function","129","791702","0.0-129.0","dn28g3pa","","","","","","","",""
"807.1450000000186","","","categorize-html","130","794512","0.0-130.0","dn28g3pa","","Which video showed <span style=""font-size:30px"">Sandy's</span> attention?","50","","","","","false"
"null","","","html-keyboard-response","131","795013","0.0-131.0","dn28g3pa",""," ","null","","","","",""
"","","","call-function","132","795014","0.0-132.0","dn28g3pa","","","","","","","",""
"null","","","html-keyboard-response","133","796516","0.0-133.0","dn28g3pa","","<span style=""color:Black; font-size:50px;"">Video 1</span>","null","","","","",""
"null","","","video-keyboard-response","134","799579","0.0-134.0","dn28g3pa","","","null","","<span style=""color:Black; font-size:50px;"">Casey","Casey","STIM_SET_4/286066.bmp_pp98_L1_V1_veridical_freeview_isoFalse_fps144.mp4",""
"null","","","html-keyboard-response","135","801086","0.0-135.0","dn28g3pa","","<span style=""color:Black; font-size:50px;"">Video 2</span>","null","","","","",""
"null","","","video-keyboard-response","136","804162","0.0-136.0","dn28g3pa","","","null","","<span style=""color:Black; font-size:50px;"">Sandy","Sandy","STIM_SET_4/286066.bmp_pp51_L1_V1_veridical_freeview_isoFalse_fps144.mp4",""
"","","","call-function","137","804163","0.0-137.0","dn28g3pa","","","","","","","",""
"1042.4400000000605","","","categorize-html","138","807208","0.0-138.0","dn28g3pa","","Which video showed <span style=""font-size:30px"">Sandy's</span> attention?","50","","","","","true"
"null","","","html-keyboard-response","139","807710","0.0-139.0","dn28g3pa",""," ","null","","","","",""
"","","","call-function","140","807710","0.0-140.0","dn28g3pa","","","","","","","",""
"null","","","html-keyboard-response","141","809212","0.0-141.0","dn28g3pa","","<span style=""color:Black; font-size:50px;"">Video 1</span>","null","","","","",""
"null","","","video-keyboard-response","142","812288","0.0-142.0","dn28g3pa","","","null","","<span style=""color:Black; font-size:50px;"">Casey","Casey","STIM_SET_4/498280.bmp_pp98_L1_V1_veridical_freeview_isoFalse_fps144.mp4",""
"null","","","html-keyboard-response","143","813794","0.0-143.0","dn28g3pa","","<span style=""color:Black; font-size:50px;"">Video 2</span>","null","","","","",""
"null","","","video-keyboard-response","144","816859","0.0-144.0","dn28g3pa","","","null","","<span style=""color:Black; font-size:50px;"">Sandy","Sandy","STIM_SET_4/498280.bmp_pp51_L1_V1_veridical_freeview_isoFalse_fps144.mp4",""
"","","","call-function","145","816859","0.0-145.0","dn28g3pa","","","","","","","",""
"738.2800000000279","","","categorize-html","146","819600","0.0-146.0","dn28g3pa","","Which video showed <span style=""font-size:30px"">Sandy's</span> attention?","50","","","","","true"
"null","","","html-keyboard-response","147","820104","0.0-147.0","dn28g3pa",""," ","null","","","","",""
"","","","call-function","148","820105","0.0-148.0","dn28g3pa","","","","","","","",""
"null","","","html-keyboard-response","149","821607","0.0-149.0","dn28g3pa","","<span style=""color:Black; font-size:50px;"">Video 1</span>","null","","","","",""
"null","","","video-keyboard-response","150","824710","0.0-150.0","dn28g3pa","","","null","","<span style=""color:Black; font-size:50px;"">Sandy","Sandy","STIM_SET_4/1159318.bmp_pp51_L1_V1_veridical_freeview_isoFalse_fps144.mp4",""
"null","","","html-keyboard-response","151","826217","0.0-151.0","dn28g3pa","","<span style=""color:Black; font-size:50px;"">Video 2</span>","null","","","","",""
"null","","","video-keyboard-response","152","829336","0.0-152.0","dn28g3pa","","","null","","<span style=""color:Black; font-size:50px;"">Casey","Casey","STIM_SET_4/1159318.bmp_pp98_L1_V1_veridical_freeview_isoFalse_fps144.mp4",""
"","","","call-function","153","829336","0.0-153.0","dn28g3pa","","","","","","","",""
"1285.530000000028","","","categorize-html","154","832628","0.0-154.0","dn28g3pa","","Which video showed <span style=""font-size:30px"">Sandy's</span> attention?","49","","","","","true"
"null","","","html-keyboard-response","155","833131","0.0-155.0","dn28g3pa",""," ","null","","","","",""
"","","","call-function","156","833131","0.0-156.0","dn28g3pa","","","","","","","",""
"null","","","html-keyboard-response","157","834634","0.0-157.0","dn28g3pa","","<span style=""color:Black; font-size:50px;"">Video 1</span>","null","","","","",""
"null","","","video-keyboard-response","158","837718","0.0-158.0","dn28g3pa","","","null","","<span style=""color:Black; font-size:50px;"">Sandy","Sandy","STIM_SET_4/713330.bmp_pp51_L1_V1_veridical_freeview_isoFalse_fps144.mp4",""
"null","","","html-keyboard-response","159","839222","0.0-159.0","dn28g3pa","","<span style=""color:Black; font-size:50px;"">Video 2</span>","null","","","","",""
"null","","","video-keyboard-response","160","842321","0.0-160.0","dn28g3pa","","","null","","<span style=""color:Black; font-size:50px;"">Casey","Casey","STIM_SET_4/713330.bmp_pp98_L1_V1_veridical_freeview_isoFalse_fps144.mp4",""
"","","","call-function","161","842321","0.0-161.0","dn28g3pa","","","","","","","",""
"908.4650000000838","","","categorize-html","162","845236","0.0-162.0","dn28g3pa","","Which video showed <span style=""font-size:30px"">Sandy's</span> attention?","49","","","","","true"
"null","","","html-keyboard-response","163","845739","0.0-163.0","dn28g3pa",""," ","null","","","","",""
"","","","call-function","164","845739","0.0-164.0","dn28g3pa","","","","","","","",""
"null","","","html-keyboard-response","165","847245","0.0-165.0","dn28g3pa","","<span style=""color:Black; font-size:50px;"">Video 1</span>","null","","","","",""
"null","","","video-keyboard-response","166","850341","0.0-166.0","dn28g3pa","","","null","","<span style=""color:Black; font-size:50px;"">Sandy","Sandy","STIM_SET_4/1159973.bmp_pp51_L1_V1_veridical_freeview_isoFalse_fps144.mp4",""
"null","","","html-keyboard-response","167","851847","0.0-167.0","dn28g3pa","","<span style=""color:Black; font-size:50px;"">Video 2</span>","null","","","","",""
"null","","","video-keyboard-response","168","854941","0.0-168.0","dn28g3pa","","","null","","<span style=""color:Black; font-size:50px;"">Casey","Casey","STIM_SET_4/1159973.bmp_pp98_L1_V1_veridical_freeview_isoFalse_fps144.mp4",""
"","","","call-function","169","854942","0.0-169.0","dn28g3pa","","","","","","","",""
"1527.9399999999441","","","categorize-html","170","858473","0.0-170.0","dn28g3pa","","Which video showed <span style=""font-size:30px"">Sandy's</span> attention?","49","","","","","true"
"null","","","html-keyboard-response","171","858975","0.0-171.0","dn28g3pa",""," ","null","","","","",""
"4537.280000000028","","","instructions","172","863513","0.0-172.0","dn28g3pa","[{""page_index"":0,""viewing_time"":1444.920000000042},{""page_index"":1,""viewing_time"":1902.9449999999488},{""page_index"":2,""viewing_time"":1189.2100000000792}]","","","","","","",""
"2531.4000000000233","","","instructions","173","866044","0.0-173.0","dn28g3pa","[{""page_index"":0,""viewing_time"":632.3050000000512},{""page_index"":1,""viewing_time"":797.2249999999767},{""page_index"":2,""viewing_time"":1101.765000000014}]","","","","","","",""
"","","","call-function","174","866045","0.0-174.0","dn28g3pa","","","","","","","",""
"null","","","html-keyboard-response","175","867546","0.0-175.0","dn28g3pa","","<span style=""color:Black; font-size:50px;"">Video 1</span>","null","","","","",""
"null","","","video-keyboard-response","176","870613","0.0-176.0","dn28g3pa","","","null","","<span style=""color:Black; font-size:50px;"">Sandy","Sandy","STIM_SET_4/1159819.bmp_pp51_L1_V1_veridical_freeview_isoFalse_fps144.mp4",""
"null","","","html-keyboard-response","177","872119","0.0-177.0","dn28g3pa","","<span style=""color:Black; font-size:50px;"">Video 2</span>","null","","","","",""
"null","","","video-keyboard-response","178","875222","0.0-178.0","dn28g3pa","","","null","","<span style=""color:Black; font-size:50px;"">Casey","Casey","STIM_SET_4/1159819.bmp_pp98_L1_V1_veridical_freeview_isoFalse_fps144.mp4",""
"","","","call-function","179","875223","0.0-179.0","dn28g3pa","","","","","","","",""
"982.6750000000466","","","categorize-html","180","878209","0.0-180.0","dn28g3pa","","Which video showed <span style=""font-size:30px"">Sandy's</span> attention?","49","","","","","true"
"null","","","html-keyboard-response","181","878713","0.0-181.0","dn28g3pa",""," ","null","","","","",""
"","","","call-function","182","878713","0.0-182.0","dn28g3pa","","","","","","","",""
"null","","","html-keyboard-response","183","880215","0.0-183.0","dn28g3pa","","<span style=""color:Black; font-size:50px;"">Video 1</span>","null","","","","",""
"null","","","video-keyboard-response","184","883277","0.0-184.0","dn28g3pa","","","null","","<span style=""color:Black; font-size:50px;"">Sandy","Sandy","STIM_SET_4/1593056.bmp_pp51_L1_V1_veridical_freeview_isoFalse_fps144.mp4",""
"null","","","html-keyboard-response","185","884783","0.0-185.0","dn28g3pa","","<span style=""color:Black; font-size:50px;"">Video 2</span>","null","","","","",""
"null","","","video-keyboard-response","186","887859","0.0-186.0","dn28g3pa","","","null","","<span style=""color:Black; font-size:50px;"">Casey","Casey","STIM_SET_4/1593056.bmp_pp98_L1_V1_veridical_freeview_isoFalse_fps144.mp4",""
"","","","call-function","187","887859","0.0-187.0","dn28g3pa","","","","","","","",""
"770.2150000000838","","","categorize-html","188","890634","0.0-188.0","dn28g3pa","","Which video showed <span style=""font-size:30px"">Sandy's</span> attention?","49","","","","","true"
"null","","","html-keyboard-response","189","891138","0.0-189.0","dn28g3pa",""," ","null","","","","",""
"","","","call-function","190","891139","0.0-190.0","dn28g3pa","","","","","","","",""
"null","","","html-keyboard-response","191","892645","0.0-191.0","dn28g3pa","","<span style=""color:Black; font-size:50px;"">Video 1</span>","null","","","","",""
"null","","","video-keyboard-response","192","895797","0.0-192.0","dn28g3pa","","","null","","<span style=""color:Black; font-size:50px;"">Sandy","Sandy","STIM_SET_4/1159572.bmp_pp51_L1_V1_veridical_freeview_isoFalse_fps144.mp4",""
"null","","","html-keyboard-response","193","897303","0.0-193.0","dn28g3pa","","<span style=""color:Black; font-size:50px;"">Video 2</span>","null","","","","",""
"null","","","video-keyboard-response","194","900406","0.0-194.0","dn28g3pa","","","null","","<span style=""color:Black; font-size:50px;"">Casey","Casey","STIM_SET_4/1159572.bmp_pp98_L1_V1_veridical_freeview_isoFalse_fps144.mp4",""
"","","","call-function","195","900407","0.0-195.0","dn28g3pa","","","","","","","",""
"830.7850000000326","","","categorize-html","196","903242","0.0-196.0","dn28g3pa","","Which video showed <span style=""font-size:30px"">Sandy's</span> attention?","50","","","","","false"
"null","","","html-keyboard-response","197","903746","0.0-197.0","dn28g3pa",""," ","null","","","","",""
"","","","call-function","198","903746","0.0-198.0","dn28g3pa","","","","","","","",""
"null","","","html-keyboard-response","199","905249","0.0-199.0","dn28g3pa","","<span style=""color:Black; font-size:50px;"">Video 1</span>","null","","","","",""
"null","","","video-keyboard-response","200","908397","0.0-200.0","dn28g3pa","","","null","","<span style=""color:Black; font-size:50px;"">Sandy","Sandy","STIM_SET_4/107906.bmp_pp51_L1_V1_veridical_freeview_isoFalse_fps144.mp4",""
"null","","","html-keyboard-response","201","909901","0.0-201.0","dn28g3pa","","<span style=""color:Black; font-size:50px;"">Video 2</span>","null","","","","",""
"null","","","video-keyboard-response","202","913015","0.0-202.0","dn28g3pa","","","null","","<span style=""color:Black; font-size:50px;"">Casey","Casey","STIM_SET_4/107906.bmp_pp98_L1_V1_veridical_freeview_isoFalse_fps144.mp4",""
"","","","call-function","203","913016","0.0-203.0","dn28g3pa","","","","","","","",""
"710.3100000000559","","","categorize-html","204","915732","0.0-204.0","dn28g3pa","","Which video showed <span style=""font-size:30px"">Sandy's</span> attention?","49","","","","","true"
"null","","","html-keyboard-response","205","916234","0.0-205.0","dn28g3pa",""," ","null","","","","",""
"","","","call-function","206","916235","0.0-206.0","dn28g3pa","","","","","","","",""
"null","","","html-keyboard-response","207","917741","0.0-207.0","dn28g3pa","","<span style=""color:Black; font-size:50px;"">Video 1</span>","null","","","","",""
"null","","","video-keyboard-response","208","920840","0.0-208.0","dn28g3pa","","","null","","<span style=""color:Black; font-size:50px;"">Casey","Casey","STIM_SET_4/1591909.bmp_pp98_L1_V1_veridical_freeview_isoFalse_fps144.mp4",""
"null","","","html-keyboard-response","209","922342","0.0-209.0","dn28g3pa","","<span style=""color:Black; font-size:50px;"">Video 2</span>","null","","","","",""
"null","","","video-keyboard-response","210","925452","0.0-210.0","dn28g3pa","","","null","","<span style=""color:Black; font-size:50px;"">Sandy","Sandy","STIM_SET_4/1591909.bmp_pp51_L1_V1_veridical_freeview_isoFalse_fps144.mp4",""
"","","","call-function","211","925452","0.0-211.0","dn28g3pa","","","","","","","",""
"1081.6600000000326","","","categorize-html","212","928539","0.0-212.0","dn28g3pa","","Which video showed <span style=""font-size:30px"">Sandy's</span> attention?","49","","","","","false"
"null","","","html-keyboard-response","213","929044","0.0-213.0","dn28g3pa",""," ","null","","","","",""
"","","","call-function","214","929044","0.0-214.0","dn28g3pa","","","","","","","",""
"null","","","html-keyboard-response","215","930550","0.0-215.0","dn28g3pa","","<span style=""color:Black; font-size:50px;"">Video 1</span>","null","","","","",""
"null","","","video-keyboard-response","216","933692","0.0-216.0","dn28g3pa","","","null","","<span style=""color:Black; font-size:50px;"">Sandy","Sandy","STIM_SET_4/1593047.bmp_pp51_L1_V1_veridical_freeview_isoFalse_fps144.mp4",""
"null","","","html-keyboard-response","217","935195","0.0-217.0","dn28g3pa","","<span style=""color:Black; font-size:50px;"">Video 2</span>","null","","","","",""
"null","","","video-keyboard-response","218","938273","0.0-218.0","dn28g3pa","","","null","","<span style=""color:Black; font-size:50px;"">Casey","Casey","STIM_SET_4/1593047.bmp_pp98_L1_V1_veridical_freeview_isoFalse_fps144.mp4",""
"","","","call-function","219","938273","0.0-219.0","dn28g3pa","","","","","","","",""
"556.8149999999441","","","categorize-html","220","940837","0.0-220.0","dn28g3pa","","Which video showed <span style=""font-size:30px"">Sandy's</span> attention?","49","","","","","true"
"null","","","html-keyboard-response","221","941341","0.0-221.0","dn28g3pa",""," ","null","","","","",""
"","","","call-function","222","941341","0.0-222.0","dn28g3pa","","","","","","","",""
"null","","","html-keyboard-response","223","942844","0.0-223.0","dn28g3pa","","<span style=""color:Black; font-size:50px;"">Video 1</span>","null","","","","",""
"null","","","video-keyboard-response","224","945913","0.0-224.0","dn28g3pa","","","null","","<span style=""color:Black; font-size:50px;"">Sandy","Sandy","STIM_SET_4/1159463.bmp_pp51_L1_V1_veridical_freeview_isoFalse_fps144.mp4",""
"null","","","html-keyboard-response","225","947415","0.0-225.0","dn28g3pa","","<span style=""color:Black; font-size:50px;"">Video 2</span>","null","","","","",""
"null","","","video-keyboard-response","226","950482","0.0-226.0","dn28g3pa","","","null","","<span style=""color:Black; font-size:50px;"">Casey","Casey","STIM_SET_4/1159463.bmp_pp98_L1_V1_veridical_freeview_isoFalse_fps144.mp4",""
"","","","call-function","227","950482","0.0-227.0","dn28g3pa","","","","","","","",""
"763.4699999999721","","","categorize-html","228","953250","0.0-228.0","dn28g3pa","","Which video showed <span style=""font-size:30px"">Sandy's</span> attention?","50","","","","","false"
"null","","","html-keyboard-response","229","953753","0.0-229.0","dn28g3pa",""," ","null","","","","",""
"","","","call-function","230","953753","0.0-230.0","dn28g3pa","","","","","","","",""
"null","","","html-keyboard-response","231","955259","0.0-231.0","dn28g3pa","","<span style=""color:Black; font-size:50px;"">Video 1</span>","null","","","","",""
"null","","","video-keyboard-response","232","958369","0.0-232.0","dn28g3pa","","","null","","<span style=""color:Black; font-size:50px;"">Casey","Casey","STIM_SET_4/150303.bmp_pp98_L1_V1_veridical_freeview_isoFalse_fps144.mp4",""
"null","","","html-keyboard-response","233","959871","0.0-233.0","dn28g3pa","","<span style=""color:Black; font-size:50px;"">Video 2</span>","null","","","","",""
"null","","","video-keyboard-response","234","962985","0.0-234.0","dn28g3pa","","","null","","<span style=""color:Black; font-size:50px;"">Sandy","Sandy","STIM_SET_4/150303.bmp_pp51_L1_V1_veridical_freeview_isoFalse_fps144.mp4",""
"","","","call-function","235","962985","0.0-235.0","dn28g3pa","","","","","","","",""
"1204.5899999999674","","","categorize-html","236","966195","0.0-236.0","dn28g3pa","","Which video showed <span style=""font-size:30px"">Sandy's</span> attention?","49","","","","","false"
"null","","","html-keyboard-response","237","966697","0.0-237.0","dn28g3pa",""," ","null","","","","",""
"","","","call-function","238","966697","0.0-238.0","dn28g3pa","","","","","","","",""
"null","","","html-keyboard-response","239","968203","0.0-239.0","dn28g3pa","","<span style=""color:Black; font-size:50px;"">Video 1</span>","null","","","","",""
"null","","","video-keyboard-response","240","971308","0.0-240.0","dn28g3pa","","","null","","<span style=""color:Black; font-size:50px;"">Sandy","Sandy","STIM_SET_4/1159425.bmp_pp51_L1_V1_veridical_freeview_isoFalse_fps144.mp4",""
"null","","","html-keyboard-response","241","972814","0.0-241.0","dn28g3pa","","<span style=""color:Black; font-size:50px;"">Video 2</span>","null","","","","",""
"null","","","video-keyboard-response","242","975921","0.0-242.0","dn28g3pa","","","null","","<span style=""color:Black; font-size:50px;"">Casey","Casey","STIM_SET_4/1159425.bmp_pp98_L1_V1_veridical_freeview_isoFalse_fps144.mp4",""
"","","","call-function","243","975922","0.0-243.0","dn28g3pa","","","","","","","",""
"860.1350000000093","","","categorize-html","244","978784","0.0-244.0","dn28g3pa","","Which video showed <span style=""font-size:30px"">Sandy's</span> attention?","49","","","","","true"
"null","","","html-keyboard-response","245","979287","0.0-245.0","dn28g3pa",""," ","null","","","","",""
"","","","call-function","246","979287","0.0-246.0","dn28g3pa","","","","","","","",""
"null","","","html-keyboard-response","247","980790","0.0-247.0","dn28g3pa","","<span style=""color:Black; font-size:50px;"">Video 1</span>","null","","","","",""
"null","","","video-keyboard-response","248","983929","0.0-248.0","dn28g3pa","","","null","","<span style=""color:Black; font-size:50px;"">Sandy","Sandy","STIM_SET_4/713024.bmp_pp51_L1_V1_veridical_freeview_isoFalse_fps144.mp4",""
"null","","","html-keyboard-response","249","985432","0.0-249.0","dn28g3pa","","<span style=""color:Black; font-size:50px;"">Video 2</span>","null","","","","",""
"null","","","video-keyboard-response","250","988534","0.0-250.0","dn28g3pa","","","null","","<span style=""color:Black; font-size:50px;"">Casey","Casey","STIM_SET_4/713024.bmp_pp98_L1_V1_veridical_freeview_isoFalse_fps144.mp4",""
"","","","call-function","251","988534","0.0-251.0","dn28g3pa","","","","","","","",""
"2552.155000000028","","","categorize-html","252","993092","0.0-252.0","dn28g3pa","","Which video showed <span style=""font-size:30px"">Sandy's</span> attention?","49","","","","","true"
"null","","","html-keyboard-response","253","993593","0.0-253.0","dn28g3pa",""," ","null","","","","",""
"110206.29500000004","","","instructions","254","1103800","0.0-254.0","dn28g3pa","[{""page_index"":0,""viewing_time"":108023.15499999991},{""page_index"":1,""viewing_time"":1410.9599999999627},{""page_index"":2,""viewing_time"":772.0700000000652}]","","","","","","",""
"7273.929999999935","","","instructions","255","1111074","0.0-255.0","dn28g3pa","[{""page_index"":0,""viewing_time"":3406.6700000001583},{""page_index"":1,""viewing_time"":2322.0149999998976},{""page_index"":2,""viewing_time"":1545.125}]","","","","","","",""
"","","","call-function","256","1111075","0.0-256.0","dn28g3pa","","","","","","","",""
"null","","","html-keyboard-response","257","1112577","0.0-257.0","dn28g3pa","","<span style=""color:Black; font-size:50px;"">Video 1</span>","null","","","","",""
"null","","","video-keyboard-response","258","1115638","0.0-258.0","dn28g3pa","","","null","","<span style=""color:Black; font-size:50px;"">Casey","Casey","STIM_SET_4/150474.bmp_pp98_L1_V1_veridical_freeview_isoFalse_fps144.mp4",""
"null","","","html-keyboard-response","259","1117140","0.0-259.0","dn28g3pa","","<span style=""color:Black; font-size:50px;"">Video 2</span>","null","","","","",""
"null","","","video-keyboard-response","260","1120234","0.0-260.0","dn28g3pa","","","null","","<span style=""color:Black; font-size:50px;"">Sandy","Sandy","STIM_SET_4/150474.bmp_pp51_L1_V1_veridical_freeview_isoFalse_fps144.mp4",""
"","","","call-function","261","1120234","0.0-261.0","dn28g3pa","","","","","","","",""
"4827.800000000047","","","categorize-html","262","1127069","0.0-262.0","dn28g3pa","","Which video showed <span style=""font-size:30px"">Sandy's</span> attention?","50","","","","","true"
"null","","","html-keyboard-response","263","1127571","0.0-263.0","dn28g3pa",""," ","null","","","","",""
"","","","call-function","264","1127571","0.0-264.0","dn28g3pa","","","","","","","",""
"null","","","html-keyboard-response","265","1129076","0.0-265.0","dn28g3pa","","<span style=""color:Black; font-size:50px;"">Video 1</span>","null","","","","",""
"null","","","video-keyboard-response","266","1132136","0.0-266.0","dn28g3pa","","","null","","<span style=""color:Black; font-size:50px;"">Sandy","Sandy","STIM_SET_4/1592017.bmp_pp51_L1_V1_veridical_freeview_isoFalse_fps144.mp4",""
"null","","","html-keyboard-response","267","1133641","0.0-267.0","dn28g3pa","","<span style=""color:Black; font-size:50px;"">Video 2</span>","null","","","","",""
"null","","","video-keyboard-response","268","1136716","0.0-268.0","dn28g3pa","","","null","","<span style=""color:Black; font-size:50px;"">Casey","Casey","STIM_SET_4/1592017.bmp_pp98_L1_V1_veridical_freeview_isoFalse_fps144.mp4",""
"","","","call-function","269","1136716","0.0-269.0","dn28g3pa","","","","","","","",""
"1338.219999999972","","","categorize-html","270","1140057","0.0-270.0","dn28g3pa","","Which video showed <span style=""font-size:30px"">Sandy's</span> attention?","49","","","","","true"
"null","","","html-keyboard-response","271","1140563","0.0-271.0","dn28g3pa",""," ","null","","","","",""
"","","","call-function","272","1140564","0.0-272.0","dn28g3pa","","","","","","","",""
"null","","","html-keyboard-response","273","1142066","0.0-273.0","dn28g3pa","","<span style=""color:Black; font-size:50px;"">Video 1</span>","null","","","","",""
"null","","","video-keyboard-response","274","1145195","0.0-274.0","dn28g3pa","","","null","","<span style=""color:Black; font-size:50px;"">Sandy","Sandy","STIM_SET_4/1159749.bmp_pp51_L1_V1_veridical_freeview_isoFalse_fps144.mp4",""
"null","","","html-keyboard-response","275","1146697","0.0-275.0","dn28g3pa","","<span style=""color:Black; font-size:50px;"">Video 2</span>","null","","","","",""
"null","","","video-keyboard-response","276","1149763","0.0-276.0","dn28g3pa","","","null","","<span style=""color:Black; font-size:50px;"">Casey","Casey","STIM_SET_4/1159749.bmp_pp98_L1_V1_veridical_freeview_isoFalse_fps144.mp4",""
"","","","call-function","277","1149764","0.0-277.0","dn28g3pa","","","","","","","",""
"1585.690000000177","","","categorize-html","278","1153354","0.0-278.0","dn28g3pa","","Which video showed <span style=""font-size:30px"">Sandy's</span> attention?","49","","","","","true"
"null","","","html-keyboard-response","279","1153861","0.0-279.0","dn28g3pa",""," ","null","","","","",""
"","","","call-function","280","1153862","0.0-280.0","dn28g3pa","","","","","","","",""
"null","","","html-keyboard-response","281","1155366","0.0-281.0","dn28g3pa","","<span style=""color:Black; font-size:50px;"">Video 1</span>","null","","","","",""
"null","","","video-keyboard-response","282","1158433","0.0-282.0","dn28g3pa","","","null","","<span style=""color:Black; font-size:50px;"">Casey","Casey","STIM_SET_4/713228.bmp_pp98_L1_V1_veridical_freeview_isoFalse_fps144.mp4",""
"null","","","html-keyboard-response","283","1159937","0.0-283.0","dn28g3pa","","<span style=""color:Black; font-size:50px;"">Video 2</span>","null","","","","",""
"null","","","video-keyboard-response","284","1163026","0.0-284.0","dn28g3pa","","","null","","<span style=""color:Black; font-size:50px;"">Sandy","Sandy","STIM_SET_4/713228.bmp_pp51_L1_V1_veridical_freeview_isoFalse_fps144.mp4",""
"","","","call-function","285","1163027","0.0-285.0","dn28g3pa","","","","","","","",""
"1011.5150000001304","","","categorize-html","286","1166041","0.0-286.0","dn28g3pa","","Which video showed <span style=""font-size:30px"">Sandy's</span> attention?","50","","","","","true"
"null","","","html-keyboard-response","287","1166547","0.0-287.0","dn28g3pa",""," ","null","","","","",""
"","","","call-function","288","1166548","0.0-288.0","dn28g3pa","","","","","","","",""
"null","","","html-keyboard-response","289","1168052","0.0-289.0","dn28g3pa","","<span style=""color:Black; font-size:50px;"">Video 1</span>","null","","","","",""
"null","","","video-keyboard-response","290","1171136","0.0-290.0","dn28g3pa","","","null","","<span style=""color:Black; font-size:50px;"">Casey","Casey","STIM_SET_4/285933.bmp_pp98_L1_V1_veridical_freeview_isoFalse_fps144.mp4",""
"null","","","html-keyboard-response","291","1172643","0.0-291.0","dn28g3pa","","<span style=""color:Black; font-size:50px;"">Video 2</span>","null","","","","",""
"null","","","video-keyboard-response","292","1175762","0.0-292.0","dn28g3pa","","","null","","<span style=""color:Black; font-size:50px;"">Sandy","Sandy","STIM_SET_4/285933.bmp_pp51_L1_V1_veridical_freeview_isoFalse_fps144.mp4",""
"","","","call-function","293","1175763","0.0-293.0","dn28g3pa","","","","","","","",""
"2019.4650000000838","","","categorize-html","294","1179788","0.0-294.0","dn28g3pa","","Which video showed <span style=""font-size:30px"">Sandy's</span> attention?","49","","","","","false"
"null","","","html-keyboard-response","295","1180290","0.0-295.0","dn28g3pa",""," ","null","","","","",""
"","","","call-function","296","1180291","0.0-296.0","dn28g3pa","","","","","","","",""
"null","","","html-keyboard-response","297","1181797","0.0-297.0","dn28g3pa","","<span style=""color:Black; font-size:50px;"">Video 1</span>","null","","","","",""
"null","","","video-keyboard-response","298","1184917","0.0-298.0","dn28g3pa","","","null","","<span style=""color:Black; font-size:50px;"">Sandy","Sandy","STIM_SET_4/1159427.bmp_pp51_L1_V1_veridical_freeview_isoFalse_fps144.mp4",""
"null","","","html-keyboard-response","299","1186421","0.0-299.0","dn28g3pa","","<span style=""color:Black; font-size:50px;"">Video 2</span>","null","","","","",""
"null","","","video-keyboard-response","300","1189509","0.0-300.0","dn28g3pa","","","null","","<span style=""color:Black; font-size:50px;"">Casey","Casey","STIM_SET_4/1159427.bmp_pp98_L1_V1_veridical_freeview_isoFalse_fps144.mp4",""
"","","","call-function","301","1189510","0.0-301.0","dn28g3pa","","","","","","","",""
"3192.679999999935","","","categorize-html","302","1194706","0.0-302.0","dn28g3pa","","Which video showed <span style=""font-size:30px"">Sandy's</span> attention?","49","","","","","true"
"null","","","html-keyboard-response","303","1195209","0.0-303.0","dn28g3pa",""," ","null","","","","",""
"","","","call-function","304","1195209","0.0-304.0","dn28g3pa","","","","","","","",""
"null","","","html-keyboard-response","305","1196711","0.0-305.0","dn28g3pa","","<span style=""color:Black; font-size:50px;"">Video 1</span>","null","","","","",""
"null","","","video-keyboard-response","306","1199827","0.0-306.0","dn28g3pa","","","null","","<span style=""color:Black; font-size:50px;"">Sandy","Sandy","STIM_SET_4/498025.bmp_pp51_L1_V1_veridical_freeview_isoFalse_fps144.mp4",""
"null","","","html-keyboard-response","307","1201328","0.0-307.0","dn28g3pa","","<span style=""color:Black; font-size:50px;"">Video 2</span>","null","","","","",""
"null","","","video-keyboard-response","308","1204414","0.0-308.0","dn28g3pa","","","null","","<span style=""color:Black; font-size:50px;"">Casey","Casey","STIM_SET_4/498025.bmp_pp98_L1_V1_veridical_freeview_isoFalse_fps144.mp4",""
"","","","call-function","309","1204414","0.0-309.0","dn28g3pa","","","","","","","",""
"832.1650000000373","","","categorize-html","310","1207253","0.0-310.0","dn28g3pa","","Which video showed <span style=""font-size:30px"">Sandy's</span> attention?","49","","","","","true"
"null","","","html-keyboard-response","311","1207760","0.0-311.0","dn28g3pa",""," ","null","","","","",""
"","","","call-function","312","1207760","0.0-312.0","dn28g3pa","","","","","","","",""
"null","","","html-keyboard-response","313","1209262","0.0-313.0","dn28g3pa","","<span style=""color:Black; font-size:50px;"">Video 1</span>","null","","","","",""
"null","","","video-keyboard-response","314","1212405","0.0-314.0","dn28g3pa","","","null","","<span style=""color:Black; font-size:50px;"">Sandy","Sandy","STIM_SET_4/1592094.bmp_pp51_L1_V1_veridical_freeview_isoFalse_fps144.mp4",""
"null","","","html-keyboard-response","315","1213907","0.0-315.0","dn28g3pa","","<span style=""color:Black; font-size:50px;"">Video 2</span>","null","","","","",""
"null","","","video-keyboard-response","316","1216980","0.0-316.0","dn28g3pa","","","null","","<span style=""color:Black; font-size:50px;"">Casey","Casey","STIM_SET_4/1592094.bmp_pp98_L1_V1_veridical_freeview_isoFalse_fps144.mp4",""
"","","","call-function","317","1216980","0.0-317.0","dn28g3pa","","","","","","","",""
"898.2449999998789","","","categorize-html","318","1219882","0.0-318.0","dn28g3pa","","Which video showed <span style=""font-size:30px"">Sandy's</span> attention?","49","","","","","true"
"null","","","html-keyboard-response","319","1220386","0.0-319.0","dn28g3pa",""," ","null","","","","",""
"","","","call-function","320","1220386","0.0-320.0","dn28g3pa","","","","","","","",""
"null","","","html-keyboard-response","321","1221891","0.0-321.0","dn28g3pa","","<span style=""color:Black; font-size:50px;"">Video 1</span>","null","","","","",""
"null","","","video-keyboard-response","322","1224952","0.0-322.0","dn28g3pa","","","null","","<span style=""color:Black; font-size:50px;"">Casey","Casey","STIM_SET_4/713936.bmp_pp98_L1_V1_veridical_freeview_isoFalse_fps144.mp4",""
"null","","","html-keyboard-response","323","1226455","0.0-323.0","dn28g3pa","","<span style=""color:Black; font-size:50px;"">Video 2</span>","null","","","","",""
"null","","","video-keyboard-response","324","1229555","0.0-324.0","dn28g3pa","","","null","","<span style=""color:Black; font-size:50px;"">Sandy","Sandy","STIM_SET_4/713936.bmp_pp51_L1_V1_veridical_freeview_isoFalse_fps144.mp4",""
"","","","call-function","325","1229556","0.0-325.0","dn28g3pa","","","","","","","",""
"402.7600000000093","","","categorize-html","326","1231961","0.0-326.0","dn28g3pa","","Which video showed <span style=""font-size:30px"">Sandy's</span> attention?","50","","","","","true"
"null","","","html-keyboard-response","327","1232467","0.0-327.0","dn28g3pa",""," ","null","","","","",""
"","","","call-function","328","1232468","0.0-328.0","dn28g3pa","","","","","","","",""
"null","","","html-keyboard-response","329","1233970","0.0-329.0","dn28g3pa","","<span style=""color:Black; font-size:50px;"">Video 1</span>","null","","","","",""
"null","","","video-keyboard-response","330","1237058","0.0-330.0","dn28g3pa","","","null","","<span style=""color:Black; font-size:50px;"">Sandy","Sandy","STIM_SET_4/1591838.bmp_pp51_L1_V1_veridical_freeview_isoFalse_fps144.mp4",""
"null","","","html-keyboard-response","331","1238564","0.0-331.0","dn28g3pa","","<span style=""color:Black; font-size:50px;"">Video 2</span>","null","","","","",""
"null","","","video-keyboard-response","332","1241662","0.0-332.0","dn28g3pa","","","null","","<span style=""color:Black; font-size:50px;"">Casey","Casey","STIM_SET_4/1591838.bmp_pp98_L1_V1_veridical_freeview_isoFalse_fps144.mp4",""
"","","","call-function","333","1241662","0.0-333.0","dn28g3pa","","","","","","","",""
"576.1650000000373","","","categorize-html","334","1244246","0.0-334.0","dn28g3pa","","Which video showed <span style=""font-size:30px"">Sandy's</span> attention?","50","","","","","false"
"null","","","html-keyboard-response","335","1244752","0.0-335.0","dn28g3pa",""," ","null","","","","",""
"90679.5149999999","","","instructions","336","1335432","0.0-336.0","dn28g3pa","[{""page_index"":0,""viewing_time"":7226.255000000121},{""page_index"":1,""viewing_time"":82390.32499999995},{""page_index"":2,""viewing_time"":1062.6949999998324}]","","","","","","",""
"3081.9199999999255","","","instructions","337","1338514","0.0-337.0","dn28g3pa","[{""page_index"":0,""viewing_time"":1692.3100000000559},{""page_index"":1,""viewing_time"":822.0649999999441},{""page_index"":2,""viewing_time"":567.4350000000559}]","","","","","","",""
"","","","call-function","338","1338515","0.0-338.0","dn28g3pa","","","","","","","",""
"null","","","html-keyboard-response","339","1340018","0.0-339.0","dn28g3pa","","<span style=""color:Black; font-size:50px;"">Video 1</span>","null","","","","",""
"null","","","video-keyboard-response","340","1343127","0.0-340.0","dn28g3pa","","","null","","<span style=""color:Black; font-size:50px;"">Sandy","Sandy","STIM_SET_4/1592047.bmp_pp51_L1_V1_veridical_freeview_isoFalse_fps144.mp4",""
"null","","","html-keyboard-response","341","1344629","0.0-341.0","dn28g3pa","","<span style=""color:Black; font-size:50px;"">Video 2</span>","null","","","","",""
"null","","","video-keyboard-response","342","1347691","0.0-342.0","dn28g3pa","","","null","","<span style=""color:Black; font-size:50px;"">Casey","Casey","STIM_SET_4/1592047.bmp_pp98_L1_V1_veridical_freeview_isoFalse_fps144.mp4",""
"","","","call-function","343","1347692","0.0-343.0","dn28g3pa","","","","","","","",""
"2082.690000000177","","","categorize-html","344","1351781","0.0-344.0","dn28g3pa","","Which video showed <span style=""font-size:30px"">Sandy's</span> attention?","50","","","","","false"
"null","","","html-keyboard-response","345","1352287","0.0-345.0","dn28g3pa",""," ","null","","","","",""
"","","","call-function","346","1352287","0.0-346.0","dn28g3pa","","","","","","","",""
"null","","","html-keyboard-response","347","1353794","0.0-347.0","dn28g3pa","","<span style=""color:Black; font-size:50px;"">Video 1</span>","null","","","","",""
"null","","","video-keyboard-response","348","1356861","0.0-348.0","dn28g3pa","","","null","","<span style=""color:Black; font-size:50px;"">Casey","Casey","STIM_SET_4/713765.bmp_pp98_L1_V1_veridical_freeview_isoFalse_fps144.mp4",""
"null","","","html-keyboard-response","349","1358365","0.0-349.0","dn28g3pa","","<span style=""color:Black; font-size:50px;"">Video 2</span>","null","","","","",""
"null","","","video-keyboard-response","350","1361432","0.0-350.0","dn28g3pa","","","null","","<span style=""color:Black; font-size:50px;"">Sandy","Sandy","STIM_SET_4/713765.bmp_pp51_L1_V1_veridical_freeview_isoFalse_fps144.mp4",""
"","","","call-function","351","1361432","0.0-351.0","dn28g3pa","","","","","","","",""
"590.6899999999441","","","categorize-html","352","1364029","0.0-352.0","dn28g3pa","","Which video showed <span style=""font-size:30px"">Sandy's</span> attention?","50","","","","","true"
"null","","","html-keyboard-response","353","1364534","0.0-353.0","dn28g3pa",""," ","null","","","","",""
"","","","call-function","354","1364534","0.0-354.0","dn28g3pa","","","","","","","",""
"null","","","html-keyboard-response","355","1366036","0.0-355.0","dn28g3pa","","<span style=""color:Black; font-size:50px;"">Video 1</span>","null","","","","",""
"null","","","video-keyboard-response","356","1369140","0.0-356.0","dn28g3pa","","","null","","<span style=""color:Black; font-size:50px;"">Casey","Casey","STIM_SET_4/285959.bmp_pp98_L1_V1_veridical_freeview_isoFalse_fps144.mp4",""
"null","","","html-keyboard-response","357","1370643","0.0-357.0","dn28g3pa","","<span style=""color:Black; font-size:50px;"">Video 2</span>","null","","","","",""
"null","","","video-keyboard-response","358","1373758","0.0-358.0","dn28g3pa","","","null","","<span style=""color:Black; font-size:50px;"">Sandy","Sandy","STIM_SET_4/285959.bmp_pp51_L1_V1_veridical_freeview_isoFalse_fps144.mp4",""
"","","","call-function","359","1373758","0.0-359.0","dn28g3pa","","","","","","","",""
"912.2699999997858","","","categorize-html","360","1376676","0.0-360.0","dn28g3pa","","Which video showed <span style=""font-size:30px"">Sandy's</span> attention?","50","","","","","true"
"null","","","html-keyboard-response","361","1377182","0.0-361.0","dn28g3pa",""," ","null","","","","",""
"","","","call-function","362","1377182","0.0-362.0","dn28g3pa","","","","","","","",""
"null","","","html-keyboard-response","363","1378685","0.0-363.0","dn28g3pa","","<span style=""color:Black; font-size:50px;"">Video 1</span>","null","","","","",""
"null","","","video-keyboard-response","364","1381787","0.0-364.0","dn28g3pa","","","null","","<span style=""color:Black; font-size:50px;"">Sandy","Sandy","STIM_SET_4/713760.bmp_pp51_L1_V1_veridical_freeview_isoFalse_fps144.mp4",""
"null","","","html-keyboard-response","365","1383288","0.0-365.0","dn28g3pa","","<span style=""color:Black; font-size:50px;"">Video 2</span>","null","","","","",""
"null","","","video-keyboard-response","366","1386384","0.0-366.0","dn28g3pa","","","null","","<span style=""color:Black; font-size:50px;"">Casey","Casey","STIM_SET_4/713760.bmp_pp98_L1_V1_veridical_freeview_isoFalse_fps144.mp4",""
"","","","call-function","367","1386384","0.0-367.0","dn28g3pa","","","","","","","",""
"1718.4799999999814","","","categorize-html","368","1390106","0.0-368.0","dn28g3pa","","Which video showed <span style=""font-size:30px"">Sandy's</span> attention?","49","","","","","true"
"null","","","html-keyboard-response","369","1390610","0.0-369.0","dn28g3pa",""," ","null","","","","",""
"","","","call-function","370","1390610","0.0-370.0","dn28g3pa","","","","","","","",""
"null","","","html-keyboard-response","371","1392113","0.0-371.0","dn28g3pa","","<span style=""color:Black; font-size:50px;"">Video 1</span>","null","","","","",""
"null","","","video-keyboard-response","372","1395200","0.0-372.0","dn28g3pa","","","null","","<span style=""color:Black; font-size:50px;"">Sandy","Sandy","STIM_SET_4/1591876.bmp_pp51_L1_V1_veridical_freeview_isoFalse_fps144.mp4",""
"null","","","html-keyboard-response","373","1396703","0.0-373.0","dn28g3pa","","<span style=""color:Black; font-size:50px;"">Video 2</span>","null","","","","",""
"null","","","video-keyboard-response","374","1399792","0.0-374.0","dn28g3pa","","","null","","<span style=""color:Black; font-size:50px;"">Casey","Casey","STIM_SET_4/1591876.bmp_pp98_L1_V1_veridical_freeview_isoFalse_fps144.mp4",""
"","","","call-function","375","1399792","0.0-375.0","dn28g3pa","","","","","","","",""
"1342.3850000000093","","","categorize-html","376","1403139","0.0-376.0","dn28g3pa","","Which video showed <span style=""font-size:30px"">Sandy's</span> attention?","50","","","","","false"
"null","","","html-keyboard-response","377","1403643","0.0-377.0","dn28g3pa",""," ","null","","","","",""
"","","","call-function","378","1403644","0.0-378.0","dn28g3pa","","","","","","","",""
"null","","","html-keyboard-response","379","1405147","0.0-379.0","dn28g3pa","","<span style=""color:Black; font-size:50px;"">Video 1</span>","null","","","","",""
"null","","","video-keyboard-response","380","1408209","0.0-380.0","dn28g3pa","","","null","","<span style=""color:Black; font-size:50px;"">Sandy","Sandy","STIM_SET_4/1592025.bmp_pp51_L1_V1_veridical_freeview_isoFalse_fps144.mp4",""
"null","","","html-keyboard-response","381","1409711","0.0-381.0","dn28g3pa","","<span style=""color:Black; font-size:50px;"">Video 2</span>","null","","","","",""
"null","","","video-keyboard-response","382","1412774","0.0-382.0","dn28g3pa","","","null","","<span style=""color:Black; font-size:50px;"">Casey","Casey","STIM_SET_4/1592025.bmp_pp98_L1_V1_veridical_freeview_isoFalse_fps144.mp4",""
"","","","call-function","383","1412775","0.0-383.0","dn28g3pa","","","","","","","",""
"1904.160000000149","","","categorize-html","384","1416681","0.0-384.0","dn28g3pa","","Which video showed <span style=""font-size:30px"">Sandy's</span> attention?","50","","","","","false"
"null","","","html-keyboard-response","385","1417187","0.0-385.0","dn28g3pa",""," ","null","","","","",""
"","","","call-function","386","1417188","0.0-386.0","dn28g3pa","","","","","","","",""
"null","","","html-keyboard-response","387","1418694","0.0-387.0","dn28g3pa","","<span style=""color:Black; font-size:50px;"">Video 1</span>","null","","","","",""
"null","","","video-keyboard-response","388","1421806","0.0-388.0","dn28g3pa","","","null","","<span style=""color:Black; font-size:50px;"">Sandy","Sandy","STIM_SET_4/285932.bmp_pp51_L1_V1_veridical_freeview_isoFalse_fps144.mp4",""
"null","","","html-keyboard-response","389","1423312","0.0-389.0","dn28g3pa","","<span style=""color:Black; font-size:50px;"">Video 2</span>","null","","","","",""
"null","","","video-keyboard-response","390","1427736","0.0-390.0","dn28g3pa","","","null","","<span style=""color:Black; font-size:50px;"">Casey","Casey","STIM_SET_4/285932.bmp_pp98_L1_V1_veridical_freeview_isoFalse_fps144.mp4",""
"","","","call-function","391","1427736","0.0-391.0","dn28g3pa","","","","","","","",""
"1222.5250000001397","","","categorize-html","392","1430965","0.0-392.0","dn28g3pa","","Which video showed <span style=""font-size:30px"">Sandy's</span> attention?","49","","","","","true"
"null","","","html-keyboard-response","393","1431472","0.0-393.0","dn28g3pa",""," ","null","","","","",""
"","","","call-function","394","1431472","0.0-394.0","dn28g3pa","","","","","","","",""
"null","","","html-keyboard-response","395","1432975","0.0-395.0","dn28g3pa","","<span style=""color:Black; font-size:50px;"">Video 1</span>","null","","","","",""
"null","","","video-keyboard-response","396","1436080","0.0-396.0","dn28g3pa","","","null","","<span style=""color:Black; font-size:50px;"">Sandy","Sandy","STIM_SET_4/713858.bmp_pp51_L1_V1_veridical_freeview_isoFalse_fps144.mp4",""
"null","","","html-keyboard-response","397","1437583","0.0-397.0","dn28g3pa","","<span style=""color:Black; font-size:50px;"">Video 2</span>","null","","","","",""
"null","","","video-keyboard-response","398","1440730","0.0-398.0","dn28g3pa","","","null","","<span style=""color:Black; font-size:50px;"">Casey","Casey","STIM_SET_4/713858.bmp_pp98_L1_V1_veridical_freeview_isoFalse_fps144.mp4",""
"","","","call-function","399","1440730","0.0-399.0","dn28g3pa","","","","","","","",""
"1404.9800000002142","","","categorize-html","400","1444138","0.0-400.0","dn28g3pa","","Which video showed <span style=""font-size:30px"">Sandy's</span> attention?","50","","","","","false"
"null","","","html-keyboard-response","401","1444645","0.0-401.0","dn28g3pa",""," ","null","","","","",""
"","","","call-function","402","1444645","0.0-402.0","dn28g3pa","","","","","","","",""
"null","","","html-keyboard-response","403","1446152","0.0-403.0","dn28g3pa","","<span style=""color:Black; font-size:50px;"">Video 1</span>","null","","","","",""
"null","","","video-keyboard-response","404","1449262","0.0-404.0","dn28g3pa","","","null","","<span style=""color:Black; font-size:50px;"">Casey","Casey","STIM_SET_4/713888.bmp_pp98_L1_V1_veridical_freeview_isoFalse_fps144.mp4",""
"null","","","html-keyboard-response","405","1450767","0.0-405.0","dn28g3pa","","<span style=""color:Black; font-size:50px;"">Video 2</span>","null","","","","",""
"null","","","video-keyboard-response","406","1453876","0.0-406.0","dn28g3pa","","","null","","<span style=""color:Black; font-size:50px;"">Sandy","Sandy","STIM_SET_4/713888.bmp_pp51_L1_V1_veridical_freeview_isoFalse_fps144.mp4",""
"","","","call-function","407","1453877","0.0-407.0","dn28g3pa","","","","","","","",""
"1578.3599999998696","","","categorize-html","408","1457461","0.0-408.0","dn28g3pa","","Which video showed <span style=""font-size:30px"">Sandy's</span> attention?","50","","","","","true"
"null","","","html-keyboard-response","409","1457964","0.0-409.0","dn28g3pa",""," ","null","","","","",""
"","","","call-function","410","1457964","0.0-410.0","dn28g3pa","","","","","","","",""
"null","","","html-keyboard-response","411","1459467","0.0-411.0","dn28g3pa","","<span style=""color:Black; font-size:50px;"">Video 1</span>","null","","","","",""
"null","","","video-keyboard-response","412","1462560","0.0-412.0","dn28g3pa","","","null","","<span style=""color:Black; font-size:50px;"">Casey","Casey","STIM_SET_4/1160140.bmp_pp98_L1_V1_veridical_freeview_isoFalse_fps144.mp4",""
"null","","","html-keyboard-response","413","1464067","0.0-413.0","dn28g3pa","","<span style=""color:Black; font-size:50px;"">Video 2</span>","null","","","","",""
"null","","","video-keyboard-response","414","1467157","0.0-414.0","dn28g3pa","","","null","","<span style=""color:Black; font-size:50px;"">Sandy","Sandy","STIM_SET_4/1160140.bmp_pp51_L1_V1_veridical_freeview_isoFalse_fps144.mp4",""
"","","","call-function","415","1467158","0.0-415.0","dn28g3pa","","","","","","","",""
"961.0300000000279","","","categorize-html","416","1470123","0.0-416.0","dn28g3pa","","Which video showed <span style=""font-size:30px"">Sandy's</span> attention?","50","","","","","true"
"null","","","html-keyboard-response","417","1470629","0.0-417.0","dn28g3pa",""," ","null","","","","",""
"153822.7450000001","","","instructions","418","1624453","0.0-418.0","dn28g3pa","[{""page_index"":0,""viewing_time"":152699.08000000007},{""page_index"":1,""viewing_time"":612.3899999998976},{""page_index"":2,""viewing_time"":511.160000000149}]","","","","","","",""
"1835.1499999999069","","","instructions","419","1626288","0.0-419.0","dn28g3pa","[{""page_index"":0,""viewing_time"":618.1499999999069},{""page_index"":1,""viewing_time"":804.0200000000186},{""page_index"":2,""viewing_time"":412.8649999999907}]","","","","","","",""
"","","","call-function","420","1626288","0.0-420.0","dn28g3pa","","","","","","","",""
"null","","","html-keyboard-response","421","1627790","0.0-421.0","dn28g3pa","","<span style=""color:Black; font-size:50px;"">Video 1</span>","null","","","","",""
"null","","","video-keyboard-response","422","1630867","0.0-422.0","dn28g3pa","","","null","","<span style=""color:Black; font-size:50px;"">Sandy","Sandy","STIM_SET_4/1159768.bmp_pp51_L1_V1_veridical_freeview_isoFalse_fps144.mp4",""
"null","","","html-keyboard-response","423","1632371","0.0-423.0","dn28g3pa","","<span style=""color:Black; font-size:50px;"">Video 2</span>","null","","","","",""
"null","","","video-keyboard-response","424","1635433","0.0-424.0","dn28g3pa","","","null","","<span style=""color:Black; font-size:50px;"">Casey","Casey","STIM_SET_4/1159768.bmp_pp98_L1_V1_veridical_freeview_isoFalse_fps144.mp4",""
"","","","call-function","425","1635433","0.0-425.0","dn28g3pa","","","","","","","",""
"2333.850000000093","","","categorize-html","426","1639772","0.0-426.0","dn28g3pa","","Which video showed <span style=""font-size:30px"">Sandy's</span> attention?","50","","","","","false"
"null","","","html-keyboard-response","427","1640274","0.0-427.0","dn28g3pa",""," ","null","","","","",""
"","","","call-function","428","1640274","0.0-428.0","dn28g3pa","","","","","","","",""
"null","","","html-keyboard-response","429","1641779","0.0-429.0","dn28g3pa","","<span style=""color:Black; font-size:50px;"">Video 1</span>","null","","","","",""
"null","","","video-keyboard-response","430","1644848","0.0-430.0","dn28g3pa","","","null","","<span style=""color:Black; font-size:50px;"">Casey","Casey","STIM_SET_4/1159440.bmp_pp98_L1_V1_veridical_freeview_isoFalse_fps144.mp4",""
"null","","","html-keyboard-response","431","1646350","0.0-431.0","dn28g3pa","","<span style=""color:Black; font-size:50px;"">Video 2</span>","null","","","","",""
"null","","","video-keyboard-response","432","1649433","0.0-432.0","dn28g3pa","","","null","","<span style=""color:Black; font-size:50px;"">Sandy","Sandy","STIM_SET_4/1159440.bmp_pp51_L1_V1_veridical_freeview_isoFalse_fps144.mp4",""
"","","","call-function","433","1649433","0.0-433.0","dn28g3pa","","","","","","","",""
"966.1899999999441","","","categorize-html","434","1652404","0.0-434.0","dn28g3pa","","Which video showed <span style=""font-size:30px"">Sandy's</span> attention?","49","","","","","false"
"null","","","html-keyboard-response","435","1652905","0.0-435.0","dn28g3pa",""," ","null","","","","",""
"","","","call-function","436","1652906","0.0-436.0","dn28g3pa","","","","","","","",""
"null","","","html-keyboard-response","437","1654412","0.0-437.0","dn28g3pa","","<span style=""color:Black; font-size:50px;"">Video 1</span>","null","","","","",""
"null","","","video-keyboard-response","438","1657514","0.0-438.0","dn28g3pa","","","null","","<span style=""color:Black; font-size:50px;"">Casey","Casey","STIM_SET_4/497974.bmp_pp98_L1_V1_veridical_freeview_isoFalse_fps144.mp4",""
"null","","","html-keyboard-response","439","1659016","0.0-439.0","dn28g3pa","","<span style=""color:Black; font-size:50px;"">Video 2</span>","null","","","","",""
"null","","","video-keyboard-response","440","1662120","0.0-440.0","dn28g3pa","","","null","","<span style=""color:Black; font-size:50px;"">Sandy","Sandy","STIM_SET_4/497974.bmp_pp51_L1_V1_veridical_freeview_isoFalse_fps144.mp4",""
"","","","call-function","441","1662120","0.0-441.0","dn28g3pa","","","","","","","",""
"1735.1699999999255","","","categorize-html","442","1665859","0.0-442.0","dn28g3pa","","Which video showed <span style=""font-size:30px"">Sandy's</span> attention?","49","","","","","false"
"null","","","html-keyboard-response","443","1666365","0.0-443.0","dn28g3pa",""," ","null","","","","",""
"","","","call-function","444","1666365","0.0-444.0","dn28g3pa","","","","","","","",""
"null","","","html-keyboard-response","445","1667867","0.0-445.0","dn28g3pa","","<span style=""color:Black; font-size:50px;"">Video 1</span>","null","","","","",""
"null","","","video-keyboard-response","446","1670966","0.0-446.0","dn28g3pa","","","null","","<span style=""color:Black; font-size:50px;"">Sandy","Sandy","STIM_SET_4/1593146.bmp_pp51_L1_V1_veridical_freeview_isoFalse_fps144.mp4",""
"null","","","html-keyboard-response","447","1672467","0.0-447.0","dn28g3pa","","<span style=""color:Black; font-size:50px;"">Video 2</span>","null","","","","",""
"null","","","video-keyboard-response","448","1675563","0.0-448.0","dn28g3pa","","","null","","<span style=""color:Black; font-size:50px;"">Casey","Casey","STIM_SET_4/1593146.bmp_pp98_L1_V1_veridical_freeview_isoFalse_fps144.mp4",""
"","","","call-function","449","1675564","0.0-449.0","dn28g3pa","","","","","","","",""
"875.5049999998882","","","categorize-html","450","1678444","0.0-450.0","dn28g3pa","","Which video showed <span style=""font-size:30px"">Sandy's</span> attention?","49","","","","","true"
"null","","","html-keyboard-response","451","1678946","0.0-451.0","dn28g3pa",""," ","null","","","","",""
"","","","call-function","452","1678946","0.0-452.0","dn28g3pa","","","","","","","",""
"null","","","html-keyboard-response","453","1680450","0.0-453.0","dn28g3pa","","<span style=""color:Black; font-size:50px;"">Video 1</span>","null","","","","",""
"null","","","video-keyboard-response","454","1683552","0.0-454.0","dn28g3pa","","","null","","<span style=""color:Black; font-size:50px;"">Sandy","Sandy","STIM_SET_4/498108.bmp_pp51_L1_V1_veridical_freeview_isoFalse_fps144.mp4",""
"null","","","html-keyboard-response","455","1685057","0.0-455.0","dn28g3pa","","<span style=""color:Black; font-size:50px;"">Video 2</span>","null","","","","",""
"null","","","video-keyboard-response","456","1688160","0.0-456.0","dn28g3pa","","","null","","<span style=""color:Black; font-size:50px;"">Casey","Casey","STIM_SET_4/498108.bmp_pp98_L1_V1_veridical_freeview_isoFalse_fps144.mp4",""
"","","","call-function","457","1688160","0.0-457.0","dn28g3pa","","","","","","","",""
"1191.3649999999907","","","categorize-html","458","1691355","0.0-458.0","dn28g3pa","","Which video showed <span style=""font-size:30px"">Sandy's</span> attention?","49","","","","","true"
"null","","","html-keyboard-response","459","1691857","0.0-459.0","dn28g3pa",""," ","null","","","","",""
"","","","call-function","460","1691857","0.0-460.0","dn28g3pa","","","","","","","",""
"null","","","html-keyboard-response","461","1693360","0.0-461.0","dn28g3pa","","<span style=""color:Black; font-size:50px;"">Video 1</span>","null","","","","",""
"null","","","video-keyboard-response","462","1696436","0.0-462.0","dn28g3pa","","","null","","<span style=""color:Black; font-size:50px;"">Sandy","Sandy","STIM_SET_4/285905.bmp_pp51_L1_V1_veridical_freeview_isoFalse_fps144.mp4",""
"null","","","html-keyboard-response","463","1697942","0.0-463.0","dn28g3pa","","<span style=""color:Black; font-size:50px;"">Video 2</span>","null","","","","",""
"null","","","video-keyboard-response","464","1701013","0.0-464.0","dn28g3pa","","","null","","<span style=""color:Black; font-size:50px;"">Casey","Casey","STIM_SET_4/285905.bmp_pp98_L1_V1_veridical_freeview_isoFalse_fps144.mp4",""
"","","","call-function","465","1701013","0.0-465.0","dn28g3pa","","","","","","","",""
"962.1000000000931","","","categorize-html","466","1703978","0.0-466.0","dn28g3pa","","Which video showed <span style=""font-size:30px"">Sandy's</span> attention?","50","","","","","false"
"null","","","html-keyboard-response","467","1704484","0.0-467.0","dn28g3pa",""," ","null","","","","",""
"","","","call-function","468","1704484","0.0-468.0","dn28g3pa","","","","","","","",""
"null","","","html-keyboard-response","469","1705986","0.0-469.0","dn28g3pa","","<span style=""color:Black; font-size:50px;"">Video 1</span>","null","","","","",""
"null","","","video-keyboard-response","470","1709053","0.0-470.0","dn28g3pa","","","null","","<span style=""color:Black; font-size:50px;"">Sandy","Sandy","STIM_SET_4/1159408.bmp_pp51_L1_V1_veridical_freeview_isoFalse_fps144.mp4",""
"null","","","html-keyboard-response","471","1710555","0.0-471.0","dn28g3pa","","<span style=""color:Black; font-size:50px;"">Video 2</span>","null","","","","",""
"null","","","video-keyboard-response","472","1713661","0.0-472.0","dn28g3pa","","","null","","<span style=""color:Black; font-size:50px;"">Casey","Casey","STIM_SET_4/1159408.bmp_pp98_L1_V1_veridical_freeview_isoFalse_fps144.mp4",""
"","","","call-function","473","1713661","0.0-473.0","dn28g3pa","","","","","","","",""
"1634.2299999999814","","","categorize-html","474","1717298","0.0-474.0","dn28g3pa","","Which video showed <span style=""font-size:30px"">Sandy's</span> attention?","49","","","","","true"
"null","","","html-keyboard-response","475","1717802","0.0-475.0","dn28g3pa",""," ","null","","","","",""
"","","","call-function","476","1717802","0.0-476.0","dn28g3pa","","","","","","","",""
"null","","","html-keyboard-response","477","1719304","0.0-477.0","dn28g3pa","","<span style=""color:Black; font-size:50px;"">Video 1</span>","null","","","","",""
"null","","","video-keyboard-response","478","1722408","0.0-478.0","dn28g3pa","","","null","","<span style=""color:Black; font-size:50px;"">Casey","Casey","STIM_SET_4/1592286.bmp_pp98_L1_V1_veridical_freeview_isoFalse_fps144.mp4",""
"null","","","html-keyboard-response","479","1723912","0.0-479.0","dn28g3pa","","<span style=""color:Black; font-size:50px;"">Video 2</span>","null","","","","",""
"null","","","video-keyboard-response","480","1727005","0.0-480.0","dn28g3pa","","","null","","<span style=""color:Black; font-size:50px;"">Sandy","Sandy","STIM_SET_4/1592286.bmp_pp51_L1_V1_veridical_freeview_isoFalse_fps144.mp4",""
"","","","call-function","481","1727006","0.0-481.0","dn28g3pa","","","","","","","",""
"801.7900000000373","","","categorize-html","482","1729810","0.0-482.0","dn28g3pa","","Which video showed <span style=""font-size:30px"">Sandy's</span> attention?","50","","","","","true"
"null","","","html-keyboard-response","483","1730311","0.0-483.0","dn28g3pa",""," ","null","","","","",""
"","","","call-function","484","1730312","0.0-484.0","dn28g3pa","","","","","","","",""
"null","","","html-keyboard-response","485","1731818","0.0-485.0","dn28g3pa","","<span style=""color:Black; font-size:50px;"">Video 1</span>","null","","","","",""
"null","","","video-keyboard-response","486","1734963","0.0-486.0","dn28g3pa","","","null","","<span style=""color:Black; font-size:50px;"">Sandy","Sandy","STIM_SET_4/713786.bmp_pp51_L1_V1_veridical_freeview_isoFalse_fps144.mp4",""
"null","","","html-keyboard-response","487","1736470","0.0-487.0","dn28g3pa","","<span style=""color:Black; font-size:50px;"">Video 2</span>","null","","","","",""
"null","","","video-keyboard-response","488","1739577","0.0-488.0","dn28g3pa","","","null","","<span style=""color:Black; font-size:50px;"">Casey","Casey","STIM_SET_4/713786.bmp_pp98_L1_V1_veridical_freeview_isoFalse_fps144.mp4",""
"","","","call-function","489","1739577","0.0-489.0","dn28g3pa","","","","","","","",""
"1222.6000000000931","","","categorize-html","490","1742805","0.0-490.0","dn28g3pa","","Which video showed <span style=""font-size:30px"">Sandy's</span> attention?","49","","","","","true"
"null","","","html-keyboard-response","491","1743308","0.0-491.0","dn28g3pa",""," ","null","","","","",""
"","","","call-function","492","1743308","0.0-492.0","dn28g3pa","","","","","","","",""
"null","","","html-keyboard-response","493","1744810","0.0-493.0","dn28g3pa","","<span style=""color:Black; font-size:50px;"">Video 1</span>","null","","","","",""
"null","","","video-keyboard-response","494","1747910","0.0-494.0","dn28g3pa","","","null","","<span style=""color:Black; font-size:50px;"">Sandy","Sandy","STIM_SET_4/713770.bmp_pp51_L1_V1_veridical_freeview_isoFalse_fps144.mp4",""
"null","","","html-keyboard-response","495","1749414","0.0-495.0","dn28g3pa","","<span style=""color:Black; font-size:50px;"">Video 2</span>","null","","","","",""
"null","","","video-keyboard-response","496","1752511","0.0-496.0","dn28g3pa","","","null","","<span style=""color:Black; font-size:50px;"">Casey","Casey","STIM_SET_4/713770.bmp_pp98_L1_V1_veridical_freeview_isoFalse_fps144.mp4",""
"","","","call-function","497","1752511","0.0-497.0","dn28g3pa","","","","","","","",""
"656.035000000149","","","categorize-html","498","1755172","0.0-498.0","dn28g3pa","","Which video showed <span style=""font-size:30px"">Sandy's</span> attention?","49","","","","","true"
"null","","","html-keyboard-response","499","1755675","0.0-499.0","dn28g3pa",""," ","null","","","","",""
"89809.62000000011","","","instructions","500","1845485","0.0-500.0","dn28g3pa","[{""page_index"":0,""viewing_time"":4067.4499999999534},{""page_index"":1,""viewing_time"":85111.15500000003},{""page_index"":2,""viewing_time"":630.9050000000279}]","","","","","","",""
"1986.4399999999441","","","instructions","501","1847472","0.0-501.0","dn28g3pa","[{""page_index"":0,""viewing_time"":512.4749999998603},{""page_index"":1,""viewing_time"":1030.9499999999534},{""page_index"":2,""viewing_time"":442.90500000002794}]","","","","","","",""
"","","","call-function","502","1847473","0.0-502.0","dn28g3pa","","","","","","","",""
"null","","","html-keyboard-response","503","1848978","0.0-503.0","dn28g3pa","","<span style=""color:Black; font-size:50px;"">Video 1</span>","null","","","","",""
"null","","","video-keyboard-response","504","1852073","0.0-504.0","dn28g3pa","","","null","","<span style=""color:Black; font-size:50px;"">Casey","Casey","STIM_SET_4/1592657.bmp_pp98_L1_V1_veridical_freeview_isoFalse_fps144.mp4",""
"null","","","html-keyboard-response","505","1853578","0.0-505.0","dn28g3pa","","<span style=""color:Black; font-size:50px;"">Video 2</span>","null","","","","",""
"null","","","video-keyboard-response","506","1856661","0.0-506.0","dn28g3pa","","","null","","<span style=""color:Black; font-size:50px;"">Sandy","Sandy","STIM_SET_4/1592657.bmp_pp51_L1_V1_veridical_freeview_isoFalse_fps144.mp4",""
"","","","call-function","507","1856661","0.0-507.0","dn28g3pa","","","","","","","",""
"5658.104999999981","","","categorize-html","508","1864323","0.0-508.0","dn28g3pa","","Which video showed <span style=""font-size:30px"">Sandy's</span> attention?","50","","","","","true"
"null","","","html-keyboard-response","509","1864825","0.0-509.0","dn28g3pa",""," ","null","","","","",""
"","","","call-function","510","1864826","0.0-510.0","dn28g3pa","","","","","","","",""
"null","","","html-keyboard-response","511","1866329","0.0-511.0","dn28g3pa","","<span style=""color:Black; font-size:50px;"">Video 1</span>","null","","","","",""
"null","","","video-keyboard-response","512","1869429","0.0-512.0","dn28g3pa","","","null","","<span style=""color:Black; font-size:50px;"">Sandy","Sandy","STIM_SET_4/150432.bmp_pp51_L1_V1_veridical_freeview_isoFalse_fps144.mp4",""
"null","","","html-keyboard-response","513","1870930","0.0-513.0","dn28g3pa","","<span style=""color:Black; font-size:50px;"">Video 2</span>","null","","","","",""
"null","","","video-keyboard-response","514","1873999","0.0-514.0","dn28g3pa","","","null","","<span style=""color:Black; font-size:50px;"">Casey","Casey","STIM_SET_4/150432.bmp_pp98_L1_V1_veridical_freeview_isoFalse_fps144.mp4",""
"","","","call-function","515","1874000","0.0-515.0","dn28g3pa","","","","","","","",""
"1168.0100000000093","","","categorize-html","516","1877172","0.0-516.0","dn28g3pa","","Which video showed <span style=""font-size:30px"">Sandy's</span> attention?","49","","","","","true"
"null","","","html-keyboard-response","517","1877676","0.0-517.0","dn28g3pa",""," ","null","","","","",""
"","","","call-function","518","1877676","0.0-518.0","dn28g3pa","","","","","","","",""
"null","","","html-keyboard-response","519","1879179","0.0-519.0","dn28g3pa","","<span style=""color:Black; font-size:50px;"">Video 1</span>","null","","","","",""
"null","","","video-keyboard-response","520","1882275","0.0-520.0","dn28g3pa","","","null","","<span style=""color:Black; font-size:50px;"">Sandy","Sandy","STIM_SET_4/1160062.bmp_pp51_L1_V1_veridical_freeview_isoFalse_fps144.mp4",""
"null","","","html-keyboard-response","521","1883777","0.0-521.0","dn28g3pa","","<span style=""color:Black; font-size:50px;"">Video 2</span>","null","","","","",""
"null","","","video-keyboard-response","522","1886865","0.0-522.0","dn28g3pa","","","null","","<span style=""color:Black; font-size:50px;"">Casey","Casey","STIM_SET_4/1160062.bmp_pp98_L1_V1_veridical_freeview_isoFalse_fps144.mp4",""
"","","","call-function","523","1886866","0.0-523.0","dn28g3pa","","","","","","","",""
"1686.0049999998882","","","categorize-html","524","1890555","0.0-524.0","dn28g3pa","","Which video showed <span style=""font-size:30px"">Sandy's</span> attention?","49","","","","","true"
"null","","","html-keyboard-response","525","1891057","0.0-525.0","dn28g3pa",""," ","null","","","","",""
"","","","call-function","526","1891058","0.0-526.0","dn28g3pa","","","","","","","",""
"null","","","html-keyboard-response","527","1892560","0.0-527.0","dn28g3pa","","<span style=""color:Black; font-size:50px;"">Video 1</span>","null","","","","",""
"null","","","video-keyboard-response","528","1895663","0.0-528.0","dn28g3pa","","","null","","<span style=""color:Black; font-size:50px;"">Casey","Casey","STIM_SET_4/285851.bmp_pp98_L1_V1_veridical_freeview_isoFalse_fps144.mp4",""
"null","","","html-keyboard-response","529","1897170","0.0-529.0","dn28g3pa","","<span style=""color:Black; font-size:50px;"">Video 2</span>","null","","","","",""
"null","","","video-keyboard-response","530","1900300","0.0-530.0","dn28g3pa","","","null","","<span style=""color:Black; font-size:50px;"">Sandy","Sandy","STIM_SET_4/285851.bmp_pp51_L1_V1_veridical_freeview_isoFalse_fps144.mp4",""
"","","","call-function","531","1900300","0.0-531.0","dn28g3pa","","","","","","","",""
"1139.315000000177","","","categorize-html","532","1903447","0.0-532.0","dn28g3pa","","Which video showed <span style=""font-size:30px"">Sandy's</span> attention?","50","","","","","true"
"null","","","html-keyboard-response","533","1903948","0.0-533.0","dn28g3pa",""," ","null","","","","",""
"","","","call-function","534","1903949","0.0-534.0","dn28g3pa","","","","","","","",""
"null","","","html-keyboard-response","535","1905455","0.0-535.0","dn28g3pa","","<span style=""color:Black; font-size:50px;"">Video 1</span>","null","","","","",""
"null","","","video-keyboard-response","536","1908572","0.0-536.0","dn28g3pa","","","null","","<span style=""color:Black; font-size:50px;"">Casey","Casey","STIM_SET_4/713769.bmp_pp98_L1_V1_veridical_freeview_isoFalse_fps144.mp4",""
"null","","","html-keyboard-response","537","1910079","0.0-537.0","dn28g3pa","","<span style=""color:Black; font-size:50px;"">Video 2</span>","null","","","","",""
"null","","","video-keyboard-response","538","1913180","0.0-538.0","dn28g3pa","","","null","","<span style=""color:Black; font-size:50px;"">Sandy","Sandy","STIM_SET_4/713769.bmp_pp51_L1_V1_veridical_freeview_isoFalse_fps144.mp4",""
"","","","call-function","539","1913181","0.0-539.0","dn28g3pa","","","","","","","",""
"1171.344999999972","","","categorize-html","540","1916357","0.0-540.0","dn28g3pa","","Which video showed <span style=""font-size:30px"">Sandy's</span> attention?","50","","","","","true"
"null","","","html-keyboard-response","541","1916864","0.0-541.0","dn28g3pa",""," ","null","","","","",""
"","","","call-function","542","1916864","0.0-542.0","dn28g3pa","","","","","","","",""
"null","","","html-keyboard-response","543","1918366","0.0-543.0","dn28g3pa","","<span style=""color:Black; font-size:50px;"">Video 1</span>","null","","","","",""
"null","","","video-keyboard-response","544","1921433","0.0-544.0","dn28g3pa","","","null","","<span style=""color:Black; font-size:50px;"">Casey","Casey","STIM_SET_4/1159606.bmp_pp98_L1_V1_veridical_freeview_isoFalse_fps144.mp4",""
"null","","","html-keyboard-response","545","1922935","0.0-545.0","dn28g3pa","","<span style=""color:Black; font-size:50px;"">Video 2</span>","null","","","","",""
"null","","","video-keyboard-response","546","1925996","0.0-546.0","dn28g3pa","","","null","","<span style=""color:Black; font-size:50px;"">Sandy","Sandy","STIM_SET_4/1159606.bmp_pp51_L1_V1_veridical_freeview_isoFalse_fps144.mp4",""
"","","","call-function","547","1925997","0.0-547.0","dn28g3pa","","","","","","","",""
"1290.654999999795","","","categorize-html","548","1929294","0.0-548.0","dn28g3pa","","Which video showed <span style=""font-size:30px"">Sandy's</span> attention?","49","","","","","false"
"null","","","html-keyboard-response","549","1929795","0.0-549.0","dn28g3pa",""," ","null","","","","",""
"","","","call-function","550","1929796","0.0-550.0","dn28g3pa","","","","","","","",""
"null","","","html-keyboard-response","551","1931301","0.0-551.0","dn28g3pa","","<span style=""color:Black; font-size:50px;"">Video 1</span>","null","","","","",""
"null","","","video-keyboard-response","552","1934377","0.0-552.0","dn28g3pa","","","null","","<span style=""color:Black; font-size:50px;"">Sandy","Sandy","STIM_SET_4/1592189.bmp_pp51_L1_V1_veridical_freeview_isoFalse_fps144.mp4",""
"null","","","html-keyboard-response","553","1935881","0.0-553.0","dn28g3pa","","<span style=""color:Black; font-size:50px;"">Video 2</span>","null","","","","",""
"null","","","video-keyboard-response","554","1938940","0.0-554.0","dn28g3pa","","","null","","<span style=""color:Black; font-size:50px;"">Casey","Casey","STIM_SET_4/1592189.bmp_pp98_L1_V1_veridical_freeview_isoFalse_fps144.mp4",""
"","","","call-function","555","1938941","0.0-555.0","dn28g3pa","","","","","","","",""
"1171.1200000001118","","","categorize-html","556","1942119","0.0-556.0","dn28g3pa","","Which video showed <span style=""font-size:30px"">Sandy's</span> attention?","49","","","","","true"
"null","","","html-keyboard-response","557","1942625","0.0-557.0","dn28g3pa",""," ","null","","","","",""
"","","","call-function","558","1942626","0.0-558.0","dn28g3pa","","","","","","","",""
"null","","","html-keyboard-response","559","1944132","0.0-559.0","dn28g3pa","","<span style=""color:Black; font-size:50px;"">Video 1</span>","null","","","","",""
"null","","","video-keyboard-response","560","1947235","0.0-560.0","dn28g3pa","","","null","","<span style=""color:Black; font-size:50px;"">Casey","Casey","STIM_SET_4/1159508.bmp_pp98_L1_V1_veridical_freeview_isoFalse_fps144.mp4",""
"null","","","html-keyboard-response","561","1948738","0.0-561.0","dn28g3pa","","<span style=""color:Black; font-size:50px;"">Video 2</span>","null","","","","",""
"null","","","video-keyboard-response","562","1951834","0.0-562.0","dn28g3pa","","","null","","<span style=""color:Black; font-size:50px;"">Sandy","Sandy","STIM_SET_4/1159508.bmp_pp51_L1_V1_veridical_freeview_isoFalse_fps144.mp4",""
"","","","call-function","563","1951835","0.0-563.0","dn28g3pa","","","","","","","",""
"1037.1599999999162","","","categorize-html","564","1954876","0.0-564.0","dn28g3pa","","Which video showed <span style=""font-size:30px"">Sandy's</span> attention?","50","","","","","true"
"null","","","html-keyboard-response","565","1955378","0.0-565.0","dn28g3pa",""," ","null","","","","",""
"","","","call-function","566","1955379","0.0-566.0","dn28g3pa","","","","","","","",""
"null","","","html-keyboard-response","567","1956883","0.0-567.0","dn28g3pa","","<span style=""color:Black; font-size:50px;"">Video 1</span>","null","","","","",""
"null","","","video-keyboard-response","568","1959986","0.0-568.0","dn28g3pa","","","null","","<span style=""color:Black; font-size:50px;"">Sandy","Sandy","STIM_SET_4/713920.bmp_pp51_L1_V1_veridical_freeview_isoFalse_fps144.mp4",""
"null","","","html-keyboard-response","569","1961489","0.0-569.0","dn28g3pa","","<span style=""color:Black; font-size:50px;"">Video 2</span>","null","","","","",""
"null","","","video-keyboard-response","570","1964588","0.0-570.0","dn28g3pa","","","null","","<span style=""color:Black; font-size:50px;"">Casey","Casey","STIM_SET_4/713920.bmp_pp98_L1_V1_veridical_freeview_isoFalse_fps144.mp4",""
"","","","call-function","571","1964589","0.0-571.0","dn28g3pa","","","","","","","",""
"1842.9299999999348","","","categorize-html","572","1968438","0.0-572.0","dn28g3pa","","Which video showed <span style=""font-size:30px"">Sandy's</span> attention?","49","","","","","true"
"null","","","html-keyboard-response","573","1968945","0.0-573.0","dn28g3pa",""," ","null","","","","",""
"","","","call-function","574","1968945","0.0-574.0","dn28g3pa","","","","","","","",""
"null","","","html-keyboard-response","575","1970447","0.0-575.0","dn28g3pa","","<span style=""color:Black; font-size:50px;"">Video 1</span>","null","","","","",""
"null","","","video-keyboard-response","576","1973592","0.0-576.0","dn28g3pa","","","null","","<span style=""color:Black; font-size:50px;"">Sandy","Sandy","STIM_SET_4/713174.bmp_pp51_L1_V1_veridical_freeview_isoFalse_fps144.mp4",""
"null","","","html-keyboard-response","577","1975097","0.0-577.0","dn28g3pa","","<span style=""color:Black; font-size:50px;"">Video 2</span>","null","","","","",""
"null","","","video-keyboard-response","578","1978200","0.0-578.0","dn28g3pa","","","null","","<span style=""color:Black; font-size:50px;"">Casey","Casey","STIM_SET_4/713174.bmp_pp98_L1_V1_veridical_freeview_isoFalse_fps144.mp4",""
"","","","call-function","579","1978201","0.0-579.0","dn28g3pa","","","","","","","",""
"4159.090000000084","","","categorize-html","580","1984365","0.0-580.0","dn28g3pa","","Which video showed <span style=""font-size:30px"">Sandy's</span> attention?","49","","","","","true"
"null","","","html-keyboard-response","581","1984868","0.0-581.0","dn28g3pa",""," ","null","","","","",""
"2370.7899999998044","","","instructions","582","1987239","0.0-582.0","dn28g3pa","[{""page_index"":0,""viewing_time"":2370.6299999998882}]","","","","","","",""
"1237.220000000205","","","instructions","583","1988477","0.0-583.0","dn28g3pa","[{""page_index"":0,""viewing_time"":1237.1100000001024}]","","","","","","",""
"97355.88500000001","{""Q0"":""I found each trial enjoyable but increasingly fatigue-inducing. I was also somewhat fatigued so that could be a confounding variable for my focus. I started attributing patterns in attention by the second chunk of trials. ""}","","survey-text","584","2085840","0.0-584.0","dn28g3pa","","","","","","","",""
"85534.55000000005","{""Q0"":""I eventually found that Casey's attention typically focused on major structures present in a given photoespecially facial features and objects centered in the foreground. I hypothesized that Sandy's attention was more sporadic, often focusing on blank space or objects out of focus.""}","","survey-text","585","2171380","0.0-585.0","dn28g3pa","","","","","","","",""
"137217.3150000004","{""Q0"":""There were some points when I could not distinguish the two based on the strategies I developed. These typically occurred when there was a lack of facial features or definitive major structures. I had also lost my focus at times (I counted maybe three instances?) and had not properly absorbed enough information to make concrete judgments.""}","","survey-text","586","2308602","0.0-586.0","dn28g3pa","","","","","","","",""
"1481.1299999998882","","","instructions","587","2310085","0.0-587.0","dn28g3pa","[{""page_index"":0,""viewing_time"":1480.9150000000373}]","","","","","","",""
"151145.35499999998","{""Experimenter_end"":[""Printed ID# dn28g3pa on consent form"",""Given subject SONA credit or payment"",""Given the subject debrief form""]}","[0]","survey-multi-select","588","2461233","0.0-588.0","dn28g3pa","","","","","","","",""
