"rt","responses","question_order","trial_type","trial_index","time_elapsed","internal_node_id","ID","view_history","stimulus","key_press","value","agent","condition","image","correct"
"15107.369999999999","{""Experimenter"":[""Confirmed subject's identity (ID card)"",""Confirmed normal or corrected-to-normal vision"",""Obtained consent (signature and date)"",""Checked the test room lighting"",""Checked computer screen lighting"",""Checked distance from screen to chin rest (50cm)"",""Cleaned and adjusted chin rest"",""Counterbalanced the order of the tasks"",""Opened the experiment in Firefox"",""Made the experiment full screen"",""Encouraged subject to silence phone, put away distractors, etc.""]}","[0]","survey-multi-select","0","15116","0.0-0.0","6qatxo38","","","","","","","",""
"115665.77","","","instructions","1","130783","0.0-1.0","6qatxo38","[{""page_index"":0,""viewing_time"":115665.62}]","","","","","","",""
"8164.100000000006","{""Age"":1,""Sex"":1,""Gender"":1}","[0,1,2]","survey-likert","2","138950","0.0-2.0","6qatxo38","","","","","","","",""
"2087.8249999999825","","","instructions","3","141038","0.0-3.0","6qatxo38","[{""page_index"":0,""viewing_time"":2087.725000000006}]","","","","","","",""
"21830.78999999998","","","instructions","4","162869","0.0-4.0","6qatxo38","[{""page_index"":0,""viewing_time"":1113.8800000000047},{""page_index"":1,""viewing_time"":11916.73999999999},{""page_index"":2,""viewing_time"":8800.049999999988}]","","","","","","",""
"3812.6350000000093","","","instructions","5","166682","0.0-5.0","6qatxo38","[{""page_index"":0,""viewing_time"":3812.5350000000035}]","","","","","","",""
"null","","","video-keyboard-response","6","169755","0.0-6.0","6qatxo38","","","null","","","","",""
"45088.905","","","instructions","7","214844","0.0-7.0","6qatxo38","[{""page_index"":0,""viewing_time"":5611.860000000015},{""page_index"":1,""viewing_time"":4236.904999999999},{""page_index"":2,""viewing_time"":2303.1199999999953},{""page_index"":3,""viewing_time"":6448.885000000009},{""page_index"":4,""viewing_time"":9082.095000000001},{""page_index"":5,""viewing_time"":9011.949999999983},{""page_index"":6,""viewing_time"":7299.040000000008},{""page_index"":7,""viewing_time"":1094.929999999993}]","","","","","","",""
"15559.23999999999","","","instructions","8","230404","0.0-8.0","6qatxo38","[{""page_index"":0,""viewing_time"":15558.994999999995}]","","","","","","",""
"5841.864999999991","","","instructions","9","236246","0.0-9.0","6qatxo38","[{""page_index"":0,""viewing_time"":5841.244999999995}]","","","","","","",""
"","","","call-function","10","236247","0.0-10.0","6qatxo38","","","","","","","",""
"null","","","html-keyboard-response","11","237752","0.0-11.0","6qatxo38","","<span style=""color:Black; font-size:50px;"">Video 1</span>","null","","","","",""
"null","","","video-keyboard-response","12","240828","0.0-12.0","6qatxo38","","","null","","<span style=""color:Black; font-size:50px;"">Sandy","Sandy","STIM_SET_5/1592168.bmp_pp64_L1_V1_veridical_freeview_isoFalse_fps144.mp4",""
"null","","","html-keyboard-response","13","242331","0.0-13.0","6qatxo38","","<span style=""color:Black; font-size:50px;"">Video 2</span>","null","","","","",""
"null","","","video-keyboard-response","14","245404","0.0-14.0","6qatxo38","","","null","","<span style=""color:Black; font-size:50px;"">Casey","Casey","STIM_SET_5/1592168.bmp_pp151_L1_V1_veridical_freeview_isoFalse_fps144.mp4",""
"","","","call-function","15","245404","0.0-15.0","6qatxo38","","","","","","","",""
"2483.180000000022","","","categorize-html","16","249895","0.0-16.0","6qatxo38","","Which video showed <span style=""font-size:30px"">Sandy's</span> attention?","49","","","","","true"
"null","","","html-keyboard-response","17","250397","0.0-17.0","6qatxo38",""," ","null","","","","",""
"","","","call-function","18","250397","0.0-18.0","6qatxo38","","","","","","","",""
"null","","","html-keyboard-response","19","251900","0.0-19.0","6qatxo38","","<span style=""color:Black; font-size:50px;"">Video 1</span>","null","","","","",""
"null","","","video-keyboard-response","20","254976","0.0-20.0","6qatxo38","","","null","","<span style=""color:Black; font-size:50px;"">Sandy","Sandy","STIM_SET_5/1592017.bmp_pp64_L1_V1_veridical_freeview_isoFalse_fps144.mp4",""
"null","","","html-keyboard-response","21","256480","0.0-21.0","6qatxo38","","<span style=""color:Black; font-size:50px;"">Video 2</span>","null","","","","",""
"null","","","video-keyboard-response","22","259558","0.0-22.0","6qatxo38","","","null","","<span style=""color:Black; font-size:50px;"">Casey","Casey","STIM_SET_5/1592017.bmp_pp151_L1_V1_veridical_freeview_isoFalse_fps144.mp4",""
"","","","call-function","23","259560","0.0-23.0","6qatxo38","","","","","","","",""
"1934.3450000000012","","","categorize-html","24","263500","0.0-24.0","6qatxo38","","Which video showed <span style=""font-size:30px"">Sandy's</span> attention?","50","","","","","false"
"null","","","html-keyboard-response","25","264003","0.0-25.0","6qatxo38",""," ","null","","","","",""
"","","","call-function","26","264003","0.0-26.0","6qatxo38","","","","","","","",""
"null","","","html-keyboard-response","27","265507","0.0-27.0","6qatxo38","","<span style=""color:Black; font-size:50px;"">Video 1</span>","null","","","","",""
"null","","","video-keyboard-response","28","268640","0.0-28.0","6qatxo38","","","null","","<span style=""color:Black; font-size:50px;"">Sandy","Sandy","STIM_SET_5/285948.bmp_pp64_L1_V1_veridical_freeview_isoFalse_fps144.mp4",""
"null","","","html-keyboard-response","29","270146","0.0-29.0","6qatxo38","","<span style=""color:Black; font-size:50px;"">Video 2</span>","null","","","","",""
"null","","","video-keyboard-response","30","273254","0.0-30.0","6qatxo38","","","null","","<span style=""color:Black; font-size:50px;"">Casey","Casey","STIM_SET_5/285948.bmp_pp151_L1_V1_veridical_freeview_isoFalse_fps144.mp4",""
"","","","call-function","31","273255","0.0-31.0","6qatxo38","","","","","","","",""
"2151.4800000000396","","","categorize-html","32","277410","0.0-32.0","6qatxo38","","Which video showed <span style=""font-size:30px"">Sandy's</span> attention?","49","","","","","true"
"null","","","html-keyboard-response","33","277916","0.0-33.0","6qatxo38",""," ","null","","","","",""
"","","","call-function","34","277917","0.0-34.0","6qatxo38","","","","","","","",""
"null","","","html-keyboard-response","35","279420","0.0-35.0","6qatxo38","","<span style=""color:Black; font-size:50px;"">Video 1</span>","null","","","","",""
"null","","","video-keyboard-response","36","282527","0.0-36.0","6qatxo38","","","null","","<span style=""color:Black; font-size:50px;"">Sandy","Sandy","STIM_SET_5/1159353.bmp_pp64_L1_V1_veridical_freeview_isoFalse_fps144.mp4",""
"null","","","html-keyboard-response","37","284029","0.0-37.0","6qatxo38","","<span style=""color:Black; font-size:50px;"">Video 2</span>","null","","","","",""
"null","","","video-keyboard-response","38","287133","0.0-38.0","6qatxo38","","","null","","<span style=""color:Black; font-size:50px;"">Casey","Casey","STIM_SET_5/1159353.bmp_pp151_L1_V1_veridical_freeview_isoFalse_fps144.mp4",""
"","","","call-function","39","287134","0.0-39.0","6qatxo38","","","","","","","",""
"2184.740000000049","","","categorize-html","40","291324","0.0-40.0","6qatxo38","","Which video showed <span style=""font-size:30px"">Sandy's</span> attention?","49","","","","","true"
"null","","","html-keyboard-response","41","291829","0.0-41.0","6qatxo38",""," ","null","","","","",""
"","","","call-function","42","291829","0.0-42.0","6qatxo38","","","","","","","",""
"null","","","html-keyboard-response","43","293332","0.0-43.0","6qatxo38","","<span style=""color:Black; font-size:50px;"">Video 1</span>","null","","","","",""
"null","","","video-keyboard-response","44","296429","0.0-44.0","6qatxo38","","","null","","<span style=""color:Black; font-size:50px;"">Sandy","Sandy","STIM_SET_5/1592807.bmp_pp64_L1_V1_veridical_freeview_isoFalse_fps144.mp4",""
"null","","","html-keyboard-response","45","297935","0.0-45.0","6qatxo38","","<span style=""color:Black; font-size:50px;"">Video 2</span>","null","","","","",""
"null","","","video-keyboard-response","46","301038","0.0-46.0","6qatxo38","","","null","","<span style=""color:Black; font-size:50px;"">Casey","Casey","STIM_SET_5/1592807.bmp_pp151_L1_V1_veridical_freeview_isoFalse_fps144.mp4",""
"","","","call-function","47","301039","0.0-47.0","6qatxo38","","","","","","","",""
"1791.509999999951","","","categorize-html","48","304835","0.0-48.0","6qatxo38","","Which video showed <span style=""font-size:30px"">Sandy's</span> attention?","49","","","","","true"
"null","","","html-keyboard-response","49","305339","0.0-49.0","6qatxo38",""," ","null","","","","",""
"","","","call-function","50","305339","0.0-50.0","6qatxo38","","","","","","","",""
"null","","","html-keyboard-response","51","306842","0.0-51.0","6qatxo38","","<span style=""color:Black; font-size:50px;"">Video 1</span>","null","","","","",""
"null","","","video-keyboard-response","52","309920","0.0-52.0","6qatxo38","","","null","","<span style=""color:Black; font-size:50px;"">Sandy","Sandy","STIM_SET_5/1159572.bmp_pp64_L1_V1_veridical_freeview_isoFalse_fps144.mp4",""
"null","","","html-keyboard-response","53","311421","0.0-53.0","6qatxo38","","<span style=""color:Black; font-size:50px;"">Video 2</span>","null","","","","",""
"null","","","video-keyboard-response","54","314481","0.0-54.0","6qatxo38","","","null","","<span style=""color:Black; font-size:50px;"">Casey","Casey","STIM_SET_5/1159572.bmp_pp151_L1_V1_veridical_freeview_isoFalse_fps144.mp4",""
"","","","call-function","55","314481","0.0-55.0","6qatxo38","","","","","","","",""
"4124.809999999998","","","categorize-html","56","320610","0.0-56.0","6qatxo38","","Which video showed <span style=""font-size:30px"">Sandy's</span> attention?","49","","","","","true"
"null","","","html-keyboard-response","57","321115","0.0-57.0","6qatxo38",""," ","null","","","","",""
"","","","call-function","58","321116","0.0-58.0","6qatxo38","","","","","","","",""
"null","","","html-keyboard-response","59","322620","0.0-59.0","6qatxo38","","<span style=""color:Black; font-size:50px;"">Video 1</span>","null","","","","",""
"null","","","video-keyboard-response","60","325726","0.0-60.0","6qatxo38","","","null","","<span style=""color:Black; font-size:50px;"">Casey","Casey","STIM_SET_5/1159318.bmp_pp151_L1_V1_veridical_freeview_isoFalse_fps144.mp4",""
"null","","","html-keyboard-response","61","327232","0.0-61.0","6qatxo38","","<span style=""color:Black; font-size:50px;"">Video 2</span>","null","","","","",""
"null","","","video-keyboard-response","62","330327","0.0-62.0","6qatxo38","","","null","","<span style=""color:Black; font-size:50px;"">Sandy","Sandy","STIM_SET_5/1159318.bmp_pp64_L1_V1_veridical_freeview_isoFalse_fps144.mp4",""
"","","","call-function","63","330327","0.0-63.0","6qatxo38","","","","","","","",""
"959.390000000014","","","categorize-html","64","333292","0.0-64.0","6qatxo38","","Which video showed <span style=""font-size:30px"">Sandy's</span> attention?","49","","","","","false"
"null","","","html-keyboard-response","65","333795","0.0-65.0","6qatxo38",""," ","null","","","","",""
"","","","call-function","66","333796","0.0-66.0","6qatxo38","","","","","","","",""
"null","","","html-keyboard-response","67","335297","0.0-67.0","6qatxo38","","<span style=""color:Black; font-size:50px;"">Video 1</span>","null","","","","",""
"null","","","video-keyboard-response","68","338430","0.0-68.0","6qatxo38","","","null","","<span style=""color:Black; font-size:50px;"">Casey","Casey","STIM_SET_5/498258.bmp_pp151_L1_V1_veridical_freeview_isoFalse_fps144.mp4",""
"null","","","html-keyboard-response","69","339933","0.0-69.0","6qatxo38","","<span style=""color:Black; font-size:50px;"">Video 2</span>","null","","","","",""
"null","","","video-keyboard-response","70","343032","0.0-70.0","6qatxo38","","","null","","<span style=""color:Black; font-size:50px;"">Sandy","Sandy","STIM_SET_5/498258.bmp_pp64_L1_V1_veridical_freeview_isoFalse_fps144.mp4",""
"","","","call-function","71","343032","0.0-71.0","6qatxo38","","","","","","","",""
"1518","","","categorize-html","72","346553","0.0-72.0","6qatxo38","","Which video showed <span style=""font-size:30px"">Sandy's</span> attention?","49","","","","","false"
"null","","","html-keyboard-response","73","347056","0.0-73.0","6qatxo38",""," ","null","","","","",""
"","","","call-function","74","347056","0.0-74.0","6qatxo38","","","","","","","",""
"null","","","html-keyboard-response","75","348558","0.0-75.0","6qatxo38","","<span style=""color:Black; font-size:50px;"">Video 1</span>","null","","","","",""
"null","","","video-keyboard-response","76","351655","0.0-76.0","6qatxo38","","","null","","<span style=""color:Black; font-size:50px;"">Casey","Casey","STIM_SET_5/713633.bmp_pp151_L1_V1_veridical_freeview_isoFalse_fps144.mp4",""
"null","","","html-keyboard-response","77","353156","0.0-77.0","6qatxo38","","<span style=""color:Black; font-size:50px;"">Video 2</span>","null","","","","",""
"null","","","video-keyboard-response","78","356250","0.0-78.0","6qatxo38","","","null","","<span style=""color:Black; font-size:50px;"">Sandy","Sandy","STIM_SET_5/713633.bmp_pp64_L1_V1_veridical_freeview_isoFalse_fps144.mp4",""
"","","","call-function","79","356251","0.0-79.0","6qatxo38","","","","","","","",""
"1011.8150000000023","","","categorize-html","80","359265","0.0-80.0","6qatxo38","","Which video showed <span style=""font-size:30px"">Sandy's</span> attention?","50","","","","","true"
"null","","","html-keyboard-response","81","359772","0.0-81.0","6qatxo38",""," ","null","","","","",""
"","","","call-function","82","359772","0.0-82.0","6qatxo38","","","","","","","",""
"null","","","html-keyboard-response","83","361276","0.0-83.0","6qatxo38","","<span style=""color:Black; font-size:50px;"">Video 1</span>","null","","","","",""
"null","","","video-keyboard-response","84","364377","0.0-84.0","6qatxo38","","","null","","<span style=""color:Black; font-size:50px;"">Casey","Casey","STIM_SET_5/1159427.bmp_pp151_L1_V1_veridical_freeview_isoFalse_fps144.mp4",""
"null","","","html-keyboard-response","85","365883","0.0-85.0","6qatxo38","","<span style=""color:Black; font-size:50px;"">Video 2</span>","null","","","","",""
"null","","","video-keyboard-response","86","368981","0.0-86.0","6qatxo38","","","null","","<span style=""color:Black; font-size:50px;"">Sandy","Sandy","STIM_SET_5/1159427.bmp_pp64_L1_V1_veridical_freeview_isoFalse_fps144.mp4",""
"","","","call-function","87","368981","0.0-87.0","6qatxo38","","","","","","","",""
"2537.3550000000396","","","categorize-html","88","373522","0.0-88.0","6qatxo38","","Which video showed <span style=""font-size:30px"">Sandy's</span> attention?","50","","","","","true"
"null","","","html-keyboard-response","89","374026","0.0-89.0","6qatxo38",""," ","null","","","","",""
"4964.460000000021","","","instructions","90","378991","0.0-90.0","6qatxo38","[{""page_index"":0,""viewing_time"":1628.045000000042},{""page_index"":1,""viewing_time"":2136.914999999979},{""page_index"":2,""viewing_time"":1199.3950000000186}]","","","","","","",""
"2925.4150000000373","","","instructions","91","381916","0.0-91.0","6qatxo38","[{""page_index"":0,""viewing_time"":786.2150000000256},{""page_index"":1,""viewing_time"":1353.4349999999977},{""page_index"":2,""viewing_time"":785.664999999979}]","","","","","","",""
"","","","call-function","92","381917","0.0-92.0","6qatxo38","","","","","","","",""
"null","","","html-keyboard-response","93","383418","0.0-93.0","6qatxo38","","<span style=""color:Black; font-size:50px;"">Video 1</span>","null","","","","",""
"null","","","video-keyboard-response","94","386497","0.0-94.0","6qatxo38","","","null","","<span style=""color:Black; font-size:50px;"">Casey","Casey","STIM_SET_5/1592501.bmp_pp151_L1_V1_veridical_freeview_isoFalse_fps144.mp4",""
"null","","","html-keyboard-response","95","388004","0.0-95.0","6qatxo38","","<span style=""color:Black; font-size:50px;"">Video 2</span>","null","","","","",""
"null","","","video-keyboard-response","96","391066","0.0-96.0","6qatxo38","","","null","","<span style=""color:Black; font-size:50px;"">Sandy","Sandy","STIM_SET_5/1592501.bmp_pp64_L1_V1_veridical_freeview_isoFalse_fps144.mp4",""
"","","","call-function","97","391067","0.0-97.0","6qatxo38","","","","","","","",""
"859.5050000000047","","","categorize-html","98","393928","0.0-98.0","6qatxo38","","Which video showed <span style=""font-size:30px"">Sandy's</span> attention?","50","","","","","true"
"null","","","html-keyboard-response","99","394431","0.0-99.0","6qatxo38",""," ","null","","","","",""
"","","","call-function","100","394432","0.0-100.0","6qatxo38","","","","","","","",""
"null","","","html-keyboard-response","101","395935","0.0-101.0","6qatxo38","","<span style=""color:Black; font-size:50px;"">Video 1</span>","null","","","","",""
"null","","","video-keyboard-response","102","399011","0.0-102.0","6qatxo38","","","null","","<span style=""color:Black; font-size:50px;"">Casey","Casey","STIM_SET_5/713888.bmp_pp151_L1_V1_veridical_freeview_isoFalse_fps144.mp4",""
"null","","","html-keyboard-response","103","400514","0.0-103.0","6qatxo38","","<span style=""color:Black; font-size:50px;"">Video 2</span>","null","","","","",""
"null","","","video-keyboard-response","104","403603","0.0-104.0","6qatxo38","","","null","","<span style=""color:Black; font-size:50px;"">Sandy","Sandy","STIM_SET_5/713888.bmp_pp64_L1_V1_veridical_freeview_isoFalse_fps144.mp4",""
"","","","call-function","105","403603","0.0-105.0","6qatxo38","","","","","","","",""
"1035.1149999999907","","","categorize-html","106","406645","0.0-106.0","6qatxo38","","Which video showed <span style=""font-size:30px"">Sandy's</span> attention?","50","","","","","true"
"null","","","html-keyboard-response","107","407148","0.0-107.0","6qatxo38",""," ","null","","","","",""
"","","","call-function","108","407148","0.0-108.0","6qatxo38","","","","","","","",""
"null","","","html-keyboard-response","109","408651","0.0-109.0","6qatxo38","","<span style=""color:Black; font-size:50px;"">Video 1</span>","null","","","","",""
"null","","","video-keyboard-response","110","411778","0.0-110.0","6qatxo38","","","null","","<span style=""color:Black; font-size:50px;"">Casey","Casey","STIM_SET_5/1592119.bmp_pp151_L1_V1_veridical_freeview_isoFalse_fps144.mp4",""
"null","","","html-keyboard-response","111","413283","0.0-111.0","6qatxo38","","<span style=""color:Black; font-size:50px;"">Video 2</span>","null","","","","",""
"null","","","video-keyboard-response","112","416381","0.0-112.0","6qatxo38","","","null","","<span style=""color:Black; font-size:50px;"">Sandy","Sandy","STIM_SET_5/1592119.bmp_pp64_L1_V1_veridical_freeview_isoFalse_fps144.mp4",""
"","","","call-function","113","416382","0.0-113.0","6qatxo38","","","","","","","",""
"1048.6600000000326","","","categorize-html","114","419434","0.0-114.0","6qatxo38","","Which video showed <span style=""font-size:30px"">Sandy's</span> attention?","49","","","","","false"
"null","","","html-keyboard-response","115","419937","0.0-115.0","6qatxo38",""," ","null","","","","",""
"","","","call-function","116","419937","0.0-116.0","6qatxo38","","","","","","","",""
"null","","","html-keyboard-response","117","421441","0.0-117.0","6qatxo38","","<span style=""color:Black; font-size:50px;"">Video 1</span>","null","","","","",""
"null","","","video-keyboard-response","118","424550","0.0-118.0","6qatxo38","","","null","","<span style=""color:Black; font-size:50px;"">Sandy","Sandy","STIM_SET_5/1159606.bmp_pp64_L1_V1_veridical_freeview_isoFalse_fps144.mp4",""
"null","","","html-keyboard-response","119","426054","0.0-119.0","6qatxo38","","<span style=""color:Black; font-size:50px;"">Video 2</span>","null","","","","",""
"null","","","video-keyboard-response","120","429142","0.0-120.0","6qatxo38","","","null","","<span style=""color:Black; font-size:50px;"">Casey","Casey","STIM_SET_5/1159606.bmp_pp151_L1_V1_veridical_freeview_isoFalse_fps144.mp4",""
"","","","call-function","121","429143","0.0-121.0","6qatxo38","","","","","","","",""
"1023.8150000000023","","","categorize-html","122","432169","0.0-122.0","6qatxo38","","Which video showed <span style=""font-size:30px"">Sandy's</span> attention?","50","","","","","false"
"null","","","html-keyboard-response","123","432672","0.0-123.0","6qatxo38",""," ","null","","","","",""
"","","","call-function","124","432672","0.0-124.0","6qatxo38","","","","","","","",""
"null","","","html-keyboard-response","125","434176","0.0-125.0","6qatxo38","","<span style=""color:Black; font-size:50px;"">Video 1</span>","null","","","","",""
"null","","","video-keyboard-response","126","437271","0.0-126.0","6qatxo38","","","null","","<span style=""color:Black; font-size:50px;"">Sandy","Sandy","STIM_SET_5/1592372.bmp_pp64_L1_V1_veridical_freeview_isoFalse_fps144.mp4",""
"null","","","html-keyboard-response","127","438776","0.0-127.0","6qatxo38","","<span style=""color:Black; font-size:50px;"">Video 2</span>","null","","","","",""
"null","","","video-keyboard-response","128","441871","0.0-128.0","6qatxo38","","","null","","<span style=""color:Black; font-size:50px;"">Casey","Casey","STIM_SET_5/1592372.bmp_pp151_L1_V1_veridical_freeview_isoFalse_fps144.mp4",""
"","","","call-function","129","441871","0.0-129.0","6qatxo38","","","","","","","",""
"759.0799999999581","","","categorize-html","130","444637","0.0-130.0","6qatxo38","","Which video showed <span style=""font-size:30px"">Sandy's</span> attention?","49","","","","","true"
"null","","","html-keyboard-response","131","445141","0.0-131.0","6qatxo38",""," ","null","","","","",""
"","","","call-function","132","445141","0.0-132.0","6qatxo38","","","","","","","",""
"null","","","html-keyboard-response","133","446644","0.0-133.0","6qatxo38","","<span style=""color:Black; font-size:50px;"">Video 1</span>","null","","","","",""
"null","","","video-keyboard-response","134","449713","0.0-134.0","6qatxo38","","","null","","<span style=""color:Black; font-size:50px;"">Sandy","Sandy","STIM_SET_5/1592657.bmp_pp64_L1_V1_veridical_freeview_isoFalse_fps144.mp4",""
"null","","","html-keyboard-response","135","451215","0.0-135.0","6qatxo38","","<span style=""color:Black; font-size:50px;"">Video 2</span>","null","","","","",""
"null","","","video-keyboard-response","136","454282","0.0-136.0","6qatxo38","","","null","","<span style=""color:Black; font-size:50px;"">Casey","Casey","STIM_SET_5/1592657.bmp_pp151_L1_V1_veridical_freeview_isoFalse_fps144.mp4",""
"","","","call-function","137","454282","0.0-137.0","6qatxo38","","","","","","","",""
"1484.3249999999534","","","categorize-html","138","457774","0.0-138.0","6qatxo38","","Which video showed <span style=""font-size:30px"">Sandy's</span> attention?","50","","","","","false"
"null","","","html-keyboard-response","139","458275","0.0-139.0","6qatxo38",""," ","null","","","","",""
"","","","call-function","140","458276","0.0-140.0","6qatxo38","","","","","","","",""
"null","","","html-keyboard-response","141","459779","0.0-141.0","6qatxo38","","<span style=""color:Black; font-size:50px;"">Video 1</span>","null","","","","",""
"null","","","video-keyboard-response","142","462853","0.0-142.0","6qatxo38","","","null","","<span style=""color:Black; font-size:50px;"">Casey","Casey","STIM_SET_5/713769.bmp_pp151_L1_V1_veridical_freeview_isoFalse_fps144.mp4",""
"null","","","html-keyboard-response","143","464356","0.0-143.0","6qatxo38","","<span style=""color:Black; font-size:50px;"">Video 2</span>","null","","","","",""
"null","","","video-keyboard-response","144","467418","0.0-144.0","6qatxo38","","","null","","<span style=""color:Black; font-size:50px;"">Sandy","Sandy","STIM_SET_5/713769.bmp_pp64_L1_V1_veridical_freeview_isoFalse_fps144.mp4",""
"","","","call-function","145","467418","0.0-145.0","6qatxo38","","","","","","","",""
"916.1049999999814","","","categorize-html","146","470336","0.0-146.0","6qatxo38","","Which video showed <span style=""font-size:30px"">Sandy's</span> attention?","50","","","","","true"
"null","","","html-keyboard-response","147","470843","0.0-147.0","6qatxo38",""," ","null","","","","",""
"","","","call-function","148","470843","0.0-148.0","6qatxo38","","","","","","","",""
"null","","","html-keyboard-response","149","472350","0.0-149.0","6qatxo38","","<span style=""color:Black; font-size:50px;"">Video 1</span>","null","","","","",""
"null","","","video-keyboard-response","150","475469","0.0-150.0","6qatxo38","","","null","","<span style=""color:Black; font-size:50px;"">Casey","Casey","STIM_SET_5/1159440.bmp_pp151_L1_V1_veridical_freeview_isoFalse_fps144.mp4",""
"null","","","html-keyboard-response","151","476971","0.0-151.0","6qatxo38","","<span style=""color:Black; font-size:50px;"">Video 2</span>","null","","","","",""
"null","","","video-keyboard-response","152","480099","0.0-152.0","6qatxo38","","","null","","<span style=""color:Black; font-size:50px;"">Sandy","Sandy","STIM_SET_5/1159440.bmp_pp64_L1_V1_veridical_freeview_isoFalse_fps144.mp4",""
"","","","call-function","153","480099","0.0-153.0","6qatxo38","","","","","","","",""
"931.4349999999977","","","categorize-html","154","483034","0.0-154.0","6qatxo38","","Which video showed <span style=""font-size:30px"">Sandy's</span> attention?","49","","","","","false"
"null","","","html-keyboard-response","155","483536","0.0-155.0","6qatxo38",""," ","null","","","","",""
"","","","call-function","156","483536","0.0-156.0","6qatxo38","","","","","","","",""
"null","","","html-keyboard-response","157","485039","0.0-157.0","6qatxo38","","<span style=""color:Black; font-size:50px;"">Video 1</span>","null","","","","",""
"null","","","video-keyboard-response","158","488134","0.0-158.0","6qatxo38","","","null","","<span style=""color:Black; font-size:50px;"">Casey","Casey","STIM_SET_5/713330.bmp_pp151_L1_V1_veridical_freeview_isoFalse_fps144.mp4",""
"null","","","html-keyboard-response","159","489640","0.0-159.0","6qatxo38","","<span style=""color:Black; font-size:50px;"">Video 2</span>","null","","","","",""
"null","","","video-keyboard-response","160","492736","0.0-160.0","6qatxo38","","","null","","<span style=""color:Black; font-size:50px;"">Sandy","Sandy","STIM_SET_5/713330.bmp_pp64_L1_V1_veridical_freeview_isoFalse_fps144.mp4",""
"","","","call-function","161","492736","0.0-161.0","6qatxo38","","","","","","","",""
"662.4599999999627","","","categorize-html","162","495405","0.0-162.0","6qatxo38","","Which video showed <span style=""font-size:30px"">Sandy's</span> attention?","49","","","","","false"
"null","","","html-keyboard-response","163","495909","0.0-163.0","6qatxo38",""," ","null","","","","",""
"","","","call-function","164","495909","0.0-164.0","6qatxo38","","","","","","","",""
"null","","","html-keyboard-response","165","497412","0.0-165.0","6qatxo38","","<span style=""color:Black; font-size:50px;"">Video 1</span>","null","","","","",""
"null","","","video-keyboard-response","166","500504","0.0-166.0","6qatxo38","","","null","","<span style=""color:Black; font-size:50px;"">Casey","Casey","STIM_SET_5/1591932.bmp_pp151_L1_V1_veridical_freeview_isoFalse_fps144.mp4",""
"null","","","html-keyboard-response","167","502009","0.0-167.0","6qatxo38","","<span style=""color:Black; font-size:50px;"">Video 2</span>","null","","","","",""
"null","","","video-keyboard-response","168","505109","0.0-168.0","6qatxo38","","","null","","<span style=""color:Black; font-size:50px;"">Sandy","Sandy","STIM_SET_5/1591932.bmp_pp64_L1_V1_veridical_freeview_isoFalse_fps144.mp4",""
"","","","call-function","169","505109","0.0-169.0","6qatxo38","","","","","","","",""
"1105.5050000000047","","","categorize-html","170","508217","0.0-170.0","6qatxo38","","Which video showed <span style=""font-size:30px"">Sandy's</span> attention?","50","","","","","true"
"null","","","html-keyboard-response","171","508721","0.0-171.0","6qatxo38",""," ","null","","","","",""
"3414.4400000000023","","","instructions","172","512136","0.0-172.0","6qatxo38","[{""page_index"":0,""viewing_time"":1990.984999999986},{""page_index"":1,""viewing_time"":609.070000000007},{""page_index"":2,""viewing_time"":814.2700000000186}]","","","","","","",""
"1621.3499999999767","","","instructions","173","513757","0.0-173.0","6qatxo38","[{""page_index"":0,""viewing_time"":554.5250000000233},{""page_index"":1,""viewing_time"":519.804999999993},{""page_index"":2,""viewing_time"":546.8699999999953}]","","","","","","",""
"","","","call-function","174","513758","0.0-174.0","6qatxo38","","","","","","","",""
"null","","","html-keyboard-response","175","515260","0.0-175.0","6qatxo38","","<span style=""color:Black; font-size:50px;"">Video 1</span>","null","","","","",""
"null","","","video-keyboard-response","176","518334","0.0-176.0","6qatxo38","","","null","","<span style=""color:Black; font-size:50px;"">Casey","Casey","STIM_SET_5/1592189.bmp_pp151_L1_V1_veridical_freeview_isoFalse_fps144.mp4",""
"null","","","html-keyboard-response","177","519838","0.0-177.0","6qatxo38","","<span style=""color:Black; font-size:50px;"">Video 2</span>","null","","","","",""
"null","","","video-keyboard-response","178","522905","0.0-178.0","6qatxo38","","","null","","<span style=""color:Black; font-size:50px;"">Sandy","Sandy","STIM_SET_5/1592189.bmp_pp64_L1_V1_veridical_freeview_isoFalse_fps144.mp4",""
"","","","call-function","179","522906","0.0-179.0","6qatxo38","","","","","","","",""
"1197.1600000000326","","","categorize-html","180","526106","0.0-180.0","6qatxo38","","Which video showed <span style=""font-size:30px"">Sandy's</span> attention?","49","","","","","false"
"null","","","html-keyboard-response","181","526609","0.0-181.0","6qatxo38",""," ","null","","","","",""
"","","","call-function","182","526609","0.0-182.0","6qatxo38","","","","","","","",""
"null","","","html-keyboard-response","183","528112","0.0-183.0","6qatxo38","","<span style=""color:Black; font-size:50px;"">Video 1</span>","null","","","","",""
"null","","","video-keyboard-response","184","531200","0.0-184.0","6qatxo38","","","null","","<span style=""color:Black; font-size:50px;"">Sandy","Sandy","STIM_SET_5/498326.bmp_pp64_L1_V1_veridical_freeview_isoFalse_fps144.mp4",""
"null","","","html-keyboard-response","185","532701","0.0-185.0","6qatxo38","","<span style=""color:Black; font-size:50px;"">Video 2</span>","null","","","","",""
"null","","","video-keyboard-response","186","535798","0.0-186.0","6qatxo38","","","null","","<span style=""color:Black; font-size:50px;"">Casey","Casey","STIM_SET_5/498326.bmp_pp151_L1_V1_veridical_freeview_isoFalse_fps144.mp4",""
"","","","call-function","187","535799","0.0-187.0","6qatxo38","","","","","","","",""
"1911.9000000000233","","","categorize-html","188","539714","0.0-188.0","6qatxo38","","Which video showed <span style=""font-size:30px"">Sandy's</span> attention?","49","","","","","true"
"null","","","html-keyboard-response","189","540216","0.0-189.0","6qatxo38",""," ","null","","","","",""
"","","","call-function","190","540216","0.0-190.0","6qatxo38","","","","","","","",""
"null","","","html-keyboard-response","191","541718","0.0-191.0","6qatxo38","","<span style=""color:Black; font-size:50px;"">Video 1</span>","null","","","","",""
"null","","","video-keyboard-response","192","544813","0.0-192.0","6qatxo38","","","null","","<span style=""color:Black; font-size:50px;"">Casey","Casey","STIM_SET_5/713760.bmp_pp151_L1_V1_veridical_freeview_isoFalse_fps144.mp4",""
"null","","","html-keyboard-response","193","546316","0.0-193.0","6qatxo38","","<span style=""color:Black; font-size:50px;"">Video 2</span>","null","","","","",""
"null","","","video-keyboard-response","194","549422","0.0-194.0","6qatxo38","","","null","","<span style=""color:Black; font-size:50px;"">Sandy","Sandy","STIM_SET_5/713760.bmp_pp64_L1_V1_veridical_freeview_isoFalse_fps144.mp4",""
"","","","call-function","195","549422","0.0-195.0","6qatxo38","","","","","","","",""
"608.4550000000745","","","categorize-html","196","552034","0.0-196.0","6qatxo38","","Which video showed <span style=""font-size:30px"">Sandy's</span> attention?","50","","","","","true"
"null","","","html-keyboard-response","197","552540","0.0-197.0","6qatxo38",""," ","null","","","","",""
"","","","call-function","198","552540","0.0-198.0","6qatxo38","","","","","","","",""
"null","","","html-keyboard-response","199","554044","0.0-199.0","6qatxo38","","<span style=""color:Black; font-size:50px;"">Video 1</span>","null","","","","",""
"null","","","video-keyboard-response","200","557178","0.0-200.0","6qatxo38","","","null","","<span style=""color:Black; font-size:50px;"">Sandy","Sandy","STIM_SET_5/285959.bmp_pp64_L1_V1_veridical_freeview_isoFalse_fps144.mp4",""
"null","","","html-keyboard-response","201","558679","0.0-201.0","6qatxo38","","<span style=""color:Black; font-size:50px;"">Video 2</span>","null","","","","",""
"null","","","video-keyboard-response","202","561783","0.0-202.0","6qatxo38","","","null","","<span style=""color:Black; font-size:50px;"">Casey","Casey","STIM_SET_5/285959.bmp_pp151_L1_V1_veridical_freeview_isoFalse_fps144.mp4",""
"","","","call-function","203","561783","0.0-203.0","6qatxo38","","","","","","","",""
"927.6999999999534","","","categorize-html","204","564713","0.0-204.0","6qatxo38","","Which video showed <span style=""font-size:30px"">Sandy's</span> attention?","49","","","","","true"
"null","","","html-keyboard-response","205","565214","0.0-205.0","6qatxo38",""," ","null","","","","",""
"","","","call-function","206","565214","0.0-206.0","6qatxo38","","","","","","","",""
"null","","","html-keyboard-response","207","566718","0.0-207.0","6qatxo38","","<span style=""color:Black; font-size:50px;"">Video 1</span>","null","","","","",""
"null","","","video-keyboard-response","208","569818","0.0-208.0","6qatxo38","","","null","","<span style=""color:Black; font-size:50px;"">Sandy","Sandy","STIM_SET_5/285932.bmp_pp64_L1_V1_veridical_freeview_isoFalse_fps144.mp4",""
"null","","","html-keyboard-response","209","571323","0.0-209.0","6qatxo38","","<span style=""color:Black; font-size:50px;"">Video 2</span>","null","","","","",""
"null","","","video-keyboard-response","210","574409","0.0-210.0","6qatxo38","","","null","","<span style=""color:Black; font-size:50px;"">Casey","Casey","STIM_SET_5/285932.bmp_pp151_L1_V1_veridical_freeview_isoFalse_fps144.mp4",""
"","","","call-function","211","574410","0.0-211.0","6qatxo38","","","","","","","",""
"565.1300000000047","","","categorize-html","212","576977","0.0-212.0","6qatxo38","","Which video showed <span style=""font-size:30px"">Sandy's</span> attention?","49","","","","","true"
"null","","","html-keyboard-response","213","577479","0.0-213.0","6qatxo38",""," ","null","","","","",""
"","","","call-function","214","577479","0.0-214.0","6qatxo38","","","","","","","",""
"null","","","html-keyboard-response","215","578981","0.0-215.0","6qatxo38","","<span style=""color:Black; font-size:50px;"">Video 1</span>","null","","","","",""
"null","","","video-keyboard-response","216","582056","0.0-216.0","6qatxo38","","","null","","<span style=""color:Black; font-size:50px;"">Sandy","Sandy","STIM_SET_5/107933.bmp_pp64_L1_V1_veridical_freeview_isoFalse_fps144.mp4",""
"null","","","html-keyboard-response","217","583560","0.0-217.0","6qatxo38","","<span style=""color:Black; font-size:50px;"">Video 2</span>","null","","","","",""
"null","","","video-keyboard-response","218","586636","0.0-218.0","6qatxo38","","","null","","<span style=""color:Black; font-size:50px;"">Casey","Casey","STIM_SET_5/107933.bmp_pp151_L1_V1_veridical_freeview_isoFalse_fps144.mp4",""
"","","","call-function","219","586636","0.0-219.0","6qatxo38","","","","","","","",""
"1002.609999999986","","","categorize-html","220","589643","0.0-220.0","6qatxo38","","Which video showed <span style=""font-size:30px"">Sandy's</span> attention?","50","","","","","false"
"null","","","html-keyboard-response","221","590148","0.0-221.0","6qatxo38",""," ","null","","","","",""
"","","","call-function","222","590149","0.0-222.0","6qatxo38","","","","","","","",""
"null","","","html-keyboard-response","223","591650","0.0-223.0","6qatxo38","","<span style=""color:Black; font-size:50px;"">Video 1</span>","null","","","","",""
"null","","","video-keyboard-response","224","594718","0.0-224.0","6qatxo38","","","null","","<span style=""color:Black; font-size:50px;"">Sandy","Sandy","STIM_SET_5/498339.bmp_pp64_L1_V1_veridical_freeview_isoFalse_fps144.mp4",""
"null","","","html-keyboard-response","225","596223","0.0-225.0","6qatxo38","","<span style=""color:Black; font-size:50px;"">Video 2</span>","null","","","","",""
"null","","","video-keyboard-response","226","599301","0.0-226.0","6qatxo38","","","null","","<span style=""color:Black; font-size:50px;"">Casey","Casey","STIM_SET_5/498339.bmp_pp151_L1_V1_veridical_freeview_isoFalse_fps144.mp4",""
"","","","call-function","227","599301","0.0-227.0","6qatxo38","","","","","","","",""
"466.0350000000326","","","categorize-html","228","601770","0.0-228.0","6qatxo38","","Which video showed <span style=""font-size:30px"">Sandy's</span> attention?","50","","","","","false"
"null","","","html-keyboard-response","229","602274","0.0-229.0","6qatxo38",""," ","null","","","","",""
"","","","call-function","230","602274","0.0-230.0","6qatxo38","","","","","","","",""
"null","","","html-keyboard-response","231","603780","0.0-231.0","6qatxo38","","<span style=""color:Black; font-size:50px;"">Video 1</span>","null","","","","",""
"null","","","video-keyboard-response","232","606885","0.0-232.0","6qatxo38","","","null","","<span style=""color:Black; font-size:50px;"">Casey","Casey","STIM_SET_5/1592934.bmp_pp151_L1_V1_veridical_freeview_isoFalse_fps144.mp4",""
"null","","","html-keyboard-response","233","608387","0.0-233.0","6qatxo38","","<span style=""color:Black; font-size:50px;"">Video 2</span>","null","","","","",""
"null","","","video-keyboard-response","234","611489","0.0-234.0","6qatxo38","","","null","","<span style=""color:Black; font-size:50px;"">Sandy","Sandy","STIM_SET_5/1592934.bmp_pp64_L1_V1_veridical_freeview_isoFalse_fps144.mp4",""
"","","","call-function","235","611490","0.0-235.0","6qatxo38","","","","","","","",""
"1213.3699999999953","","","categorize-html","236","614710","0.0-236.0","6qatxo38","","Which video showed <span style=""font-size:30px"">Sandy's</span> attention?","49","","","","","false"
"null","","","html-keyboard-response","237","615212","0.0-237.0","6qatxo38",""," ","null","","","","",""
"","","","call-function","238","615212","0.0-238.0","6qatxo38","","","","","","","",""
"null","","","html-keyboard-response","239","616716","0.0-239.0","6qatxo38","","<span style=""color:Black; font-size:50px;"">Video 1</span>","null","","","","",""
"null","","","video-keyboard-response","240","619829","0.0-240.0","6qatxo38","","","null","","<span style=""color:Black; font-size:50px;"">Sandy","Sandy","STIM_SET_5/713371.bmp_pp64_L1_V1_veridical_freeview_isoFalse_fps144.mp4",""
"null","","","html-keyboard-response","241","621333","0.0-241.0","6qatxo38","","<span style=""color:Black; font-size:50px;"">Video 2</span>","null","","","","",""
"null","","","video-keyboard-response","242","624440","0.0-242.0","6qatxo38","","","null","","<span style=""color:Black; font-size:50px;"">Casey","Casey","STIM_SET_5/713371.bmp_pp151_L1_V1_veridical_freeview_isoFalse_fps144.mp4",""
"","","","call-function","243","624441","0.0-243.0","6qatxo38","","","","","","","",""
"2926.2850000000326","","","categorize-html","244","629371","0.0-244.0","6qatxo38","","Which video showed <span style=""font-size:30px"">Sandy's</span> attention?","50","","","","","false"
"null","","","html-keyboard-response","245","629875","0.0-245.0","6qatxo38",""," ","null","","","","",""
"","","","call-function","246","629876","0.0-246.0","6qatxo38","","","","","","","",""
"null","","","html-keyboard-response","247","631378","0.0-247.0","6qatxo38","","<span style=""color:Black; font-size:50px;"">Video 1</span>","null","","","","",""
"null","","","video-keyboard-response","248","634485","0.0-248.0","6qatxo38","","","null","","<span style=""color:Black; font-size:50px;"">Sandy","Sandy","STIM_SET_5/1159365.bmp_pp64_L1_V1_veridical_freeview_isoFalse_fps144.mp4",""
"null","","","html-keyboard-response","249","635988","0.0-249.0","6qatxo38","","<span style=""color:Black; font-size:50px;"">Video 2</span>","null","","","","",""
"null","","","video-keyboard-response","250","639113","0.0-250.0","6qatxo38","","","null","","<span style=""color:Black; font-size:50px;"">Casey","Casey","STIM_SET_5/1159365.bmp_pp151_L1_V1_veridical_freeview_isoFalse_fps144.mp4",""
"","","","call-function","251","639113","0.0-251.0","6qatxo38","","","","","","","",""
"709.9400000000605","","","categorize-html","252","641828","0.0-252.0","6qatxo38","","Which video showed <span style=""font-size:30px"">Sandy's</span> attention?","50","","","","","false"
"null","","","html-keyboard-response","253","642332","0.0-253.0","6qatxo38",""," ","null","","","","",""
"4135.839999999967","","","instructions","254","646468","0.0-254.0","6qatxo38","[{""page_index"":0,""viewing_time"":2689.055000000051},{""page_index"":1,""viewing_time"":802.6049999999814},{""page_index"":2,""viewing_time"":644.0749999999534}]","","","","","","",""
"1088.6199999999953","","","instructions","255","647557","0.0-255.0","6qatxo38","[{""page_index"":0,""viewing_time"":497.94999999995343},{""page_index"":1,""viewing_time"":92},{""page_index"":2,""viewing_time"":498.56500000006054}]","","","","","","",""
"","","","call-function","256","647557","0.0-256.0","6qatxo38","","","","","","","",""
"null","","","html-keyboard-response","257","649062","0.0-257.0","6qatxo38","","<span style=""color:Black; font-size:50px;"">Video 1</span>","null","","","","",""
"null","","","video-keyboard-response","258","652164","0.0-258.0","6qatxo38","","","null","","<span style=""color:Black; font-size:50px;"">Sandy","Sandy","STIM_SET_5/1159508.bmp_pp64_L1_V1_veridical_freeview_isoFalse_fps144.mp4",""
"null","","","html-keyboard-response","259","653668","0.0-259.0","6qatxo38","","<span style=""color:Black; font-size:50px;"">Video 2</span>","null","","","","",""
"null","","","video-keyboard-response","260","656757","0.0-260.0","6qatxo38","","","null","","<span style=""color:Black; font-size:50px;"">Casey","Casey","STIM_SET_5/1159508.bmp_pp151_L1_V1_veridical_freeview_isoFalse_fps144.mp4",""
"","","","call-function","261","656757","0.0-261.0","6qatxo38","","","","","","","",""
"409.4200000000419","","","categorize-html","262","659170","0.0-262.0","6qatxo38","","Which video showed <span style=""font-size:30px"">Sandy's</span> attention?","49","","","","","true"
"null","","","html-keyboard-response","263","659675","0.0-263.0","6qatxo38",""," ","null","","","","",""
"","","","call-function","264","659675","0.0-264.0","6qatxo38","","","","","","","",""
"null","","","html-keyboard-response","265","661181","0.0-265.0","6qatxo38","","<span style=""color:Black; font-size:50px;"">Video 1</span>","null","","","","",""
"null","","","video-keyboard-response","266","664259","0.0-266.0","6qatxo38","","","null","","<span style=""color:Black; font-size:50px;"">Casey","Casey","STIM_SET_5/285905.bmp_pp151_L1_V1_veridical_freeview_isoFalse_fps144.mp4",""
"null","","","html-keyboard-response","267","665762","0.0-267.0","6qatxo38","","<span style=""color:Black; font-size:50px;"">Video 2</span>","null","","","","",""
"null","","","video-keyboard-response","268","668839","0.0-268.0","6qatxo38","","","null","","<span style=""color:Black; font-size:50px;"">Sandy","Sandy","STIM_SET_5/285905.bmp_pp64_L1_V1_veridical_freeview_isoFalse_fps144.mp4",""
"","","","call-function","269","668839","0.0-269.0","6qatxo38","","","","","","","",""
"544.1300000000047","","","categorize-html","270","671385","0.0-270.0","6qatxo38","","Which video showed <span style=""font-size:30px"">Sandy's</span> attention?","49","","","","","false"
"null","","","html-keyboard-response","271","671887","0.0-271.0","6qatxo38",""," ","null","","","","",""
"","","","call-function","272","671887","0.0-272.0","6qatxo38","","","","","","","",""
"null","","","html-keyboard-response","273","673389","0.0-273.0","6qatxo38","","<span style=""color:Black; font-size:50px;"">Video 1</span>","null","","","","",""
"null","","","video-keyboard-response","274","676495","0.0-274.0","6qatxo38","","","null","","<span style=""color:Black; font-size:50px;"">Casey","Casey","STIM_SET_5/498398.bmp_pp151_L1_V1_veridical_freeview_isoFalse_fps144.mp4",""
"null","","","html-keyboard-response","275","678000","0.0-275.0","6qatxo38","","<span style=""color:Black; font-size:50px;"">Video 2</span>","null","","","","",""
"null","","","video-keyboard-response","276","681103","0.0-276.0","6qatxo38","","","null","","<span style=""color:Black; font-size:50px;"">Sandy","Sandy","STIM_SET_5/498398.bmp_pp64_L1_V1_veridical_freeview_isoFalse_fps144.mp4",""
"","","","call-function","277","681104","0.0-277.0","6qatxo38","","","","","","","",""
"1391.3850000000093","","","categorize-html","278","684497","0.0-278.0","6qatxo38","","Which video showed <span style=""font-size:30px"">Sandy's</span> attention?","50","","","","","true"
"null","","","html-keyboard-response","279","685000","0.0-279.0","6qatxo38",""," ","null","","","","",""
"","","","call-function","280","685000","0.0-280.0","6qatxo38","","","","","","","",""
"null","","","html-keyboard-response","281","686502","0.0-281.0","6qatxo38","","<span style=""color:Black; font-size:50px;"">Video 1</span>","null","","","","",""
"null","","","video-keyboard-response","282","689618","0.0-282.0","6qatxo38","","","null","","<span style=""color:Black; font-size:50px;"">Sandy","Sandy","STIM_SET_5/1159819.bmp_pp64_L1_V1_veridical_freeview_isoFalse_fps144.mp4",""
"null","","","html-keyboard-response","283","691123","0.0-283.0","6qatxo38","","<span style=""color:Black; font-size:50px;"">Video 2</span>","null","","","","",""
"null","","","video-keyboard-response","284","694228","0.0-284.0","6qatxo38","","","null","","<span style=""color:Black; font-size:50px;"">Casey","Casey","STIM_SET_5/1159819.bmp_pp151_L1_V1_veridical_freeview_isoFalse_fps144.mp4",""
"","","","call-function","285","694228","0.0-285.0","6qatxo38","","","","","","","",""
"402.5900000000838","","","categorize-html","286","696633","0.0-286.0","6qatxo38","","Which video showed <span style=""font-size:30px"">Sandy's</span> attention?","49","","","","","true"
"null","","","html-keyboard-response","287","697136","0.0-287.0","6qatxo38",""," ","null","","","","",""
"","","","call-function","288","697137","0.0-288.0","6qatxo38","","","","","","","",""
"null","","","html-keyboard-response","289","698642","0.0-289.0","6qatxo38","","<span style=""color:Black; font-size:50px;"">Video 1</span>","null","","","","",""
"null","","","video-keyboard-response","290","701740","0.0-290.0","6qatxo38","","","null","","<span style=""color:Black; font-size:50px;"">Casey","Casey","STIM_SET_5/1591876.bmp_pp151_L1_V1_veridical_freeview_isoFalse_fps144.mp4",""
"null","","","html-keyboard-response","291","703242","0.0-291.0","6qatxo38","","<span style=""color:Black; font-size:50px;"">Video 2</span>","null","","","","",""
"null","","","video-keyboard-response","292","706332","0.0-292.0","6qatxo38","","","null","","<span style=""color:Black; font-size:50px;"">Sandy","Sandy","STIM_SET_5/1591876.bmp_pp64_L1_V1_veridical_freeview_isoFalse_fps144.mp4",""
"","","","call-function","293","706332","0.0-293.0","6qatxo38","","","","","","","",""
"1123.280000000028","","","categorize-html","294","709461","0.0-294.0","6qatxo38","","Which video showed <span style=""font-size:30px"">Sandy's</span> attention?","50","","","","","true"
"null","","","html-keyboard-response","295","709964","0.0-295.0","6qatxo38",""," ","null","","","","",""
"","","","call-function","296","709964","0.0-296.0","6qatxo38","","","","","","","",""
"null","","","html-keyboard-response","297","711467","0.0-297.0","6qatxo38","","<span style=""color:Black; font-size:50px;"">Video 1</span>","null","","","","",""
"null","","","video-keyboard-response","298","714562","0.0-298.0","6qatxo38","","","null","","<span style=""color:Black; font-size:50px;"">Casey","Casey","STIM_SET_5/1593056.bmp_pp151_L1_V1_veridical_freeview_isoFalse_fps144.mp4",""
"null","","","html-keyboard-response","299","716068","0.0-299.0","6qatxo38","","<span style=""color:Black; font-size:50px;"">Video 2</span>","null","","","","",""
"null","","","video-keyboard-response","300","719143","0.0-300.0","6qatxo38","","","null","","<span style=""color:Black; font-size:50px;"">Sandy","Sandy","STIM_SET_5/1593056.bmp_pp64_L1_V1_veridical_freeview_isoFalse_fps144.mp4",""
"","","","call-function","301","719144","0.0-301.0","6qatxo38","","","","","","","",""
"1255.3199999999488","","","categorize-html","302","722405","0.0-302.0","6qatxo38","","Which video showed <span style=""font-size:30px"">Sandy's</span> attention?","49","","","","","false"
"null","","","html-keyboard-response","303","722908","0.0-303.0","6qatxo38",""," ","null","","","","",""
"","","","call-function","304","722908","0.0-304.0","6qatxo38","","","","","","","",""
"null","","","html-keyboard-response","305","724414","0.0-305.0","6qatxo38","","<span style=""color:Black; font-size:50px;"">Video 1</span>","null","","","","",""
"null","","","video-keyboard-response","306","727482","0.0-306.0","6qatxo38","","","null","","<span style=""color:Black; font-size:50px;"">Sandy","Sandy","STIM_SET_5/497950.bmp_pp64_L1_V1_veridical_freeview_isoFalse_fps144.mp4",""
"null","","","html-keyboard-response","307","728988","0.0-307.0","6qatxo38","","<span style=""color:Black; font-size:50px;"">Video 2</span>","null","","","","",""
"null","","","video-keyboard-response","308","732068","0.0-308.0","6qatxo38","","","null","","<span style=""color:Black; font-size:50px;"">Casey","Casey","STIM_SET_5/497950.bmp_pp151_L1_V1_veridical_freeview_isoFalse_fps144.mp4",""
"","","","call-function","309","732068","0.0-309.0","6qatxo38","","","","","","","",""
"298.9799999999814","","","categorize-html","310","734372","0.0-310.0","6qatxo38","","Which video showed <span style=""font-size:30px"">Sandy's</span> attention?","49","","","","","true"
"null","","","html-keyboard-response","311","734874","0.0-311.0","6qatxo38",""," ","null","","","","",""
"","","","call-function","312","734874","0.0-312.0","6qatxo38","","","","","","","",""
"null","","","html-keyboard-response","313","736375","0.0-313.0","6qatxo38","","<span style=""color:Black; font-size:50px;"">Video 1</span>","null","","","","",""
"null","","","video-keyboard-response","314","739468","0.0-314.0","6qatxo38","","","null","","<span style=""color:Black; font-size:50px;"">Casey","Casey","STIM_SET_5/1159768.bmp_pp151_L1_V1_veridical_freeview_isoFalse_fps144.mp4",""
"null","","","html-keyboard-response","315","740972","0.0-315.0","6qatxo38","","<span style=""color:Black; font-size:50px;"">Video 2</span>","null","","","","",""
"null","","","video-keyboard-response","316","744075","0.0-316.0","6qatxo38","","","null","","<span style=""color:Black; font-size:50px;"">Sandy","Sandy","STIM_SET_5/1159768.bmp_pp64_L1_V1_veridical_freeview_isoFalse_fps144.mp4",""
"","","","call-function","317","744075","0.0-317.0","6qatxo38","","","","","","","",""
"955.8699999999953","","","categorize-html","318","747037","0.0-318.0","6qatxo38","","Which video showed <span style=""font-size:30px"">Sandy's</span> attention?","49","","","","","false"
"null","","","html-keyboard-response","319","747542","0.0-319.0","6qatxo38",""," ","null","","","","",""
"","","","call-function","320","747542","0.0-320.0","6qatxo38","","","","","","","",""
"null","","","html-keyboard-response","321","749045","0.0-321.0","6qatxo38","","<span style=""color:Black; font-size:50px;"">Video 1</span>","null","","","","",""
"null","","","video-keyboard-response","322","752147","0.0-322.0","6qatxo38","","","null","","<span style=""color:Black; font-size:50px;"">Casey","Casey","STIM_SET_5/1160062.bmp_pp151_L1_V1_veridical_freeview_isoFalse_fps144.mp4",""
"null","","","html-keyboard-response","323","753649","0.0-323.0","6qatxo38","","<span style=""color:Black; font-size:50px;"">Video 2</span>","null","","","","",""
"null","","","video-keyboard-response","324","756750","0.0-324.0","6qatxo38","","","null","","<span style=""color:Black; font-size:50px;"">Sandy","Sandy","STIM_SET_5/1160062.bmp_pp64_L1_V1_veridical_freeview_isoFalse_fps144.mp4",""
"","","","call-function","325","756750","0.0-325.0","6qatxo38","","","","","","","",""
"752.9549999999581","","","categorize-html","326","759507","0.0-326.0","6qatxo38","","Which video showed <span style=""font-size:30px"">Sandy's</span> attention?","49","","","","","false"
"null","","","html-keyboard-response","327","760010","0.0-327.0","6qatxo38",""," ","null","","","","",""
"","","","call-function","328","760010","0.0-328.0","6qatxo38","","","","","","","",""
"null","","","html-keyboard-response","329","761516","0.0-329.0","6qatxo38","","<span style=""color:Black; font-size:50px;"">Video 1</span>","null","","","","",""
"null","","","video-keyboard-response","330","764618","0.0-330.0","6qatxo38","","","null","","<span style=""color:Black; font-size:50px;"">Sandy","Sandy","STIM_SET_5/150432.bmp_pp64_L1_V1_veridical_freeview_isoFalse_fps144.mp4",""
"null","","","html-keyboard-response","331","766121","0.0-331.0","6qatxo38","","<span style=""color:Black; font-size:50px;"">Video 2</span>","null","","","","",""
"null","","","video-keyboard-response","332","769224","0.0-332.0","6qatxo38","","","null","","<span style=""color:Black; font-size:50px;"">Casey","Casey","STIM_SET_5/150432.bmp_pp151_L1_V1_veridical_freeview_isoFalse_fps144.mp4",""
"","","","call-function","333","769225","0.0-333.0","6qatxo38","","","","","","","",""
"518.6050000000978","","","categorize-html","334","771750","0.0-334.0","6qatxo38","","Which video showed <span style=""font-size:30px"">Sandy's</span> attention?","50","","","","","false"
"null","","","html-keyboard-response","335","772252","0.0-335.0","6qatxo38",""," ","null","","","","",""
"3920.3950000000186","","","instructions","336","776173","0.0-336.0","6qatxo38","[{""page_index"":0,""viewing_time"":2603.7900000000373},{""page_index"":1,""viewing_time"":1061.4899999999907},{""page_index"":2,""viewing_time"":255}]","","","","","","",""
"1063.8300000000745","","","instructions","337","777237","0.0-337.0","6qatxo38","[{""page_index"":0,""viewing_time"":232.54000000003725},{""page_index"":1,""viewing_time"":434.1049999999814},{""page_index"":2,""viewing_time"":397.07500000006985}]","","","","","","",""
"","","","call-function","338","777237","0.0-338.0","6qatxo38","","","","","","","",""
"null","","","html-keyboard-response","339","778742","0.0-339.0","6qatxo38","","<span style=""color:Black; font-size:50px;"">Video 1</span>","null","","","","",""
"null","","","video-keyboard-response","340","781871","0.0-340.0","6qatxo38","","","null","","<span style=""color:Black; font-size:50px;"">Sandy","Sandy","STIM_SET_5/713786.bmp_pp64_L1_V1_veridical_freeview_isoFalse_fps144.mp4",""
"null","","","html-keyboard-response","341","783377","0.0-341.0","6qatxo38","","<span style=""color:Black; font-size:50px;"">Video 2</span>","null","","","","",""
"null","","","video-keyboard-response","342","786467","0.0-342.0","6qatxo38","","","null","","<span style=""color:Black; font-size:50px;"">Casey","Casey","STIM_SET_5/713786.bmp_pp151_L1_V1_veridical_freeview_isoFalse_fps144.mp4",""
"","","","call-function","343","786468","0.0-343.0","6qatxo38","","","","","","","",""
"490.0999999999767","","","categorize-html","344","788964","0.0-344.0","6qatxo38","","Which video showed <span style=""font-size:30px"">Sandy's</span> attention?","49","","","","","true"
"null","","","html-keyboard-response","345","789467","0.0-345.0","6qatxo38",""," ","null","","","","",""
"","","","call-function","346","789467","0.0-346.0","6qatxo38","","","","","","","",""
"null","","","html-keyboard-response","347","790974","0.0-347.0","6qatxo38","","<span style=""color:Black; font-size:50px;"">Video 1</span>","null","","","","",""
"null","","","video-keyboard-response","348","794042","0.0-348.0","6qatxo38","","","null","","<span style=""color:Black; font-size:50px;"">Sandy","Sandy","STIM_SET_5/1159967.bmp_pp64_L1_V1_veridical_freeview_isoFalse_fps144.mp4",""
"null","","","html-keyboard-response","349","795546","0.0-349.0","6qatxo38","","<span style=""color:Black; font-size:50px;"">Video 2</span>","null","","","","",""
"null","","","video-keyboard-response","350","798616","0.0-350.0","6qatxo38","","","null","","<span style=""color:Black; font-size:50px;"">Casey","Casey","STIM_SET_5/1159967.bmp_pp151_L1_V1_veridical_freeview_isoFalse_fps144.mp4",""
"","","","call-function","351","798617","0.0-351.0","6qatxo38","","","","","","","",""
"926.2199999999721","","","categorize-html","352","801549","0.0-352.0","6qatxo38","","Which video showed <span style=""font-size:30px"">Sandy's</span> attention?","50","","","","","false"
"null","","","html-keyboard-response","353","802051","0.0-353.0","6qatxo38",""," ","null","","","","",""
"","","","call-function","354","802051","0.0-354.0","6qatxo38","","","","","","","",""
"null","","","html-keyboard-response","355","803556","0.0-355.0","6qatxo38","","<span style=""color:Black; font-size:50px;"">Video 1</span>","null","","","","",""
"null","","","video-keyboard-response","356","806644","0.0-356.0","6qatxo38","","","null","","<span style=""color:Black; font-size:50px;"">Sandy","Sandy","STIM_SET_5/1592568.bmp_pp64_L1_V1_veridical_freeview_isoFalse_fps144.mp4",""
"null","","","html-keyboard-response","357","808146","0.0-357.0","6qatxo38","","<span style=""color:Black; font-size:50px;"">Video 2</span>","null","","","","",""
"null","","","video-keyboard-response","358","811220","0.0-358.0","6qatxo38","","","null","","<span style=""color:Black; font-size:50px;"">Casey","Casey","STIM_SET_5/1592568.bmp_pp151_L1_V1_veridical_freeview_isoFalse_fps144.mp4",""
"","","","call-function","359","811220","0.0-359.0","6qatxo38","","","","","","","",""
"483.0799999999581","","","categorize-html","360","813708","0.0-360.0","6qatxo38","","Which video showed <span style=""font-size:30px"">Sandy's</span> attention?","49","","","","","true"
"null","","","html-keyboard-response","361","814215","0.0-361.0","6qatxo38",""," ","null","","","","",""
"","","","call-function","362","814216","0.0-362.0","6qatxo38","","","","","","","",""
"null","","","html-keyboard-response","363","815719","0.0-363.0","6qatxo38","","<span style=""color:Black; font-size:50px;"">Video 1</span>","null","","","","",""
"null","","","video-keyboard-response","364","818819","0.0-364.0","6qatxo38","","","null","","<span style=""color:Black; font-size:50px;"">Sandy","Sandy","STIM_SET_5/1591909.bmp_pp64_L1_V1_veridical_freeview_isoFalse_fps144.mp4",""
"null","","","html-keyboard-response","365","820322","0.0-365.0","6qatxo38","","<span style=""color:Black; font-size:50px;"">Video 2</span>","null","","","","",""
"null","","","video-keyboard-response","366","823436","0.0-366.0","6qatxo38","","","null","","<span style=""color:Black; font-size:50px;"">Casey","Casey","STIM_SET_5/1591909.bmp_pp151_L1_V1_veridical_freeview_isoFalse_fps144.mp4",""
"","","","call-function","367","823437","0.0-367.0","6qatxo38","","","","","","","",""
"794.4250000000466","","","categorize-html","368","826236","0.0-368.0","6qatxo38","","Which video showed <span style=""font-size:30px"">Sandy's</span> attention?","49","","","","","true"
"null","","","html-keyboard-response","369","826740","0.0-369.0","6qatxo38",""," ","null","","","","",""
"","","","call-function","370","826741","0.0-370.0","6qatxo38","","","","","","","",""
"null","","","html-keyboard-response","371","828242","0.0-371.0","6qatxo38","","<span style=""color:Black; font-size:50px;"">Video 1</span>","null","","","","",""
"null","","","video-keyboard-response","372","831332","0.0-372.0","6qatxo38","","","null","","<span style=""color:Black; font-size:50px;"">Casey","Casey","STIM_SET_5/285933.bmp_pp151_L1_V1_veridical_freeview_isoFalse_fps144.mp4",""
"null","","","html-keyboard-response","373","832839","0.0-373.0","6qatxo38","","<span style=""color:Black; font-size:50px;"">Video 2</span>","null","","","","",""
"null","","","video-keyboard-response","374","835942","0.0-374.0","6qatxo38","","","null","","<span style=""color:Black; font-size:50px;"">Sandy","Sandy","STIM_SET_5/285933.bmp_pp64_L1_V1_veridical_freeview_isoFalse_fps144.mp4",""
"","","","call-function","375","835942","0.0-375.0","6qatxo38","","","","","","","",""
"937.3000000000466","","","categorize-html","376","838885","0.0-376.0","6qatxo38","","Which video showed <span style=""font-size:30px"">Sandy's</span> attention?","49","","","","","false"
"null","","","html-keyboard-response","377","839388","0.0-377.0","6qatxo38",""," ","null","","","","",""
"","","","call-function","378","839388","0.0-378.0","6qatxo38","","","","","","","",""
"null","","","html-keyboard-response","379","840894","0.0-379.0","6qatxo38","","<span style=""color:Black; font-size:50px;"">Video 1</span>","null","","","","",""
"null","","","video-keyboard-response","380","843998","0.0-380.0","6qatxo38","","","null","","<span style=""color:Black; font-size:50px;"">Casey","Casey","STIM_SET_5/1593146.bmp_pp151_L1_V1_veridical_freeview_isoFalse_fps144.mp4",""
"null","","","html-keyboard-response","381","845500","0.0-381.0","6qatxo38","","<span style=""color:Black; font-size:50px;"">Video 2</span>","null","","","","",""
"null","","","video-keyboard-response","382","848589","0.0-382.0","6qatxo38","","","null","","<span style=""color:Black; font-size:50px;"">Sandy","Sandy","STIM_SET_5/1593146.bmp_pp64_L1_V1_veridical_freeview_isoFalse_fps144.mp4",""
"","","","call-function","383","848589","0.0-383.0","6qatxo38","","","","","","","",""
"314.28000000002794","","","categorize-html","384","850908","0.0-384.0","6qatxo38","","Which video showed <span style=""font-size:30px"">Sandy's</span> attention?","49","","","","","false"
"null","","","html-keyboard-response","385","851409","0.0-385.0","6qatxo38",""," ","null","","","","",""
"","","","call-function","386","851409","0.0-386.0","6qatxo38","","","","","","","",""
"null","","","html-keyboard-response","387","852913","0.0-387.0","6qatxo38","","<span style=""color:Black; font-size:50px;"">Video 1</span>","null","","","","",""
"null","","","video-keyboard-response","388","856012","0.0-388.0","6qatxo38","","","null","","<span style=""color:Black; font-size:50px;"">Casey","Casey","STIM_SET_5/1159749.bmp_pp151_L1_V1_veridical_freeview_isoFalse_fps144.mp4",""
"null","","","html-keyboard-response","389","857515","0.0-389.0","6qatxo38","","<span style=""color:Black; font-size:50px;"">Video 2</span>","null","","","","",""
"null","","","video-keyboard-response","390","860583","0.0-390.0","6qatxo38","","","null","","<span style=""color:Black; font-size:50px;"">Sandy","Sandy","STIM_SET_5/1159749.bmp_pp64_L1_V1_veridical_freeview_isoFalse_fps144.mp4",""
"","","","call-function","391","860584","0.0-391.0","6qatxo38","","","","","","","",""
"543.5999999999767","","","categorize-html","392","863132","0.0-392.0","6qatxo38","","Which video showed <span style=""font-size:30px"">Sandy's</span> attention?","50","","","","","true"
"null","","","html-keyboard-response","393","863637","0.0-393.0","6qatxo38",""," ","null","","","","",""
"","","","call-function","394","863637","0.0-394.0","6qatxo38","","","","","","","",""
"null","","","html-keyboard-response","395","865143","0.0-395.0","6qatxo38","","<span style=""color:Black; font-size:50px;"">Video 1</span>","null","","","","",""
"null","","","video-keyboard-response","396","868227","0.0-396.0","6qatxo38","","","null","","<span style=""color:Black; font-size:50px;"">Casey","Casey","STIM_SET_5/713707.bmp_pp151_L1_V1_veridical_freeview_isoFalse_fps144.mp4",""
"null","","","html-keyboard-response","397","869730","0.0-397.0","6qatxo38","","<span style=""color:Black; font-size:50px;"">Video 2</span>","null","","","","",""
"null","","","video-keyboard-response","398","872823","0.0-398.0","6qatxo38","","","null","","<span style=""color:Black; font-size:50px;"">Sandy","Sandy","STIM_SET_5/713707.bmp_pp64_L1_V1_veridical_freeview_isoFalse_fps144.mp4",""
"","","","call-function","399","872823","0.0-399.0","6qatxo38","","","","","","","",""
"464.44000000006054","","","categorize-html","400","875295","0.0-400.0","6qatxo38","","Which video showed <span style=""font-size:30px"">Sandy's</span> attention?","50","","","","","true"
"null","","","html-keyboard-response","401","875801","0.0-401.0","6qatxo38",""," ","null","","","","",""
"","","","call-function","402","875802","0.0-402.0","6qatxo38","","","","","","","",""
"null","","","html-keyboard-response","403","877307","0.0-403.0","6qatxo38","","<span style=""color:Black; font-size:50px;"">Video 1</span>","null","","","","",""
"null","","","video-keyboard-response","404","880367","0.0-404.0","6qatxo38","","","null","","<span style=""color:Black; font-size:50px;"">Casey","Casey","STIM_SET_5/713765.bmp_pp151_L1_V1_veridical_freeview_isoFalse_fps144.mp4",""
"null","","","html-keyboard-response","405","881870","0.0-405.0","6qatxo38","","<span style=""color:Black; font-size:50px;"">Video 2</span>","null","","","","",""
"null","","","video-keyboard-response","406","884963","0.0-406.0","6qatxo38","","","null","","<span style=""color:Black; font-size:50px;"">Sandy","Sandy","STIM_SET_5/713765.bmp_pp64_L1_V1_veridical_freeview_isoFalse_fps144.mp4",""
"","","","call-function","407","884964","0.0-407.0","6qatxo38","","","","","","","",""
"483.4300000000512","","","categorize-html","408","887451","0.0-408.0","6qatxo38","","Which video showed <span style=""font-size:30px"">Sandy's</span> attention?","49","","","","","false"
"null","","","html-keyboard-response","409","887955","0.0-409.0","6qatxo38",""," ","null","","","","",""
"","","","call-function","410","887955","0.0-410.0","6qatxo38","","","","","","","",""
"null","","","html-keyboard-response","411","889461","0.0-411.0","6qatxo38","","<span style=""color:Black; font-size:50px;"">Video 1</span>","null","","","","",""
"null","","","video-keyboard-response","412","892576","0.0-412.0","6qatxo38","","","null","","<span style=""color:Black; font-size:50px;"">Sandy","Sandy","STIM_SET_5/1592286.bmp_pp64_L1_V1_veridical_freeview_isoFalse_fps144.mp4",""
"null","","","html-keyboard-response","413","894078","0.0-413.0","6qatxo38","","<span style=""color:Black; font-size:50px;"">Video 2</span>","null","","","","",""
"null","","","video-keyboard-response","414","897192","0.0-414.0","6qatxo38","","","null","","<span style=""color:Black; font-size:50px;"">Casey","Casey","STIM_SET_5/1592286.bmp_pp151_L1_V1_veridical_freeview_isoFalse_fps144.mp4",""
"","","","call-function","415","897192","0.0-415.0","6qatxo38","","","","","","","",""
"350.58500000007916","","","categorize-html","416","899551","0.0-416.0","6qatxo38","","Which video showed <span style=""font-size:30px"">Sandy's</span> attention?","50","","","","","false"
"null","","","html-keyboard-response","417","900057","0.0-417.0","6qatxo38",""," ","null","","","","",""
"4099.165000000037","","","instructions","418","904156","0.0-418.0","6qatxo38","[{""page_index"":0,""viewing_time"":2657.0050000000047},{""page_index"":1,""viewing_time"":818.9599999999627},{""page_index"":2,""viewing_time"":623.0450000000419}]","","","","","","",""
"1261.5699999999488","","","instructions","419","905418","0.0-419.0","6qatxo38","[{""page_index"":0,""viewing_time"":490.46999999997206},{""page_index"":1,""viewing_time"":425.99499999999534},{""page_index"":2,""viewing_time"":345}]","","","","","","",""
"","","","call-function","420","905419","0.0-420.0","6qatxo38","","","","","","","",""
"null","","","html-keyboard-response","421","906925","0.0-421.0","6qatxo38","","<span style=""color:Black; font-size:50px;"">Video 1</span>","null","","","","",""
"null","","","video-keyboard-response","422","910042","0.0-422.0","6qatxo38","","","null","","<span style=""color:Black; font-size:50px;"">Sandy","Sandy","STIM_SET_5/285992.bmp_pp64_L1_V1_veridical_freeview_isoFalse_fps144.mp4",""
"null","","","html-keyboard-response","423","911547","0.0-423.0","6qatxo38","","<span style=""color:Black; font-size:50px;"">Video 2</span>","null","","","","",""
"null","","","video-keyboard-response","424","914652","0.0-424.0","6qatxo38","","","null","","<span style=""color:Black; font-size:50px;"">Casey","Casey","STIM_SET_5/285992.bmp_pp151_L1_V1_veridical_freeview_isoFalse_fps144.mp4",""
"","","","call-function","425","914652","0.0-425.0","6qatxo38","","","","","","","",""
"707.1849999999395","","","categorize-html","426","917362","0.0-426.0","6qatxo38","","Which video showed <span style=""font-size:30px"">Sandy's</span> attention?","50","","","","","false"
"null","","","html-keyboard-response","427","917864","0.0-427.0","6qatxo38",""," ","null","","","","",""
"","","","call-function","428","917864","0.0-428.0","6qatxo38","","","","","","","",""
"null","","","html-keyboard-response","429","919369","0.0-429.0","6qatxo38","","<span style=""color:Black; font-size:50px;"">Video 1</span>","null","","","","",""
"null","","","video-keyboard-response","430","922505","0.0-430.0","6qatxo38","","","null","","<span style=""color:Black; font-size:50px;"">Casey","Casey","STIM_SET_5/107906.bmp_pp151_L1_V1_veridical_freeview_isoFalse_fps144.mp4",""
"null","","","html-keyboard-response","431","924009","0.0-431.0","6qatxo38","","<span style=""color:Black; font-size:50px;"">Video 2</span>","null","","","","",""
"null","","","video-keyboard-response","432","927098","0.0-432.0","6qatxo38","","","null","","<span style=""color:Black; font-size:50px;"">Sandy","Sandy","STIM_SET_5/107906.bmp_pp64_L1_V1_veridical_freeview_isoFalse_fps144.mp4",""
"","","","call-function","433","927098","0.0-433.0","6qatxo38","","","","","","","",""
"701.1800000000512","","","categorize-html","434","929807","0.0-434.0","6qatxo38","","Which video showed <span style=""font-size:30px"">Sandy's</span> attention?","49","","","","","false"
"null","","","html-keyboard-response","435","930309","0.0-435.0","6qatxo38",""," ","null","","","","",""
"","","","call-function","436","930309","0.0-436.0","6qatxo38","","","","","","","",""
"null","","","html-keyboard-response","437","931814","0.0-437.0","6qatxo38","","<span style=""color:Black; font-size:50px;"">Video 1</span>","null","","","","",""
"null","","","video-keyboard-response","438","934892","0.0-438.0","6qatxo38","","","null","","<span style=""color:Black; font-size:50px;"">Sandy","Sandy","STIM_SET_5/1159486.bmp_pp64_L1_V1_veridical_freeview_isoFalse_fps144.mp4",""
"null","","","html-keyboard-response","439","936396","0.0-439.0","6qatxo38","","<span style=""color:Black; font-size:50px;"">Video 2</span>","null","","","","",""
"null","","","video-keyboard-response","440","939486","0.0-440.0","6qatxo38","","","null","","<span style=""color:Black; font-size:50px;"">Casey","Casey","STIM_SET_5/1159486.bmp_pp151_L1_V1_veridical_freeview_isoFalse_fps144.mp4",""
"","","","call-function","441","939486","0.0-441.0","6qatxo38","","","","","","","",""
"280.7249999999767","","","categorize-html","442","941774","0.0-442.0","6qatxo38","","Which video showed <span style=""font-size:30px"">Sandy's</span> attention?","49","","","","","true"
"null","","","html-keyboard-response","443","942278","0.0-443.0","6qatxo38",""," ","null","","","","",""
"","","","call-function","444","942279","0.0-444.0","6qatxo38","","","","","","","",""
"null","","","html-keyboard-response","445","943782","0.0-445.0","6qatxo38","","<span style=""color:Black; font-size:50px;"">Video 1</span>","null","","","","",""
"null","","","video-keyboard-response","446","946852","0.0-446.0","6qatxo38","","","null","","<span style=""color:Black; font-size:50px;"">Casey","Casey","STIM_SET_5/286066.bmp_pp151_L1_V1_veridical_freeview_isoFalse_fps144.mp4",""
"null","","","html-keyboard-response","447","948355","0.0-447.0","6qatxo38","","<span style=""color:Black; font-size:50px;"">Video 2</span>","null","","","","",""
"null","","","video-keyboard-response","448","951462","0.0-448.0","6qatxo38","","","null","","<span style=""color:Black; font-size:50px;"">Sandy","Sandy","STIM_SET_5/286066.bmp_pp64_L1_V1_veridical_freeview_isoFalse_fps144.mp4",""
"","","","call-function","449","951463","0.0-449.0","6qatxo38","","","","","","","",""
"488.50500000000466","","","categorize-html","450","953954","0.0-450.0","6qatxo38","","Which video showed <span style=""font-size:30px"">Sandy's</span> attention?","50","","","","","true"
"null","","","html-keyboard-response","451","954458","0.0-451.0","6qatxo38",""," ","null","","","","",""
"","","","call-function","452","954459","0.0-452.0","6qatxo38","","","","","","","",""
"null","","","html-keyboard-response","453","955960","0.0-453.0","6qatxo38","","<span style=""color:Black; font-size:50px;"">Video 1</span>","null","","","","",""
"null","","","video-keyboard-response","454","959048","0.0-454.0","6qatxo38","","","null","","<span style=""color:Black; font-size:50px;"">Casey","Casey","STIM_SET_5/1592351.bmp_pp151_L1_V1_veridical_freeview_isoFalse_fps144.mp4",""
"null","","","html-keyboard-response","455","960552","0.0-455.0","6qatxo38","","<span style=""color:Black; font-size:50px;"">Video 2</span>","null","","","","",""
"null","","","video-keyboard-response","456","963641","0.0-456.0","6qatxo38","","","null","","<span style=""color:Black; font-size:50px;"">Sandy","Sandy","STIM_SET_5/1592351.bmp_pp64_L1_V1_veridical_freeview_isoFalse_fps144.mp4",""
"","","","call-function","457","963641","0.0-457.0","6qatxo38","","","","","","","",""
"366.40500000002794","","","categorize-html","458","966013","0.0-458.0","6qatxo38","","Which video showed <span style=""font-size:30px"">Sandy's</span> attention?","49","","","","","false"
"null","","","html-keyboard-response","459","966517","0.0-459.0","6qatxo38",""," ","null","","","","",""
"","","","call-function","460","966518","0.0-460.0","6qatxo38","","","","","","","",""
"null","","","html-keyboard-response","461","968022","0.0-461.0","6qatxo38","","<span style=""color:Black; font-size:50px;"">Video 1</span>","null","","","","",""
"null","","","video-keyboard-response","462","971142","0.0-462.0","6qatxo38","","","null","","<span style=""color:Black; font-size:50px;"">Casey","Casey","STIM_SET_5/285807.bmp_pp151_L1_V1_veridical_freeview_isoFalse_fps144.mp4",""
"null","","","html-keyboard-response","463","972645","0.0-463.0","6qatxo38","","<span style=""color:Black; font-size:50px;"">Video 2</span>","null","","","","",""
"null","","","video-keyboard-response","464","975752","0.0-464.0","6qatxo38","","","null","","<span style=""color:Black; font-size:50px;"">Sandy","Sandy","STIM_SET_5/285807.bmp_pp64_L1_V1_veridical_freeview_isoFalse_fps144.mp4",""
"","","","call-function","465","975752","0.0-465.0","6qatxo38","","","","","","","",""
"351.14999999990687","","","categorize-html","466","978110","0.0-466.0","6qatxo38","","Which video showed <span style=""font-size:30px"">Sandy's</span> attention?","50","","","","","true"
"null","","","html-keyboard-response","467","978612","0.0-467.0","6qatxo38",""," ","null","","","","",""
"","","","call-function","468","978612","0.0-468.0","6qatxo38","","","","","","","",""
"null","","","html-keyboard-response","469","980114","0.0-469.0","6qatxo38","","<span style=""color:Black; font-size:50px;"">Video 1</span>","null","","","","",""
"null","","","video-keyboard-response","470","983223","0.0-470.0","6qatxo38","","","null","","<span style=""color:Black; font-size:50px;"">Casey","Casey","STIM_SET_5/1592857.bmp_pp151_L1_V1_veridical_freeview_isoFalse_fps144.mp4",""
"null","","","html-keyboard-response","471","984729","0.0-471.0","6qatxo38","","<span style=""color:Black; font-size:50px;"">Video 2</span>","null","","","","",""
"null","","","video-keyboard-response","472","987821","0.0-472.0","6qatxo38","","","null","","<span style=""color:Black; font-size:50px;"">Sandy","Sandy","STIM_SET_5/1592857.bmp_pp64_L1_V1_veridical_freeview_isoFalse_fps144.mp4",""
"","","","call-function","473","987822","0.0-473.0","6qatxo38","","","","","","","",""
"481.76500000001397","","","categorize-html","474","990306","0.0-474.0","6qatxo38","","Which video showed <span style=""font-size:30px"">Sandy's</span> attention?","50","","","","","true"
"null","","","html-keyboard-response","475","990811","0.0-475.0","6qatxo38",""," ","null","","","","",""
"","","","call-function","476","990811","0.0-476.0","6qatxo38","","","","","","","",""
"null","","","html-keyboard-response","477","992314","0.0-477.0","6qatxo38","","<span style=""color:Black; font-size:50px;"">Video 1</span>","null","","","","",""
"null","","","video-keyboard-response","478","995407","0.0-478.0","6qatxo38","","","null","","<span style=""color:Black; font-size:50px;"">Casey","Casey","STIM_SET_5/713228.bmp_pp151_L1_V1_veridical_freeview_isoFalse_fps144.mp4",""
"null","","","html-keyboard-response","479","996914","0.0-479.0","6qatxo38","","<span style=""color:Black; font-size:50px;"">Video 2</span>","null","","","","",""
"null","","","video-keyboard-response","480","999982","0.0-480.0","6qatxo38","","","null","","<span style=""color:Black; font-size:50px;"">Sandy","Sandy","STIM_SET_5/713228.bmp_pp64_L1_V1_veridical_freeview_isoFalse_fps144.mp4",""
"","","","call-function","481","999982","0.0-481.0","6qatxo38","","","","","","","",""
"401.28999999992084","","","categorize-html","482","1002386","0.0-482.0","6qatxo38","","Which video showed <span style=""font-size:30px"">Sandy's</span> attention?","49","","","","","false"
"null","","","html-keyboard-response","483","1002890","0.0-483.0","6qatxo38",""," ","null","","","","",""
"","","","call-function","484","1002891","0.0-484.0","6qatxo38","","","","","","","",""
"null","","","html-keyboard-response","485","1004393","0.0-485.0","6qatxo38","","<span style=""color:Black; font-size:50px;"">Video 1</span>","null","","","","",""
"null","","","video-keyboard-response","486","1009313","0.0-486.0","6qatxo38","","","null","","<span style=""color:Black; font-size:50px;"">Casey","Casey","STIM_SET_5/713788.bmp_pp151_L1_V1_veridical_freeview_isoFalse_fps144.mp4",""
"null","","","html-keyboard-response","487","1010816","0.0-487.0","6qatxo38","","<span style=""color:Black; font-size:50px;"">Video 2</span>","null","","","","",""
"null","","","video-keyboard-response","488","1013878","0.0-488.0","6qatxo38","","","null","","<span style=""color:Black; font-size:50px;"">Sandy","Sandy","STIM_SET_5/713788.bmp_pp64_L1_V1_veridical_freeview_isoFalse_fps144.mp4",""
"","","","call-function","489","1013878","0.0-489.0","6qatxo38","","","","","","","",""
"1153.2350000001024","","","categorize-html","490","1017034","0.0-490.0","6qatxo38","","Which video showed <span style=""font-size:30px"">Sandy's</span> attention?","50","","","","","true"
"null","","","html-keyboard-response","491","1017537","0.0-491.0","6qatxo38",""," ","null","","","","",""
"","","","call-function","492","1017537","0.0-492.0","6qatxo38","","","","","","","",""
"null","","","html-keyboard-response","493","1019044","0.0-493.0","6qatxo38","","<span style=""color:Black; font-size:50px;"">Video 1</span>","null","","","","",""
"null","","","video-keyboard-response","494","1022177","0.0-494.0","6qatxo38","","","null","","<span style=""color:Black; font-size:50px;"">Casey","Casey","STIM_SET_5/498280.bmp_pp151_L1_V1_veridical_freeview_isoFalse_fps144.mp4",""
"null","","","html-keyboard-response","495","1023683","0.0-495.0","6qatxo38","","<span style=""color:Black; font-size:50px;"">Video 2</span>","null","","","","",""
"null","","","video-keyboard-response","496","1026798","0.0-496.0","6qatxo38","","","null","","<span style=""color:Black; font-size:50px;"">Sandy","Sandy","STIM_SET_5/498280.bmp_pp64_L1_V1_veridical_freeview_isoFalse_fps144.mp4",""
"","","","call-function","497","1026798","0.0-497.0","6qatxo38","","","","","","","",""
"2897.8649999999907","","","categorize-html","498","1031703","0.0-498.0","6qatxo38","","Which video showed <span style=""font-size:30px"">Sandy's</span> attention?","50","","","","","true"
"null","","","html-keyboard-response","499","1032204","0.0-499.0","6qatxo38",""," ","null","","","","",""
"3002.579999999958","","","instructions","500","1035207","0.0-500.0","6qatxo38","[{""page_index"":0,""viewing_time"":2124.6350000000093},{""page_index"":1,""viewing_time"":444.20999999996275},{""page_index"":2,""viewing_time"":433.6350000000093}]","","","","","","",""
"1247.8800000000047","","","instructions","501","1036456","0.0-501.0","6qatxo38","[{""page_index"":0,""viewing_time"":375.6600000000326},{""page_index"":1,""viewing_time"":442.60999999998603},{""page_index"":2,""viewing_time"":429.4700000000885}]","","","","","","",""
"","","","call-function","502","1036456","0.0-502.0","6qatxo38","","","","","","","",""
"null","","","html-keyboard-response","503","1037958","0.0-503.0","6qatxo38","","<span style=""color:Black; font-size:50px;"">Video 1</span>","null","","","","",""
"null","","","video-keyboard-response","504","1041076","0.0-504.0","6qatxo38","","","null","","<span style=""color:Black; font-size:50px;"">Sandy","Sandy","STIM_SET_5/713024.bmp_pp64_L1_V1_veridical_freeview_isoFalse_fps144.mp4",""
"null","","","html-keyboard-response","505","1042579","0.0-505.0","6qatxo38","","<span style=""color:Black; font-size:50px;"">Video 2</span>","null","","","","",""
"null","","","video-keyboard-response","506","1045686","0.0-506.0","6qatxo38","","","null","","<span style=""color:Black; font-size:50px;"">Casey","Casey","STIM_SET_5/713024.bmp_pp151_L1_V1_veridical_freeview_isoFalse_fps144.mp4",""
"","","","call-function","507","1045686","0.0-507.0","6qatxo38","","","","","","","",""
"1089.7849999999162","","","categorize-html","508","1048780","0.0-508.0","6qatxo38","","Which video showed <span style=""font-size:30px"">Sandy's</span> attention?","50","","","","","false"
"null","","","html-keyboard-response","509","1049284","0.0-509.0","6qatxo38",""," ","null","","","","",""
"","","","call-function","510","1049284","0.0-510.0","6qatxo38","","","","","","","",""
"null","","","html-keyboard-response","511","1050786","0.0-511.0","6qatxo38","","<span style=""color:Black; font-size:50px;"">Video 1</span>","null","","","","",""
"null","","","video-keyboard-response","512","1053911","0.0-512.0","6qatxo38","","","null","","<span style=""color:Black; font-size:50px;"">Sandy","Sandy","STIM_SET_5/1592047.bmp_pp64_L1_V1_veridical_freeview_isoFalse_fps144.mp4",""
"null","","","html-keyboard-response","513","1055415","0.0-513.0","6qatxo38","","<span style=""color:Black; font-size:50px;"">Video 2</span>","null","","","","",""
"null","","","video-keyboard-response","514","1058481","0.0-514.0","6qatxo38","","","null","","<span style=""color:Black; font-size:50px;"">Casey","Casey","STIM_SET_5/1592047.bmp_pp151_L1_V1_veridical_freeview_isoFalse_fps144.mp4",""
"","","","call-function","515","1058482","0.0-515.0","6qatxo38","","","","","","","",""
"613.7450000001118","","","categorize-html","516","1061099","0.0-516.0","6qatxo38","","Which video showed <span style=""font-size:30px"">Sandy's</span> attention?","50","","","","","false"
"null","","","html-keyboard-response","517","1061601","0.0-517.0","6qatxo38",""," ","null","","","","",""
"","","","call-function","518","1061601","0.0-518.0","6qatxo38","","","","","","","",""
"null","","","html-keyboard-response","519","1063106","0.0-519.0","6qatxo38","","<span style=""color:Black; font-size:50px;"">Video 1</span>","null","","","","",""
"null","","","video-keyboard-response","520","1066167","0.0-520.0","6qatxo38","","","null","","<span style=""color:Black; font-size:50px;"">Sandy","Sandy","STIM_SET_5/713858.bmp_pp64_L1_V1_veridical_freeview_isoFalse_fps144.mp4",""
"null","","","html-keyboard-response","521","1067671","0.0-521.0","6qatxo38","","<span style=""color:Black; font-size:50px;"">Video 2</span>","null","","","","",""
"null","","","video-keyboard-response","522","1070758","0.0-522.0","6qatxo38","","","null","","<span style=""color:Black; font-size:50px;"">Casey","Casey","STIM_SET_5/713858.bmp_pp151_L1_V1_veridical_freeview_isoFalse_fps144.mp4",""
"","","","call-function","523","1070758","0.0-523.0","6qatxo38","","","","","","","",""
"913.7699999997858","","","categorize-html","524","1073678","0.0-524.0","6qatxo38","","Which video showed <span style=""font-size:30px"">Sandy's</span> attention?","49","","","","","true"
"null","","","html-keyboard-response","525","1074182","0.0-525.0","6qatxo38",""," ","null","","","","",""
"","","","call-function","526","1074182","0.0-526.0","6qatxo38","","","","","","","",""
"null","","","html-keyboard-response","527","1075684","0.0-527.0","6qatxo38","","<span style=""color:Black; font-size:50px;"">Video 1</span>","null","","","","",""
"null","","","video-keyboard-response","528","1078754","0.0-528.0","6qatxo38","","","null","","<span style=""color:Black; font-size:50px;"">Casey","Casey","STIM_SET_5/150474.bmp_pp151_L1_V1_veridical_freeview_isoFalse_fps144.mp4",""
"null","","","html-keyboard-response","529","1080258","0.0-529.0","6qatxo38","","<span style=""color:Black; font-size:50px;"">Video 2</span>","null","","","","",""
"null","","","video-keyboard-response","530","1083324","0.0-530.0","6qatxo38","","","null","","<span style=""color:Black; font-size:50px;"">Sandy","Sandy","STIM_SET_5/150474.bmp_pp64_L1_V1_veridical_freeview_isoFalse_fps144.mp4",""
"","","","call-function","531","1083324","0.0-531.0","6qatxo38","","","","","","","",""
"1115.630000000121","","","categorize-html","532","1086442","0.0-532.0","6qatxo38","","Which video showed <span style=""font-size:30px"">Sandy's</span> attention?","49","","","","","false"
"null","","","html-keyboard-response","533","1086945","0.0-533.0","6qatxo38",""," ","null","","","","",""
"","","","call-function","534","1086945","0.0-534.0","6qatxo38","","","","","","","",""
"null","","","html-keyboard-response","535","1088451","0.0-535.0","6qatxo38","","<span style=""color:Black; font-size:50px;"">Video 1</span>","null","","","","",""
"null","","","video-keyboard-response","536","1091564","0.0-536.0","6qatxo38","","","null","","<span style=""color:Black; font-size:50px;"">Sandy","Sandy","STIM_SET_5/1159408.bmp_pp64_L1_V1_veridical_freeview_isoFalse_fps144.mp4",""
"null","","","html-keyboard-response","537","1093066","0.0-537.0","6qatxo38","","<span style=""color:Black; font-size:50px;"">Video 2</span>","null","","","","",""
"null","","","video-keyboard-response","538","1096181","0.0-538.0","6qatxo38","","","null","","<span style=""color:Black; font-size:50px;"">Casey","Casey","STIM_SET_5/1159408.bmp_pp151_L1_V1_veridical_freeview_isoFalse_fps144.mp4",""
"","","","call-function","539","1096182","0.0-539.0","6qatxo38","","","","","","","",""
"1922.0249999999069","","","categorize-html","540","1100107","0.0-540.0","6qatxo38","","Which video showed <span style=""font-size:30px"">Sandy's</span> attention?","49","","","","","true"
"null","","","html-keyboard-response","541","1100611","0.0-541.0","6qatxo38",""," ","null","","","","",""
"","","","call-function","542","1100611","0.0-542.0","6qatxo38","","","","","","","",""
"null","","","html-keyboard-response","543","1102114","0.0-543.0","6qatxo38","","<span style=""color:Black; font-size:50px;"">Video 1</span>","null","","","","",""
"null","","","video-keyboard-response","544","1105203","0.0-544.0","6qatxo38","","","null","","<span style=""color:Black; font-size:50px;"">Casey","Casey","STIM_SET_5/1592133.bmp_pp151_L1_V1_veridical_freeview_isoFalse_fps144.mp4",""
"null","","","html-keyboard-response","545","1106708","0.0-545.0","6qatxo38","","<span style=""color:Black; font-size:50px;"">Video 2</span>","null","","","","",""
"null","","","video-keyboard-response","546","1109804","0.0-546.0","6qatxo38","","","null","","<span style=""color:Black; font-size:50px;"">Sandy","Sandy","STIM_SET_5/1592133.bmp_pp64_L1_V1_veridical_freeview_isoFalse_fps144.mp4",""
"","","","call-function","547","1109804","0.0-547.0","6qatxo38","","","","","","","",""
"339.53000000002794","","","categorize-html","548","1112149","0.0-548.0","6qatxo38","","Which video showed <span style=""font-size:30px"">Sandy's</span> attention?","49","","","","","false"
"null","","","html-keyboard-response","549","1112651","0.0-549.0","6qatxo38",""," ","null","","","","",""
"","","","call-function","550","1112651","0.0-550.0","6qatxo38","","","","","","","",""
"null","","","html-keyboard-response","551","1114157","0.0-551.0","6qatxo38","","<span style=""color:Black; font-size:50px;"">Video 1</span>","null","","","","",""
"null","","","video-keyboard-response","552","1117276","0.0-552.0","6qatxo38","","","null","","<span style=""color:Black; font-size:50px;"">Sandy","Sandy","STIM_SET_5/713593.bmp_pp64_L1_V1_veridical_freeview_isoFalse_fps144.mp4",""
"null","","","html-keyboard-response","553","1118778","0.0-553.0","6qatxo38","","<span style=""color:Black; font-size:50px;"">Video 2</span>","null","","","","",""
"null","","","video-keyboard-response","554","1121867","0.0-554.0","6qatxo38","","","null","","<span style=""color:Black; font-size:50px;"">Casey","Casey","STIM_SET_5/713593.bmp_pp151_L1_V1_veridical_freeview_isoFalse_fps144.mp4",""
"","","","call-function","555","1121868","0.0-555.0","6qatxo38","","","","","","","",""
"412.17500000004657","","","categorize-html","556","1124287","0.0-556.0","6qatxo38","","Which video showed <span style=""font-size:30px"">Sandy's</span> attention?","50","","","","","false"
"null","","","html-keyboard-response","557","1124790","0.0-557.0","6qatxo38",""," ","null","","","","",""
"","","","call-function","558","1124790","0.0-558.0","6qatxo38","","","","","","","",""
"null","","","html-keyboard-response","559","1126292","0.0-559.0","6qatxo38","","<span style=""color:Black; font-size:50px;"">Video 1</span>","null","","","","",""
"null","","","video-keyboard-response","560","1129360","0.0-560.0","6qatxo38","","","null","","<span style=""color:Black; font-size:50px;"">Sandy","Sandy","STIM_SET_5/1160140.bmp_pp64_L1_V1_veridical_freeview_isoFalse_fps144.mp4",""
"null","","","html-keyboard-response","561","1130863","0.0-561.0","6qatxo38","","<span style=""color:Black; font-size:50px;"">Video 2</span>","null","","","","",""
"null","","","video-keyboard-response","562","1133964","0.0-562.0","6qatxo38","","","null","","<span style=""color:Black; font-size:50px;"">Casey","Casey","STIM_SET_5/1160140.bmp_pp151_L1_V1_veridical_freeview_isoFalse_fps144.mp4",""
"","","","call-function","563","1133964","0.0-563.0","6qatxo38","","","","","","","",""
"2475.589999999851","","","categorize-html","564","1138442","0.0-564.0","6qatxo38","","Which video showed <span style=""font-size:30px"">Sandy's</span> attention?","50","","","","","false"
"null","","","html-keyboard-response","565","1138948","0.0-565.0","6qatxo38",""," ","null","","","","",""
"","","","call-function","566","1138948","0.0-566.0","6qatxo38","","","","","","","",""
"null","","","html-keyboard-response","567","1140450","0.0-567.0","6qatxo38","","<span style=""color:Black; font-size:50px;"">Video 1</span>","null","","","","",""
"null","","","video-keyboard-response","568","1143526","0.0-568.0","6qatxo38","","","null","","<span style=""color:Black; font-size:50px;"">Sandy","Sandy","STIM_SET_5/150273.bmp_pp64_L1_V1_veridical_freeview_isoFalse_fps144.mp4",""
"null","","","html-keyboard-response","569","1145032","0.0-569.0","6qatxo38","","<span style=""color:Black; font-size:50px;"">Video 2</span>","null","","","","",""
"null","","","video-keyboard-response","570","1148118","0.0-570.0","6qatxo38","","","null","","<span style=""color:Black; font-size:50px;"">Casey","Casey","STIM_SET_5/150273.bmp_pp151_L1_V1_veridical_freeview_isoFalse_fps144.mp4",""
"","","","call-function","571","1148119","0.0-571.0","6qatxo38","","","","","","","",""
"401.26499999989755","","","categorize-html","572","1150525","0.0-572.0","6qatxo38","","Which video showed <span style=""font-size:30px"">Sandy's</span> attention?","50","","","","","false"
"null","","","html-keyboard-response","573","1151029","0.0-573.0","6qatxo38",""," ","null","","","","",""
"","","","call-function","574","1151029","0.0-574.0","6qatxo38","","","","","","","",""
"null","","","html-keyboard-response","575","1152531","0.0-575.0","6qatxo38","","<span style=""color:Black; font-size:50px;"">Video 1</span>","null","","","","",""
"null","","","video-keyboard-response","576","1155638","0.0-576.0","6qatxo38","","","null","","<span style=""color:Black; font-size:50px;"">Sandy","Sandy","STIM_SET_5/1591781.bmp_pp64_L1_V1_veridical_freeview_isoFalse_fps144.mp4",""
"null","","","html-keyboard-response","577","1157143","0.0-577.0","6qatxo38","","<span style=""color:Black; font-size:50px;"">Video 2</span>","null","","","","",""
"null","","","video-keyboard-response","578","1160269","0.0-578.0","6qatxo38","","","null","","<span style=""color:Black; font-size:50px;"">Casey","Casey","STIM_SET_5/1591781.bmp_pp151_L1_V1_veridical_freeview_isoFalse_fps144.mp4",""
"","","","call-function","579","1160270","0.0-579.0","6qatxo38","","","","","","","",""
"593.8000000000466","","","categorize-html","580","1162871","0.0-580.0","6qatxo38","","Which video showed <span style=""font-size:30px"">Sandy's</span> attention?","50","","","","","false"
"null","","","html-keyboard-response","581","1163374","0.0-581.0","6qatxo38",""," ","null","","","","",""
"3152.4849999998696","","","instructions","582","1166527","0.0-582.0","6qatxo38","[{""page_index"":0,""viewing_time"":3152.3649999999907}]","","","","","","",""
"1126.5450000001583","","","instructions","583","1167654","0.0-583.0","6qatxo38","[{""page_index"":0,""viewing_time"":1126.4350000000559}]","","","","","","",""
"6233.959999999963","{""Q0"":""""}","","survey-text","584","1173897","0.0-584.0","6qatxo38","","","","","","","",""
"21388.784999999916","{""Q0"":""Looking at the videos""}","","survey-text","585","1195289","0.0-585.0","6qatxo38","","","","","","","",""
"21249.50500000012","{""Q0"":""Guessing who's eye movement it was""}","","survey-text","586","1216541","0.0-586.0","6qatxo38","","","","","","","",""
"1226.7649999998976","","","instructions","587","1217768","0.0-587.0","6qatxo38","[{""page_index"":0,""viewing_time"":1226.6450000000186}]","","","","","","",""
"139129.68500000006","{""Experimenter_end"":[""Printed ID# 6qatxo38 on consent form"",""Given subject SONA credit or payment"",""Given the subject debrief form""]}","[0]","survey-multi-select","588","1356900","0.0-588.0","6qatxo38","","","","","","","",""
