"rt","responses","question_order","trial_type","trial_index","time_elapsed","internal_node_id","ID","view_history","stimulus","key_press","value","agent","condition","image","correct"
"2489537.14","{""Experimenter"":[""Confirmed subject's identity (ID card)"",""Confirmed normal or corrected-to-normal vision"",""Obtained consent (signature and date)"",""Checked the test room lighting"",""Checked computer screen lighting"",""Checked distance from screen to chin rest (50cm)"",""Cleaned and adjusted chin rest"",""Counterbalanced the order of the tasks"",""Opened the experiment in Firefox"",""Made the experiment full screen"",""Encouraged subject to silence phone, put away distractors, etc.""]}","[0]","survey-multi-select","0","2489549","0.0-0.0","hxeyc6ya","","","","","","","",""
"133823.00500000035","","","instructions","1","2623373","0.0-1.0","hxeyc6ya","[{""page_index"":0,""viewing_time"":133822.86000000034}]","","","","","","",""
"5790.495000000112","{""Age"":0,""Sex"":1,""Gender"":1}","[0,1,2]","survey-likert","2","2629166","0.0-2.0","hxeyc6ya","","","","","","","",""
"2960.9300000001676","","","instructions","3","2632127","0.0-3.0","hxeyc6ya","[{""page_index"":0,""viewing_time"":2960.8250000001863}]","","","","","","",""
"244502.8250000002","","","instructions","4","2876631","0.0-4.0","hxeyc6ya","[{""page_index"":0,""viewing_time"":230386.90500000026},{""page_index"":1,""viewing_time"":10740.294999999925},{""page_index"":2,""viewing_time"":3375.035000000149}]","","","","","","",""
"2461.3700000001118","","","instructions","5","2879094","0.0-5.0","hxeyc6ya","[{""page_index"":0,""viewing_time"":2461.2650000001304}]","","","","","","",""
"null","","","video-keyboard-response","6","2882168","0.0-6.0","hxeyc6ya","","","null","","","","",""
"24597.60499999998","","","instructions","7","2906766","0.0-7.0","hxeyc6ya","[{""page_index"":0,""viewing_time"":1786.2099999999627},{""page_index"":1,""viewing_time"":1594.9249999998137},{""page_index"":2,""viewing_time"":2681.5750000001863},{""page_index"":3,""viewing_time"":2257.6200000001118},{""page_index"":4,""viewing_time"":6715.899999999907},{""page_index"":5,""viewing_time"":6969.98499999987},{""page_index"":6,""viewing_time"":2529.9599999999627},{""page_index"":7,""viewing_time"":61.30500000016764}]","","","","","","",""
"3863.454999999609","","","instructions","8","2910629","0.0-8.0","hxeyc6ya","[{""page_index"":0,""viewing_time"":3863.3249999997206}]","","","","","","",""
"1523.6849999995902","","","instructions","9","2912153","0.0-9.0","hxeyc6ya","[{""page_index"":0,""viewing_time"":1523.5749999997206}]","","","","","","",""
"","","","call-function","10","2912154","0.0-10.0","hxeyc6ya","","","","","","","",""
"null","","","html-keyboard-response","11","2913659","0.0-11.0","hxeyc6ya","","<span style=""color:Black; font-size:50px;"">Video 1</span>","null","","","","",""
"null","","","video-keyboard-response","12","2916736","0.0-12.0","hxeyc6ya","","","null","","<span style=""color:Black; font-size:50px;"">Sandy","Sandy","STIM_SET_6/1160140.bmp_pp75_L1_V1_veridical_freeview_isoFalse_fps144.mp4",""
"null","","","html-keyboard-response","13","2918239","0.0-13.0","hxeyc6ya","","<span style=""color:Black; font-size:50px;"">Video 2</span>","null","","","","",""
"null","","","video-keyboard-response","14","2921311","0.0-14.0","hxeyc6ya","","","null","","<span style=""color:Black; font-size:50px;"">Casey","Casey","STIM_SET_6/1160140.bmp_pp57_L1_V1_veridical_freeview_isoFalse_fps144.mp4",""
"","","","call-function","15","2921311","0.0-15.0","hxeyc6ya","","","","","","","",""
"2783.9799999999814","","","categorize-html","16","2926097","0.0-16.0","hxeyc6ya","","Which video showed <span style=""font-size:30px"">Sandy's</span> attention?","49","","","","","true"
"null","","","html-keyboard-response","17","2926599","0.0-17.0","hxeyc6ya",""," ","null","","","","",""
"","","","call-function","18","2926600","0.0-18.0","hxeyc6ya","","","","","","","",""
"null","","","html-keyboard-response","19","2928106","0.0-19.0","hxeyc6ya","","<span style=""color:Black; font-size:50px;"">Video 1</span>","null","","","","",""
"null","","","video-keyboard-response","20","2931196","0.0-20.0","hxeyc6ya","","","null","","<span style=""color:Black; font-size:50px;"">Sandy","Sandy","STIM_SET_6/107906.bmp_pp75_L1_V1_veridical_freeview_isoFalse_fps144.mp4",""
"null","","","html-keyboard-response","21","2932703","0.0-21.0","hxeyc6ya","","<span style=""color:Black; font-size:50px;"">Video 2</span>","null","","","","",""
"null","","","video-keyboard-response","22","2935820","0.0-22.0","hxeyc6ya","","","null","","<span style=""color:Black; font-size:50px;"">Casey","Casey","STIM_SET_6/107906.bmp_pp57_L1_V1_veridical_freeview_isoFalse_fps144.mp4",""
"","","","call-function","23","2935821","0.0-23.0","hxeyc6ya","","","","","","","",""
"1905.7999999998137","","","categorize-html","24","2939733","0.0-24.0","hxeyc6ya","","Which video showed <span style=""font-size:30px"">Sandy's</span> attention?","49","","","","","true"
"null","","","html-keyboard-response","25","2940237","0.0-25.0","hxeyc6ya",""," ","null","","","","",""
"","","","call-function","26","2940238","0.0-26.0","hxeyc6ya","","","","","","","",""
"null","","","html-keyboard-response","27","2941744","0.0-27.0","hxeyc6ya","","<span style=""color:Black; font-size:50px;"">Video 1</span>","null","","","","",""
"null","","","video-keyboard-response","28","2944849","0.0-28.0","hxeyc6ya","","","null","","<span style=""color:Black; font-size:50px;"">Casey","Casey","STIM_SET_6/1591977.bmp_pp57_L1_V1_veridical_freeview_isoFalse_fps144.mp4",""
"null","","","html-keyboard-response","29","2946355","0.0-29.0","hxeyc6ya","","<span style=""color:Black; font-size:50px;"">Video 2</span>","null","","","","",""
"null","","","video-keyboard-response","30","2949431","0.0-30.0","hxeyc6ya","","","null","","<span style=""color:Black; font-size:50px;"">Sandy","Sandy","STIM_SET_6/1591977.bmp_pp75_L1_V1_veridical_freeview_isoFalse_fps144.mp4",""
"","","","call-function","31","2949431","0.0-31.0","hxeyc6ya","","","","","","","",""
"1111.4950000001118","","","categorize-html","32","2952549","0.0-32.0","hxeyc6ya","","Which video showed <span style=""font-size:30px"">Sandy's</span> attention?","49","","","","","false"
"null","","","html-keyboard-response","33","2953052","0.0-33.0","hxeyc6ya",""," ","null","","","","",""
"","","","call-function","34","2953052","0.0-34.0","hxeyc6ya","","","","","","","",""
"null","","","html-keyboard-response","35","2954555","0.0-35.0","hxeyc6ya","","<span style=""color:Black; font-size:50px;"">Video 1</span>","null","","","","",""
"null","","","video-keyboard-response","36","2957661","0.0-36.0","hxeyc6ya","","","null","","<span style=""color:Black; font-size:50px;"">Casey","Casey","STIM_SET_6/1159572.bmp_pp57_L1_V1_veridical_freeview_isoFalse_fps144.mp4",""
"null","","","html-keyboard-response","37","2959167","0.0-37.0","hxeyc6ya","","<span style=""color:Black; font-size:50px;"">Video 2</span>","null","","","","",""
"null","","","video-keyboard-response","38","2962270","0.0-38.0","hxeyc6ya","","","null","","<span style=""color:Black; font-size:50px;"">Sandy","Sandy","STIM_SET_6/1159572.bmp_pp75_L1_V1_veridical_freeview_isoFalse_fps144.mp4",""
"","","","call-function","39","2962271","0.0-39.0","hxeyc6ya","","","","","","","",""
"1112.0300000002608","","","categorize-html","40","2965386","0.0-40.0","hxeyc6ya","","Which video showed <span style=""font-size:30px"">Sandy's</span> attention?","50","","","","","true"
"null","","","html-keyboard-response","41","2965887","0.0-41.0","hxeyc6ya",""," ","null","","","","",""
"","","","call-function","42","2965887","0.0-42.0","hxeyc6ya","","","","","","","",""
"null","","","html-keyboard-response","43","2967391","0.0-43.0","hxeyc6ya","","<span style=""color:Black; font-size:50px;"">Video 1</span>","null","","","","",""
"null","","","video-keyboard-response","44","2970485","0.0-44.0","hxeyc6ya","","","null","","<span style=""color:Black; font-size:50px;"">Casey","Casey","STIM_SET_6/1160062.bmp_pp57_L1_V1_veridical_freeview_isoFalse_fps144.mp4",""
"null","","","html-keyboard-response","45","2971990","0.0-45.0","hxeyc6ya","","<span style=""color:Black; font-size:50px;"">Video 2</span>","null","","","","",""
"null","","","video-keyboard-response","46","2975087","0.0-46.0","hxeyc6ya","","","null","","<span style=""color:Black; font-size:50px;"">Sandy","Sandy","STIM_SET_6/1160062.bmp_pp75_L1_V1_veridical_freeview_isoFalse_fps144.mp4",""
"","","","call-function","47","2975088","0.0-47.0","hxeyc6ya","","","","","","","",""
"2558.6099999998696","","","categorize-html","48","2979649","0.0-48.0","hxeyc6ya","","Which video showed <span style=""font-size:30px"">Sandy's</span> attention?","49","","","","","false"
"null","","","html-keyboard-response","49","2980152","0.0-49.0","hxeyc6ya",""," ","null","","","","",""
"","","","call-function","50","2980152","0.0-50.0","hxeyc6ya","","","","","","","",""
"null","","","html-keyboard-response","51","2981653","0.0-51.0","hxeyc6ya","","<span style=""color:Black; font-size:50px;"">Video 1</span>","null","","","","",""
"null","","","video-keyboard-response","52","2984728","0.0-52.0","hxeyc6ya","","","null","","<span style=""color:Black; font-size:50px;"">Sandy","Sandy","STIM_SET_6/713633.bmp_pp75_L1_V1_veridical_freeview_isoFalse_fps144.mp4",""
"null","","","html-keyboard-response","53","2986234","0.0-53.0","hxeyc6ya","","<span style=""color:Black; font-size:50px;"">Video 2</span>","null","","","","",""
"null","","","video-keyboard-response","54","2989295","0.0-54.0","hxeyc6ya","","","null","","<span style=""color:Black; font-size:50px;"">Casey","Casey","STIM_SET_6/713633.bmp_pp57_L1_V1_veridical_freeview_isoFalse_fps144.mp4",""
"","","","call-function","55","2989295","0.0-55.0","hxeyc6ya","","","","","","","",""
"2167.0949999997392","","","categorize-html","56","2993465","0.0-56.0","hxeyc6ya","","Which video showed <span style=""font-size:30px"">Sandy's</span> attention?","49","","","","","true"
"null","","","html-keyboard-response","57","2993971","0.0-57.0","hxeyc6ya",""," ","null","","","","",""
"","","","call-function","58","2993971","0.0-58.0","hxeyc6ya","","","","","","","",""
"null","","","html-keyboard-response","59","2995475","0.0-59.0","hxeyc6ya","","<span style=""color:Black; font-size:50px;"">Video 1</span>","null","","","","",""
"null","","","video-keyboard-response","60","2998538","0.0-60.0","hxeyc6ya","","","null","","<span style=""color:Black; font-size:50px;"">Casey","Casey","STIM_SET_6/1159440.bmp_pp57_L1_V1_veridical_freeview_isoFalse_fps144.mp4",""
"null","","","html-keyboard-response","61","3000040","0.0-61.0","hxeyc6ya","","<span style=""color:Black; font-size:50px;"">Video 2</span>","null","","","","",""
"null","","","video-keyboard-response","62","3003142","0.0-62.0","hxeyc6ya","","","null","","<span style=""color:Black; font-size:50px;"">Sandy","Sandy","STIM_SET_6/1159440.bmp_pp75_L1_V1_veridical_freeview_isoFalse_fps144.mp4",""
"","","","call-function","63","3003143","0.0-63.0","hxeyc6ya","","","","","","","",""
"1096.035000000149","","","categorize-html","64","3006241","0.0-64.0","hxeyc6ya","","Which video showed <span style=""font-size:30px"">Sandy's</span> attention?","50","","","","","true"
"null","","","html-keyboard-response","65","3006744","0.0-65.0","hxeyc6ya",""," ","null","","","","",""
"","","","call-function","66","3006746","0.0-66.0","hxeyc6ya","","","","","","","",""
"null","","","html-keyboard-response","67","3008247","0.0-67.0","hxeyc6ya","","<span style=""color:Black; font-size:50px;"">Video 1</span>","null","","","","",""
"null","","","video-keyboard-response","68","3011358","0.0-68.0","hxeyc6ya","","","null","","<span style=""color:Black; font-size:50px;"">Sandy","Sandy","STIM_SET_6/713707.bmp_pp75_L1_V1_veridical_freeview_isoFalse_fps144.mp4",""
"null","","","html-keyboard-response","69","3012864","0.0-69.0","hxeyc6ya","","<span style=""color:Black; font-size:50px;"">Video 2</span>","null","","","","",""
"null","","","video-keyboard-response","70","3015927","0.0-70.0","hxeyc6ya","","","null","","<span style=""color:Black; font-size:50px;"">Casey","Casey","STIM_SET_6/713707.bmp_pp57_L1_V1_veridical_freeview_isoFalse_fps144.mp4",""
"","","","call-function","71","3015928","0.0-71.0","hxeyc6ya","","","","","","","",""
"990.7050000000745","","","categorize-html","72","3018921","0.0-72.0","hxeyc6ya","","Which video showed <span style=""font-size:30px"">Sandy's</span> attention?","49","","","","","true"
"null","","","html-keyboard-response","73","3019424","0.0-73.0","hxeyc6ya",""," ","null","","","","",""
"","","","call-function","74","3019425","0.0-74.0","hxeyc6ya","","","","","","","",""
"null","","","html-keyboard-response","75","3020928","0.0-75.0","hxeyc6ya","","<span style=""color:Black; font-size:50px;"">Video 1</span>","null","","","","",""
"null","","","video-keyboard-response","76","3024041","0.0-76.0","hxeyc6ya","","","null","","<span style=""color:Black; font-size:50px;"">Casey","Casey","STIM_SET_6/1592233.bmp_pp57_L1_V1_veridical_freeview_isoFalse_fps144.mp4",""
"null","","","html-keyboard-response","77","3025545","0.0-77.0","hxeyc6ya","","<span style=""color:Black; font-size:50px;"">Video 2</span>","null","","","","",""
"null","","","video-keyboard-response","78","3028641","0.0-78.0","hxeyc6ya","","","null","","<span style=""color:Black; font-size:50px;"">Sandy","Sandy","STIM_SET_6/1592233.bmp_pp75_L1_V1_veridical_freeview_isoFalse_fps144.mp4",""
"","","","call-function","79","3028642","0.0-79.0","hxeyc6ya","","","","","","","",""
"1188.9449999998324","","","categorize-html","80","3031837","0.0-80.0","hxeyc6ya","","Which video showed <span style=""font-size:30px"">Sandy's</span> attention?","50","","","","","true"
"null","","","html-keyboard-response","81","3032343","0.0-81.0","hxeyc6ya",""," ","null","","","","",""
"","","","call-function","82","3032343","0.0-82.0","hxeyc6ya","","","","","","","",""
"null","","","html-keyboard-response","83","3033845","0.0-83.0","hxeyc6ya","","<span style=""color:Black; font-size:50px;"">Video 1</span>","null","","","","",""
"null","","","video-keyboard-response","84","3036955","0.0-84.0","hxeyc6ya","","","null","","<span style=""color:Black; font-size:50px;"">Sandy","Sandy","STIM_SET_6/285807.bmp_pp75_L1_V1_veridical_freeview_isoFalse_fps144.mp4",""
"null","","","html-keyboard-response","85","3038461","0.0-85.0","hxeyc6ya","","<span style=""color:Black; font-size:50px;"">Video 2</span>","null","","","","",""
"null","","","video-keyboard-response","86","3041558","0.0-86.0","hxeyc6ya","","","null","","<span style=""color:Black; font-size:50px;"">Casey","Casey","STIM_SET_6/285807.bmp_pp57_L1_V1_veridical_freeview_isoFalse_fps144.mp4",""
"","","","call-function","87","3041558","0.0-87.0","hxeyc6ya","","","","","","","",""
"1048.4849999998696","","","categorize-html","88","3044613","0.0-88.0","hxeyc6ya","","Which video showed <span style=""font-size:30px"">Sandy's</span> attention?","49","","","","","true"
"null","","","html-keyboard-response","89","3045118","0.0-89.0","hxeyc6ya",""," ","null","","","","",""
"9811.695000000298","","","instructions","90","3054930","0.0-90.0","hxeyc6ya","[{""page_index"":0,""viewing_time"":1858.345000000205},{""page_index"":1,""viewing_time"":4130.334999999963},{""page_index"":2,""viewing_time"":3822.899999999907}]","","","","","","",""
"10851.415000000037","","","instructions","91","3065782","0.0-91.0","hxeyc6ya","[{""page_index"":0,""viewing_time"":3875.3250000001863},{""page_index"":1,""viewing_time"":4823.944999999832},{""page_index"":2,""viewing_time"":2152.0300000002608}]","","","","","","",""
"","","","call-function","92","3065782","0.0-92.0","hxeyc6ya","","","","","","","",""
"null","","","html-keyboard-response","93","3067282","0.0-93.0","hxeyc6ya","","<span style=""color:Black; font-size:50px;"">Video 1</span>","null","","","","",""
"null","","","video-keyboard-response","94","3070362","0.0-94.0","hxeyc6ya","","","null","","<span style=""color:Black; font-size:50px;"">Sandy","Sandy","STIM_SET_6/1591781.bmp_pp75_L1_V1_veridical_freeview_isoFalse_fps144.mp4",""
"null","","","html-keyboard-response","95","3071864","0.0-95.0","hxeyc6ya","","<span style=""color:Black; font-size:50px;"">Video 2</span>","null","","","","",""
"null","","","video-keyboard-response","96","3074925","0.0-96.0","hxeyc6ya","","","null","","<span style=""color:Black; font-size:50px;"">Casey","Casey","STIM_SET_6/1591781.bmp_pp57_L1_V1_veridical_freeview_isoFalse_fps144.mp4",""
"","","","call-function","97","3074926","0.0-97.0","hxeyc6ya","","","","","","","",""
"1512.964999999851","","","categorize-html","98","3078442","0.0-98.0","hxeyc6ya","","Which video showed <span style=""font-size:30px"">Sandy's</span> attention?","49","","","","","true"
"null","","","html-keyboard-response","99","3078944","0.0-99.0","hxeyc6ya",""," ","null","","","","",""
"","","","call-function","100","3078945","0.0-100.0","hxeyc6ya","","","","","","","",""
"null","","","html-keyboard-response","101","3080446","0.0-101.0","hxeyc6ya","","<span style=""color:Black; font-size:50px;"">Video 1</span>","null","","","","",""
"null","","","video-keyboard-response","102","3083523","0.0-102.0","hxeyc6ya","","","null","","<span style=""color:Black; font-size:50px;"">Sandy","Sandy","STIM_SET_6/1593146.bmp_pp75_L1_V1_veridical_freeview_isoFalse_fps144.mp4",""
"null","","","html-keyboard-response","103","3085026","0.0-103.0","hxeyc6ya","","<span style=""color:Black; font-size:50px;"">Video 2</span>","null","","","","",""
"null","","","video-keyboard-response","104","3088103","0.0-104.0","hxeyc6ya","","","null","","<span style=""color:Black; font-size:50px;"">Casey","Casey","STIM_SET_6/1593146.bmp_pp57_L1_V1_veridical_freeview_isoFalse_fps144.mp4",""
"","","","call-function","105","3088103","0.0-105.0","hxeyc6ya","","","","","","","",""
"1879.2199999997392","","","categorize-html","106","3091986","0.0-106.0","hxeyc6ya","","Which video showed <span style=""font-size:30px"">Sandy's</span> attention?","49","","","","","true"
"null","","","html-keyboard-response","107","3092491","0.0-107.0","hxeyc6ya",""," ","null","","","","",""
"","","","call-function","108","3092492","0.0-108.0","hxeyc6ya","","","","","","","",""
"null","","","html-keyboard-response","109","3093993","0.0-109.0","hxeyc6ya","","<span style=""color:Black; font-size:50px;"">Video 1</span>","null","","","","",""
"null","","","video-keyboard-response","110","3097066","0.0-110.0","hxeyc6ya","","","null","","<span style=""color:Black; font-size:50px;"">Sandy","Sandy","STIM_SET_6/498339.bmp_pp75_L1_V1_veridical_freeview_isoFalse_fps144.mp4",""
"null","","","html-keyboard-response","111","3098569","0.0-111.0","hxeyc6ya","","<span style=""color:Black; font-size:50px;"">Video 2</span>","null","","","","",""
"null","","","video-keyboard-response","112","3101645","0.0-112.0","hxeyc6ya","","","null","","<span style=""color:Black; font-size:50px;"">Casey","Casey","STIM_SET_6/498339.bmp_pp57_L1_V1_veridical_freeview_isoFalse_fps144.mp4",""
"","","","call-function","113","3101646","0.0-113.0","hxeyc6ya","","","","","","","",""
"713.3199999998324","","","categorize-html","114","3104366","0.0-114.0","hxeyc6ya","","Which video showed <span style=""font-size:30px"">Sandy's</span> attention?","50","","","","","false"
"null","","","html-keyboard-response","115","3104872","0.0-115.0","hxeyc6ya",""," ","null","","","","",""
"","","","call-function","116","3104873","0.0-116.0","hxeyc6ya","","","","","","","",""
"null","","","html-keyboard-response","117","3106375","0.0-117.0","hxeyc6ya","","<span style=""color:Black; font-size:50px;"">Video 1</span>","null","","","","",""
"null","","","video-keyboard-response","118","3109469","0.0-118.0","hxeyc6ya","","","null","","<span style=""color:Black; font-size:50px;"">Casey","Casey","STIM_SET_6/1592351.bmp_pp57_L1_V1_veridical_freeview_isoFalse_fps144.mp4",""
"null","","","html-keyboard-response","119","3110972","0.0-119.0","hxeyc6ya","","<span style=""color:Black; font-size:50px;"">Video 2</span>","null","","","","",""
"null","","","video-keyboard-response","120","3114066","0.0-120.0","hxeyc6ya","","","null","","<span style=""color:Black; font-size:50px;"">Sandy","Sandy","STIM_SET_6/1592351.bmp_pp75_L1_V1_veridical_freeview_isoFalse_fps144.mp4",""
"","","","call-function","121","3114067","0.0-121.0","hxeyc6ya","","","","","","","",""
"868.4000000003725","","","categorize-html","122","3116942","0.0-122.0","hxeyc6ya","","Which video showed <span style=""font-size:30px"">Sandy's</span> attention?","50","","","","","true"
"null","","","html-keyboard-response","123","3117443","0.0-123.0","hxeyc6ya",""," ","null","","","","",""
"","","","call-function","124","3117444","0.0-124.0","hxeyc6ya","","","","","","","",""
"null","","","html-keyboard-response","125","3118948","0.0-125.0","hxeyc6ya","","<span style=""color:Black; font-size:50px;"">Video 1</span>","null","","","","",""
"null","","","video-keyboard-response","126","3122054","0.0-126.0","hxeyc6ya","","","null","","<span style=""color:Black; font-size:50px;"">Sandy","Sandy","STIM_SET_6/1591838.bmp_pp75_L1_V1_veridical_freeview_isoFalse_fps144.mp4",""
"null","","","html-keyboard-response","127","3123556","0.0-127.0","hxeyc6ya","","<span style=""color:Black; font-size:50px;"">Video 2</span>","null","","","","",""
"null","","","video-keyboard-response","128","3126647","0.0-128.0","hxeyc6ya","","","null","","<span style=""color:Black; font-size:50px;"">Casey","Casey","STIM_SET_6/1591838.bmp_pp57_L1_V1_veridical_freeview_isoFalse_fps144.mp4",""
"","","","call-function","129","3126647","0.0-129.0","hxeyc6ya","","","","","","","",""
"1616.1599999996834","","","categorize-html","130","3130266","0.0-130.0","hxeyc6ya","","Which video showed <span style=""font-size:30px"">Sandy's</span> attention?","49","","","","","true"
"null","","","html-keyboard-response","131","3130769","0.0-131.0","hxeyc6ya",""," ","null","","","","",""
"","","","call-function","132","3130770","0.0-132.0","hxeyc6ya","","","","","","","",""
"null","","","html-keyboard-response","133","3132276","0.0-133.0","hxeyc6ya","","<span style=""color:Black; font-size:50px;"">Video 1</span>","null","","","","",""
"null","","","video-keyboard-response","134","3135371","0.0-134.0","hxeyc6ya","","","null","","<span style=""color:Black; font-size:50px;"">Sandy","Sandy","STIM_SET_6/1592807.bmp_pp75_L1_V1_veridical_freeview_isoFalse_fps144.mp4",""
"null","","","html-keyboard-response","135","3136873","0.0-135.0","hxeyc6ya","","<span style=""color:Black; font-size:50px;"">Video 2</span>","null","","","","",""
"null","","","video-keyboard-response","136","3139985","0.0-136.0","hxeyc6ya","","","null","","<span style=""color:Black; font-size:50px;"">Casey","Casey","STIM_SET_6/1592807.bmp_pp57_L1_V1_veridical_freeview_isoFalse_fps144.mp4",""
"","","","call-function","137","3139985","0.0-137.0","hxeyc6ya","","","","","","","",""
"981.8900000001304","","","categorize-html","138","3142970","0.0-138.0","hxeyc6ya","","Which video showed <span style=""font-size:30px"">Sandy's</span> attention?","49","","","","","true"
"null","","","html-keyboard-response","139","3143476","0.0-139.0","hxeyc6ya",""," ","null","","","","",""
"","","","call-function","140","3143476","0.0-140.0","hxeyc6ya","","","","","","","",""
"null","","","html-keyboard-response","141","3144982","0.0-141.0","hxeyc6ya","","<span style=""color:Black; font-size:50px;"">Video 1</span>","null","","","","",""
"null","","","video-keyboard-response","142","3148060","0.0-142.0","hxeyc6ya","","","null","","<span style=""color:Black; font-size:50px;"">Casey","Casey","STIM_SET_6/107930.bmp_pp57_L1_V1_veridical_freeview_isoFalse_fps144.mp4",""
"null","","","html-keyboard-response","143","3149566","0.0-143.0","hxeyc6ya","","<span style=""color:Black; font-size:50px;"">Video 2</span>","null","","","","",""
"null","","","video-keyboard-response","144","3152658","0.0-144.0","hxeyc6ya","","","null","","<span style=""color:Black; font-size:50px;"">Sandy","Sandy","STIM_SET_6/107930.bmp_pp75_L1_V1_veridical_freeview_isoFalse_fps144.mp4",""
"","","","call-function","145","3152659","0.0-145.0","hxeyc6ya","","","","","","","",""
"1100.095000000205","","","categorize-html","146","3155764","0.0-146.0","hxeyc6ya","","Which video showed <span style=""font-size:30px"">Sandy's</span> attention?","49","","","","","false"
"null","","","html-keyboard-response","147","3156268","0.0-147.0","hxeyc6ya",""," ","null","","","","",""
"","","","call-function","148","3156268","0.0-148.0","hxeyc6ya","","","","","","","",""
"null","","","html-keyboard-response","149","3157774","0.0-149.0","hxeyc6ya","","<span style=""color:Black; font-size:50px;"">Video 1</span>","null","","","","",""
"null","","","video-keyboard-response","150","3160850","0.0-150.0","hxeyc6ya","","","null","","<span style=""color:Black; font-size:50px;"">Sandy","Sandy","STIM_SET_6/285948.bmp_pp75_L1_V1_veridical_freeview_isoFalse_fps144.mp4",""
"null","","","html-keyboard-response","151","3162353","0.0-151.0","hxeyc6ya","","<span style=""color:Black; font-size:50px;"">Video 2</span>","null","","","","",""
"null","","","video-keyboard-response","152","3165428","0.0-152.0","hxeyc6ya","","","null","","<span style=""color:Black; font-size:50px;"">Casey","Casey","STIM_SET_6/285948.bmp_pp57_L1_V1_veridical_freeview_isoFalse_fps144.mp4",""
"","","","call-function","153","3165429","0.0-153.0","hxeyc6ya","","","","","","","",""
"1346.195000000298","","","categorize-html","154","3168781","0.0-154.0","hxeyc6ya","","Which video showed <span style=""font-size:30px"">Sandy's</span> attention?","50","","","","","false"
"null","","","html-keyboard-response","155","3169286","0.0-155.0","hxeyc6ya",""," ","null","","","","",""
"","","","call-function","156","3169286","0.0-156.0","hxeyc6ya","","","","","","","",""
"null","","","html-keyboard-response","157","3170793","0.0-157.0","hxeyc6ya","","<span style=""color:Black; font-size:50px;"">Video 1</span>","null","","","","",""
"null","","","video-keyboard-response","158","3173884","0.0-158.0","hxeyc6ya","","","null","","<span style=""color:Black; font-size:50px;"">Casey","Casey","STIM_SET_6/713174.bmp_pp57_L1_V1_veridical_freeview_isoFalse_fps144.mp4",""
"null","","","html-keyboard-response","159","3175389","0.0-159.0","hxeyc6ya","","<span style=""color:Black; font-size:50px;"">Video 2</span>","null","","","","",""
"null","","","video-keyboard-response","160","3178499","0.0-160.0","hxeyc6ya","","","null","","<span style=""color:Black; font-size:50px;"">Sandy","Sandy","STIM_SET_6/713174.bmp_pp75_L1_V1_veridical_freeview_isoFalse_fps144.mp4",""
"","","","call-function","161","3178500","0.0-161.0","hxeyc6ya","","","","","","","",""
"3955.3050000001676","","","categorize-html","162","3184458","0.0-162.0","hxeyc6ya","","Which video showed <span style=""font-size:30px"">Sandy's</span> attention?","49","","","","","false"
"null","","","html-keyboard-response","163","3184961","0.0-163.0","hxeyc6ya",""," ","null","","","","",""
"","","","call-function","164","3184961","0.0-164.0","hxeyc6ya","","","","","","","",""
"null","","","html-keyboard-response","165","3186467","0.0-165.0","hxeyc6ya","","<span style=""color:Black; font-size:50px;"">Video 1</span>","null","","","","",""
"null","","","video-keyboard-response","166","3189571","0.0-166.0","hxeyc6ya","","","null","","<span style=""color:Black; font-size:50px;"">Casey","Casey","STIM_SET_6/1592094.bmp_pp57_L1_V1_veridical_freeview_isoFalse_fps144.mp4",""
"null","","","html-keyboard-response","167","3191075","0.0-167.0","hxeyc6ya","","<span style=""color:Black; font-size:50px;"">Video 2</span>","null","","","","",""
"null","","","video-keyboard-response","168","3194172","0.0-168.0","hxeyc6ya","","","null","","<span style=""color:Black; font-size:50px;"">Sandy","Sandy","STIM_SET_6/1592094.bmp_pp75_L1_V1_veridical_freeview_isoFalse_fps144.mp4",""
"","","","call-function","169","3194172","0.0-169.0","hxeyc6ya","","","","","","","",""
"706.8799999998882","","","categorize-html","170","3196884","0.0-170.0","hxeyc6ya","","Which video showed <span style=""font-size:30px"">Sandy's</span> attention?","50","","","","","true"
"null","","","html-keyboard-response","171","3197388","0.0-171.0","hxeyc6ya",""," ","null","","","","",""
"17388.85499999998","","","instructions","172","3214777","0.0-172.0","hxeyc6ya","[{""page_index"":0,""viewing_time"":12260.850000000093},{""page_index"":1,""viewing_time"":1204.0800000000745},{""page_index"":2,""viewing_time"":3923.720000000205}]","","","","","","",""
"8406.585000000428","","","instructions","173","3223184","0.0-173.0","hxeyc6ya","[{""page_index"":0,""viewing_time"":4570.470000000205},{""page_index"":1,""viewing_time"":2077.0699999998324},{""page_index"":2,""viewing_time"":1758.9400000004098}]","","","","","","",""
"","","","call-function","174","3223184","0.0-174.0","hxeyc6ya","","","","","","","",""
"null","","","html-keyboard-response","175","3224688","0.0-175.0","hxeyc6ya","","<span style=""color:Black; font-size:50px;"">Video 1</span>","null","","","","",""
"null","","","video-keyboard-response","176","3227761","0.0-176.0","hxeyc6ya","","","null","","<span style=""color:Black; font-size:50px;"">Sandy","Sandy","STIM_SET_6/498025.bmp_pp75_L1_V1_veridical_freeview_isoFalse_fps144.mp4",""
"null","","","html-keyboard-response","177","3229264","0.0-177.0","hxeyc6ya","","<span style=""color:Black; font-size:50px;"">Video 2</span>","null","","","","",""
"null","","","video-keyboard-response","178","3232340","0.0-178.0","hxeyc6ya","","","null","","<span style=""color:Black; font-size:50px;"">Casey","Casey","STIM_SET_6/498025.bmp_pp57_L1_V1_veridical_freeview_isoFalse_fps144.mp4",""
"","","","call-function","179","3232340","0.0-179.0","hxeyc6ya","","","","","","","",""
"594.8950000000186","","","categorize-html","180","3234938","0.0-180.0","hxeyc6ya","","Which video showed <span style=""font-size:30px"">Sandy's</span> attention?","49","","","","","true"
"null","","","html-keyboard-response","181","3235444","0.0-181.0","hxeyc6ya",""," ","null","","","","",""
"","","","call-function","182","3235444","0.0-182.0","hxeyc6ya","","","","","","","",""
"null","","","html-keyboard-response","183","3236945","0.0-183.0","hxeyc6ya","","<span style=""color:Black; font-size:50px;"">Video 1</span>","null","","","","",""
"null","","","video-keyboard-response","184","3240004","0.0-184.0","hxeyc6ya","","","null","","<span style=""color:Black; font-size:50px;"">Sandy","Sandy","STIM_SET_6/498398.bmp_pp75_L1_V1_veridical_freeview_isoFalse_fps144.mp4",""
"null","","","html-keyboard-response","185","3241510","0.0-185.0","hxeyc6ya","","<span style=""color:Black; font-size:50px;"">Video 2</span>","null","","","","",""
"null","","","video-keyboard-response","186","3244586","0.0-186.0","hxeyc6ya","","","null","","<span style=""color:Black; font-size:50px;"">Casey","Casey","STIM_SET_6/498398.bmp_pp57_L1_V1_veridical_freeview_isoFalse_fps144.mp4",""
"","","","call-function","187","3244587","0.0-187.0","hxeyc6ya","","","","","","","",""
"820.4399999999441","","","categorize-html","188","3247413","0.0-188.0","hxeyc6ya","","Which video showed <span style=""font-size:30px"">Sandy's</span> attention?","50","","","","","false"
"null","","","html-keyboard-response","189","3247916","0.0-189.0","hxeyc6ya",""," ","null","","","","",""
"","","","call-function","190","3247916","0.0-190.0","hxeyc6ya","","","","","","","",""
"null","","","html-keyboard-response","191","3249419","0.0-191.0","hxeyc6ya","","<span style=""color:Black; font-size:50px;"">Video 1</span>","null","","","","",""
"null","","","video-keyboard-response","192","3252532","0.0-192.0","hxeyc6ya","","","null","","<span style=""color:Black; font-size:50px;"">Sandy","Sandy","STIM_SET_6/61513.bmp_pp75_L1_V1_veridical_freeview_isoFalse_fps144.mp4",""
"null","","","html-keyboard-response","193","3254034","0.0-193.0","hxeyc6ya","","<span style=""color:Black; font-size:50px;"">Video 2</span>","null","","","","",""
"null","","","video-keyboard-response","194","3257137","0.0-194.0","hxeyc6ya","","","null","","<span style=""color:Black; font-size:50px;"">Casey","Casey","STIM_SET_6/61513.bmp_pp57_L1_V1_veridical_freeview_isoFalse_fps144.mp4",""
"","","","call-function","195","3257137","0.0-195.0","hxeyc6ya","","","","","","","",""
"862.0950000002049","","","categorize-html","196","3260005","0.0-196.0","hxeyc6ya","","Which video showed <span style=""font-size:30px"">Sandy's</span> attention?","49","","","","","true"
"null","","","html-keyboard-response","197","3260508","0.0-197.0","hxeyc6ya",""," ","null","","","","",""
"","","","call-function","198","3260509","0.0-198.0","hxeyc6ya","","","","","","","",""
"null","","","html-keyboard-response","199","3262010","0.0-199.0","hxeyc6ya","","<span style=""color:Black; font-size:50px;"">Video 1</span>","null","","","","",""
"null","","","video-keyboard-response","200","3265113","0.0-200.0","hxeyc6ya","","","null","","<span style=""color:Black; font-size:50px;"">Casey","Casey","STIM_SET_6/713450.bmp_pp57_L1_V1_veridical_freeview_isoFalse_fps144.mp4",""
"null","","","html-keyboard-response","201","3266616","0.0-201.0","hxeyc6ya","","<span style=""color:Black; font-size:50px;"">Video 2</span>","null","","","","",""
"null","","","video-keyboard-response","202","3269727","0.0-202.0","hxeyc6ya","","","null","","<span style=""color:Black; font-size:50px;"">Sandy","Sandy","STIM_SET_6/713450.bmp_pp75_L1_V1_veridical_freeview_isoFalse_fps144.mp4",""
"","","","call-function","203","3269727","0.0-203.0","hxeyc6ya","","","","","","","",""
"1296.2299999999814","","","categorize-html","204","3273026","0.0-204.0","hxeyc6ya","","Which video showed <span style=""font-size:30px"">Sandy's</span> attention?","50","","","","","true"
"null","","","html-keyboard-response","205","3273530","0.0-205.0","hxeyc6ya",""," ","null","","","","",""
"","","","call-function","206","3273530","0.0-206.0","hxeyc6ya","","","","","","","",""
"null","","","html-keyboard-response","207","3275032","0.0-207.0","hxeyc6ya","","<span style=""color:Black; font-size:50px;"">Video 1</span>","null","","","","",""
"null","","","video-keyboard-response","208","3278127","0.0-208.0","hxeyc6ya","","","null","","<span style=""color:Black; font-size:50px;"">Casey","Casey","STIM_SET_6/1159425.bmp_pp57_L1_V1_veridical_freeview_isoFalse_fps144.mp4",""
"null","","","html-keyboard-response","209","3279633","0.0-209.0","hxeyc6ya","","<span style=""color:Black; font-size:50px;"">Video 2</span>","null","","","","",""
"null","","","video-keyboard-response","210","3282739","0.0-210.0","hxeyc6ya","","","null","","<span style=""color:Black; font-size:50px;"">Sandy","Sandy","STIM_SET_6/1159425.bmp_pp75_L1_V1_veridical_freeview_isoFalse_fps144.mp4",""
"","","","call-function","211","3282740","0.0-211.0","hxeyc6ya","","","","","","","",""
"867.3250000001863","","","categorize-html","212","3285610","0.0-212.0","hxeyc6ya","","Which video showed <span style=""font-size:30px"">Sandy's</span> attention?","49","","","","","false"
"null","","","html-keyboard-response","213","3286115","0.0-213.0","hxeyc6ya",""," ","null","","","","",""
"","","","call-function","214","3286116","0.0-214.0","hxeyc6ya","","","","","","","",""
"null","","","html-keyboard-response","215","3287616","0.0-215.0","hxeyc6ya","","<span style=""color:Black; font-size:50px;"">Video 1</span>","null","","","","",""
"null","","","video-keyboard-response","216","3290710","0.0-216.0","hxeyc6ya","","","null","","<span style=""color:Black; font-size:50px;"">Sandy","Sandy","STIM_SET_6/713770.bmp_pp75_L1_V1_veridical_freeview_isoFalse_fps144.mp4",""
"null","","","html-keyboard-response","217","3292212","0.0-217.0","hxeyc6ya","","<span style=""color:Black; font-size:50px;"">Video 2</span>","null","","","","",""
"null","","","video-keyboard-response","218","3295277","0.0-218.0","hxeyc6ya","","","null","","<span style=""color:Black; font-size:50px;"">Casey","Casey","STIM_SET_6/713770.bmp_pp57_L1_V1_veridical_freeview_isoFalse_fps144.mp4",""
"","","","call-function","219","3295277","0.0-219.0","hxeyc6ya","","","","","","","",""
"970.1549999997951","","","categorize-html","220","3298249","0.0-220.0","hxeyc6ya","","Which video showed <span style=""font-size:30px"">Sandy's</span> attention?","49","","","","","true"
"null","","","html-keyboard-response","221","3298751","0.0-221.0","hxeyc6ya",""," ","null","","","","",""
"","","","call-function","222","3298751","0.0-222.0","hxeyc6ya","","","","","","","",""
"null","","","html-keyboard-response","223","3300255","0.0-223.0","hxeyc6ya","","<span style=""color:Black; font-size:50px;"">Video 1</span>","null","","","","",""
"null","","","video-keyboard-response","224","3303326","0.0-224.0","hxeyc6ya","","","null","","<span style=""color:Black; font-size:50px;"">Casey","Casey","STIM_SET_6/713920.bmp_pp57_L1_V1_veridical_freeview_isoFalse_fps144.mp4",""
"null","","","html-keyboard-response","225","3304829","0.0-225.0","hxeyc6ya","","<span style=""color:Black; font-size:50px;"">Video 2</span>","null","","","","",""
"null","","","video-keyboard-response","226","3307894","0.0-226.0","hxeyc6ya","","","null","","<span style=""color:Black; font-size:50px;"">Sandy","Sandy","STIM_SET_6/713920.bmp_pp75_L1_V1_veridical_freeview_isoFalse_fps144.mp4",""
"","","","call-function","227","3307894","0.0-227.0","hxeyc6ya","","","","","","","",""
"808.5150000001304","","","categorize-html","228","3310705","0.0-228.0","hxeyc6ya","","Which video showed <span style=""font-size:30px"">Sandy's</span> attention?","50","","","","","true"
"null","","","html-keyboard-response","229","3311211","0.0-229.0","hxeyc6ya",""," ","null","","","","",""
"","","","call-function","230","3311211","0.0-230.0","hxeyc6ya","","","","","","","",""
"null","","","html-keyboard-response","231","3312717","0.0-231.0","hxeyc6ya","","<span style=""color:Black; font-size:50px;"">Video 1</span>","null","","","","",""
"null","","","video-keyboard-response","232","3315780","0.0-232.0","hxeyc6ya","","","null","","<span style=""color:Black; font-size:50px;"">Sandy","Sandy","STIM_SET_6/712977.bmp_pp75_L1_V1_veridical_freeview_isoFalse_fps144.mp4",""
"null","","","html-keyboard-response","233","3317282","0.0-233.0","hxeyc6ya","","<span style=""color:Black; font-size:50px;"">Video 2</span>","null","","","","",""
"null","","","video-keyboard-response","234","3320378","0.0-234.0","hxeyc6ya","","","null","","<span style=""color:Black; font-size:50px;"">Casey","Casey","STIM_SET_6/712977.bmp_pp57_L1_V1_veridical_freeview_isoFalse_fps144.mp4",""
"","","","call-function","235","3320378","0.0-235.0","hxeyc6ya","","","","","","","",""
"869.269999999553","","","categorize-html","236","3323252","0.0-236.0","hxeyc6ya","","Which video showed <span style=""font-size:30px"">Sandy's</span> attention?","49","","","","","true"
"null","","","html-keyboard-response","237","3323754","0.0-237.0","hxeyc6ya",""," ","null","","","","",""
"","","","call-function","238","3323754","0.0-238.0","hxeyc6ya","","","","","","","",""
"null","","","html-keyboard-response","239","3325256","0.0-239.0","hxeyc6ya","","<span style=""color:Black; font-size:50px;"">Video 1</span>","null","","","","",""
"null","","","video-keyboard-response","240","3328359","0.0-240.0","hxeyc6ya","","","null","","<span style=""color:Black; font-size:50px;"">Casey","Casey","STIM_SET_6/1159486.bmp_pp57_L1_V1_veridical_freeview_isoFalse_fps144.mp4",""
"null","","","html-keyboard-response","241","3329863","0.0-241.0","hxeyc6ya","","<span style=""color:Black; font-size:50px;"">Video 2</span>","null","","","","",""
"null","","","video-keyboard-response","242","3332975","0.0-242.0","hxeyc6ya","","","null","","<span style=""color:Black; font-size:50px;"">Sandy","Sandy","STIM_SET_6/1159486.bmp_pp75_L1_V1_veridical_freeview_isoFalse_fps144.mp4",""
"","","","call-function","243","3332975","0.0-243.0","hxeyc6ya","","","","","","","",""
"4416.030000000261","","","categorize-html","244","3339394","0.0-244.0","hxeyc6ya","","Which video showed <span style=""font-size:30px"">Sandy's</span> attention?","49","","","","","false"
"null","","","html-keyboard-response","245","3339897","0.0-245.0","hxeyc6ya",""," ","null","","","","",""
"","","","call-function","246","3339897","0.0-246.0","hxeyc6ya","","","","","","","",""
"null","","","html-keyboard-response","247","3341399","0.0-247.0","hxeyc6ya","","<span style=""color:Black; font-size:50px;"">Video 1</span>","null","","","","",""
"null","","","video-keyboard-response","248","3344499","0.0-248.0","hxeyc6ya","","","null","","<span style=""color:Black; font-size:50px;"">Casey","Casey","STIM_SET_6/285932.bmp_pp57_L1_V1_veridical_freeview_isoFalse_fps144.mp4",""
"null","","","html-keyboard-response","249","3346000","0.0-249.0","hxeyc6ya","","<span style=""color:Black; font-size:50px;"">Video 2</span>","null","","","","",""
"null","","","video-keyboard-response","250","3349111","0.0-250.0","hxeyc6ya","","","null","","<span style=""color:Black; font-size:50px;"">Sandy","Sandy","STIM_SET_6/285932.bmp_pp75_L1_V1_veridical_freeview_isoFalse_fps144.mp4",""
"","","","call-function","251","3349112","0.0-251.0","hxeyc6ya","","","","","","","",""
"3943.5449999999255","","","categorize-html","252","3355058","0.0-252.0","hxeyc6ya","","Which video showed <span style=""font-size:30px"">Sandy's</span> attention?","50","","","","","true"
"null","","","html-keyboard-response","253","3355562","0.0-253.0","hxeyc6ya",""," ","null","","","","",""
"33479.43000000017","","","instructions","254","3389042","0.0-254.0","hxeyc6ya","[{""page_index"":0,""viewing_time"":20473.42500000028},{""page_index"":1,""viewing_time"":8945.904999999795},{""page_index"":2,""viewing_time"":4059.9900000002235}]","","","","","","",""
"23199.174999999814","","","instructions","255","3412242","0.0-255.0","hxeyc6ya","[{""page_index"":0,""viewing_time"":22016.674999999814},{""page_index"":1,""viewing_time"":619.0200000000186},{""page_index"":2,""viewing_time"":563.3500000000931}]","","","","","","",""
"","","","call-function","256","3412242","0.0-256.0","hxeyc6ya","","","","","","","",""
"null","","","html-keyboard-response","257","3413743","0.0-257.0","hxeyc6ya","","<span style=""color:Black; font-size:50px;"">Video 1</span>","null","","","","",""
"null","","","video-keyboard-response","258","3416818","0.0-258.0","hxeyc6ya","","","null","","<span style=""color:Black; font-size:50px;"">Casey","Casey","STIM_SET_6/1592934.bmp_pp57_L1_V1_veridical_freeview_isoFalse_fps144.mp4",""
"null","","","html-keyboard-response","259","3418324","0.0-259.0","hxeyc6ya","","<span style=""color:Black; font-size:50px;"">Video 2</span>","null","","","","",""
"null","","","video-keyboard-response","260","3421392","0.0-260.0","hxeyc6ya","","","null","","<span style=""color:Black; font-size:50px;"">Sandy","Sandy","STIM_SET_6/1592934.bmp_pp75_L1_V1_veridical_freeview_isoFalse_fps144.mp4",""
"","","","call-function","261","3421393","0.0-261.0","hxeyc6ya","","","","","","","",""
"518.4599999999627","","","categorize-html","262","3423913","0.0-262.0","hxeyc6ya","","Which video showed <span style=""font-size:30px"">Sandy's</span> attention?","50","","","","","true"
"null","","","html-keyboard-response","263","3424416","0.0-263.0","hxeyc6ya",""," ","null","","","","",""
"","","","call-function","264","3424417","0.0-264.0","hxeyc6ya","","","","","","","",""
"null","","","html-keyboard-response","265","3425919","0.0-265.0","hxeyc6ya","","<span style=""color:Black; font-size:50px;"">Video 1</span>","null","","","","",""
"null","","","video-keyboard-response","266","3428991","0.0-266.0","hxeyc6ya","","","null","","<span style=""color:Black; font-size:50px;"">Casey","Casey","STIM_SET_6/1159463.bmp_pp57_L1_V1_veridical_freeview_isoFalse_fps144.mp4",""
"null","","","html-keyboard-response","267","3430497","0.0-267.0","hxeyc6ya","","<span style=""color:Black; font-size:50px;"">Video 2</span>","null","","","","",""
"null","","","video-keyboard-response","268","3433560","0.0-268.0","hxeyc6ya","","","null","","<span style=""color:Black; font-size:50px;"">Sandy","Sandy","STIM_SET_6/1159463.bmp_pp75_L1_V1_veridical_freeview_isoFalse_fps144.mp4",""
"","","","call-function","269","3433561","0.0-269.0","hxeyc6ya","","","","","","","",""
"894.2749999999069","","","categorize-html","270","3436461","0.0-270.0","hxeyc6ya","","Which video showed <span style=""font-size:30px"">Sandy's</span> attention?","50","","","","","true"
"null","","","html-keyboard-response","271","3436965","0.0-271.0","hxeyc6ya",""," ","null","","","","",""
"","","","call-function","272","3436966","0.0-272.0","hxeyc6ya","","","","","","","",""
"null","","","html-keyboard-response","273","3438468","0.0-273.0","hxeyc6ya","","<span style=""color:Black; font-size:50px;"">Video 1</span>","null","","","","",""
"null","","","video-keyboard-response","274","3441553","0.0-274.0","hxeyc6ya","","","null","","<span style=""color:Black; font-size:50px;"">Casey","Casey","STIM_SET_6/1593041.bmp_pp57_L1_V1_veridical_freeview_isoFalse_fps144.mp4",""
"null","","","html-keyboard-response","275","3443058","0.0-275.0","hxeyc6ya","","<span style=""color:Black; font-size:50px;"">Video 2</span>","null","","","","",""
"null","","","video-keyboard-response","276","3446155","0.0-276.0","hxeyc6ya","","","null","","<span style=""color:Black; font-size:50px;"">Sandy","Sandy","STIM_SET_6/1593041.bmp_pp75_L1_V1_veridical_freeview_isoFalse_fps144.mp4",""
"","","","call-function","277","3446155","0.0-277.0","hxeyc6ya","","","","","","","",""
"964.0349999996834","","","categorize-html","278","3449123","0.0-278.0","hxeyc6ya","","Which video showed <span style=""font-size:30px"">Sandy's</span> attention?","50","","","","","true"
"null","","","html-keyboard-response","279","3449627","0.0-279.0","hxeyc6ya",""," ","null","","","","",""
"","","","call-function","280","3449628","0.0-280.0","hxeyc6ya","","","","","","","",""
"null","","","html-keyboard-response","281","3451133","0.0-281.0","hxeyc6ya","","<span style=""color:Black; font-size:50px;"">Video 1</span>","null","","","","",""
"null","","","video-keyboard-response","282","3454232","0.0-282.0","hxeyc6ya","","","null","","<span style=""color:Black; font-size:50px;"">Casey","Casey","STIM_SET_6/713786.bmp_pp57_L1_V1_veridical_freeview_isoFalse_fps144.mp4",""
"null","","","html-keyboard-response","283","3455738","0.0-283.0","hxeyc6ya","","<span style=""color:Black; font-size:50px;"">Video 2</span>","null","","","","",""
"null","","","video-keyboard-response","284","3458841","0.0-284.0","hxeyc6ya","","","null","","<span style=""color:Black; font-size:50px;"">Sandy","Sandy","STIM_SET_6/713786.bmp_pp75_L1_V1_veridical_freeview_isoFalse_fps144.mp4",""
"","","","call-function","285","3458841","0.0-285.0","hxeyc6ya","","","","","","","",""
"1093.8799999998882","","","categorize-html","286","3461942","0.0-286.0","hxeyc6ya","","Which video showed <span style=""font-size:30px"">Sandy's</span> attention?","50","","","","","true"
"null","","","html-keyboard-response","287","3462446","0.0-287.0","hxeyc6ya",""," ","null","","","","",""
"","","","call-function","288","3462447","0.0-288.0","hxeyc6ya","","","","","","","",""
"null","","","html-keyboard-response","289","3463953","0.0-289.0","hxeyc6ya","","<span style=""color:Black; font-size:50px;"">Video 1</span>","null","","","","",""
"null","","","video-keyboard-response","290","3467052","0.0-290.0","hxeyc6ya","","","null","","<span style=""color:Black; font-size:50px;"">Casey","Casey","STIM_SET_6/1592133.bmp_pp57_L1_V1_veridical_freeview_isoFalse_fps144.mp4",""
"null","","","html-keyboard-response","291","3468557","0.0-291.0","hxeyc6ya","","<span style=""color:Black; font-size:50px;"">Video 2</span>","null","","","","",""
"null","","","video-keyboard-response","292","3471653","0.0-292.0","hxeyc6ya","","","null","","<span style=""color:Black; font-size:50px;"">Sandy","Sandy","STIM_SET_6/1592133.bmp_pp75_L1_V1_veridical_freeview_isoFalse_fps144.mp4",""
"","","","call-function","293","3471653","0.0-293.0","hxeyc6ya","","","","","","","",""
"681.9199999999255","","","categorize-html","294","3474342","0.0-294.0","hxeyc6ya","","Which video showed <span style=""font-size:30px"">Sandy's</span> attention?","49","","","","","false"
"null","","","html-keyboard-response","295","3474845","0.0-295.0","hxeyc6ya",""," ","null","","","","",""
"","","","call-function","296","3474846","0.0-296.0","hxeyc6ya","","","","","","","",""
"null","","","html-keyboard-response","297","3476348","0.0-297.0","hxeyc6ya","","<span style=""color:Black; font-size:50px;"">Video 1</span>","null","","","","",""
"null","","","video-keyboard-response","298","3479455","0.0-298.0","hxeyc6ya","","","null","","<span style=""color:Black; font-size:50px;"">Sandy","Sandy","STIM_SET_6/713858.bmp_pp75_L1_V1_veridical_freeview_isoFalse_fps144.mp4",""
"null","","","html-keyboard-response","299","3480959","0.0-299.0","hxeyc6ya","","<span style=""color:Black; font-size:50px;"">Video 2</span>","null","","","","",""
"null","","","video-keyboard-response","300","3484037","0.0-300.0","hxeyc6ya","","","null","","<span style=""color:Black; font-size:50px;"">Casey","Casey","STIM_SET_6/713858.bmp_pp57_L1_V1_veridical_freeview_isoFalse_fps144.mp4",""
"","","","call-function","301","3484037","0.0-301.0","hxeyc6ya","","","","","","","",""
"881.9300000001676","","","categorize-html","302","3486924","0.0-302.0","hxeyc6ya","","Which video showed <span style=""font-size:30px"">Sandy's</span> attention?","49","","","","","true"
"null","","","html-keyboard-response","303","3487430","0.0-303.0","hxeyc6ya",""," ","null","","","","",""
"","","","call-function","304","3487431","0.0-304.0","hxeyc6ya","","","","","","","",""
"null","","","html-keyboard-response","305","3488932","0.0-305.0","hxeyc6ya","","<span style=""color:Black; font-size:50px;"">Video 1</span>","null","","","","",""
"null","","","video-keyboard-response","306","3491998","0.0-306.0","hxeyc6ya","","","null","","<span style=""color:Black; font-size:50px;"">Casey","Casey","STIM_SET_6/1592189.bmp_pp57_L1_V1_veridical_freeview_isoFalse_fps144.mp4",""
"null","","","html-keyboard-response","307","3493500","0.0-307.0","hxeyc6ya","","<span style=""color:Black; font-size:50px;"">Video 2</span>","null","","","","",""
"null","","","video-keyboard-response","308","3496578","0.0-308.0","hxeyc6ya","","","null","","<span style=""color:Black; font-size:50px;"">Sandy","Sandy","STIM_SET_6/1592189.bmp_pp75_L1_V1_veridical_freeview_isoFalse_fps144.mp4",""
"","","","call-function","309","3496579","0.0-309.0","hxeyc6ya","","","","","","","",""
"620.8100000000559","","","categorize-html","310","3499205","0.0-310.0","hxeyc6ya","","Which video showed <span style=""font-size:30px"">Sandy's</span> attention?","50","","","","","true"
"null","","","html-keyboard-response","311","3499708","0.0-311.0","hxeyc6ya",""," ","null","","","","",""
"","","","call-function","312","3499709","0.0-312.0","hxeyc6ya","","","","","","","",""
"null","","","html-keyboard-response","313","3501215","0.0-313.0","hxeyc6ya","","<span style=""color:Black; font-size:50px;"">Video 1</span>","null","","","","",""
"null","","","video-keyboard-response","314","3504277","0.0-314.0","hxeyc6ya","","","null","","<span style=""color:Black; font-size:50px;"">Sandy","Sandy","STIM_SET_6/150432.bmp_pp75_L1_V1_veridical_freeview_isoFalse_fps144.mp4",""
"null","","","html-keyboard-response","315","3505783","0.0-315.0","hxeyc6ya","","<span style=""color:Black; font-size:50px;"">Video 2</span>","null","","","","",""
"null","","","video-keyboard-response","316","3508887","0.0-316.0","hxeyc6ya","","","null","","<span style=""color:Black; font-size:50px;"">Casey","Casey","STIM_SET_6/150432.bmp_pp57_L1_V1_veridical_freeview_isoFalse_fps144.mp4",""
"","","","call-function","317","3508887","0.0-317.0","hxeyc6ya","","","","","","","",""
"2536.4199999999255","","","categorize-html","318","3513430","0.0-318.0","hxeyc6ya","","Which video showed <span style=""font-size:30px"">Sandy's</span> attention?","49","","","","","true"
"null","","","html-keyboard-response","319","3513934","0.0-319.0","hxeyc6ya",""," ","null","","","","",""
"","","","call-function","320","3513934","0.0-320.0","hxeyc6ya","","","","","","","",""
"null","","","html-keyboard-response","321","3515440","0.0-321.0","hxeyc6ya","","<span style=""color:Black; font-size:50px;"">Video 1</span>","null","","","","",""
"null","","","video-keyboard-response","322","3518549","0.0-322.0","hxeyc6ya","","","null","","<span style=""color:Black; font-size:50px;"">Casey","Casey","STIM_SET_6/1592836.bmp_pp57_L1_V1_veridical_freeview_isoFalse_fps144.mp4",""
"null","","","html-keyboard-response","323","3520054","0.0-323.0","hxeyc6ya","","<span style=""color:Black; font-size:50px;"">Video 2</span>","null","","","","",""
"null","","","video-keyboard-response","324","3523182","0.0-324.0","hxeyc6ya","","","null","","<span style=""color:Black; font-size:50px;"">Sandy","Sandy","STIM_SET_6/1592836.bmp_pp75_L1_V1_veridical_freeview_isoFalse_fps144.mp4",""
"","","","call-function","325","3523183","0.0-325.0","hxeyc6ya","","","","","","","",""
"1008.6549999997951","","","categorize-html","326","3526193","0.0-326.0","hxeyc6ya","","Which video showed <span style=""font-size:30px"">Sandy's</span> attention?","49","","","","","false"
"null","","","html-keyboard-response","327","3526695","0.0-327.0","hxeyc6ya",""," ","null","","","","",""
"","","","call-function","328","3526696","0.0-328.0","hxeyc6ya","","","","","","","",""
"null","","","html-keyboard-response","329","3528197","0.0-329.0","hxeyc6ya","","<span style=""color:Black; font-size:50px;"">Video 1</span>","null","","","","",""
"null","","","video-keyboard-response","330","3531296","0.0-330.0","hxeyc6ya","","","null","","<span style=""color:Black; font-size:50px;"">Sandy","Sandy","STIM_SET_6/1159318.bmp_pp75_L1_V1_veridical_freeview_isoFalse_fps144.mp4",""
"null","","","html-keyboard-response","331","3532800","0.0-331.0","hxeyc6ya","","<span style=""color:Black; font-size:50px;"">Video 2</span>","null","","","","",""
"null","","","video-keyboard-response","332","3535927","0.0-332.0","hxeyc6ya","","","null","","<span style=""color:Black; font-size:50px;"">Casey","Casey","STIM_SET_6/1159318.bmp_pp57_L1_V1_veridical_freeview_isoFalse_fps144.mp4",""
"","","","call-function","333","3535927","0.0-333.0","hxeyc6ya","","","","","","","",""
"736.589999999851","","","categorize-html","334","3538667","0.0-334.0","hxeyc6ya","","Which video showed <span style=""font-size:30px"">Sandy's</span> attention?","50","","","","","false"
"null","","","html-keyboard-response","335","3539171","0.0-335.0","hxeyc6ya",""," ","null","","","","",""
"5294.495000000112","","","instructions","336","3544466","0.0-336.0","hxeyc6ya","[{""page_index"":0,""viewing_time"":3953.375},{""page_index"":1,""viewing_time"":758.5},{""page_index"":2,""viewing_time"":582.5100000002421}]","","","","","","",""
"2025.6699999999255","","","instructions","337","3546492","0.0-337.0","hxeyc6ya","[{""page_index"":0,""viewing_time"":423.40999999968335},{""page_index"":1,""viewing_time"":1036.345000000205},{""page_index"":2,""viewing_time"":565.7999999998137}]","","","","","","",""
"","","","call-function","338","3546493","0.0-338.0","hxeyc6ya","","","","","","","",""
"null","","","html-keyboard-response","339","3547999","0.0-339.0","hxeyc6ya","","<span style=""color:Black; font-size:50px;"">Video 1</span>","null","","","","",""
"null","","","video-keyboard-response","340","3551061","0.0-340.0","hxeyc6ya","","","null","","<span style=""color:Black; font-size:50px;"">Sandy","Sandy","STIM_SET_6/1592047.bmp_pp75_L1_V1_veridical_freeview_isoFalse_fps144.mp4",""
"null","","","html-keyboard-response","341","3552564","0.0-341.0","hxeyc6ya","","<span style=""color:Black; font-size:50px;"">Video 2</span>","null","","","","",""
"null","","","video-keyboard-response","342","3555640","0.0-342.0","hxeyc6ya","","","null","","<span style=""color:Black; font-size:50px;"">Casey","Casey","STIM_SET_6/1592047.bmp_pp57_L1_V1_veridical_freeview_isoFalse_fps144.mp4",""
"","","","call-function","343","3555640","0.0-343.0","hxeyc6ya","","","","","","","",""
"894.8500000000931","","","categorize-html","344","3558538","0.0-344.0","hxeyc6ya","","Which video showed <span style=""font-size:30px"">Sandy's</span> attention?","49","","","","","true"
"null","","","html-keyboard-response","345","3559044","0.0-345.0","hxeyc6ya",""," ","null","","","","",""
"","","","call-function","346","3559045","0.0-346.0","hxeyc6ya","","","","","","","",""
"null","","","html-keyboard-response","347","3560550","0.0-347.0","hxeyc6ya","","<span style=""color:Black; font-size:50px;"">Video 1</span>","null","","","","",""
"null","","","video-keyboard-response","348","3563625","0.0-348.0","hxeyc6ya","","","null","","<span style=""color:Black; font-size:50px;"">Sandy","Sandy","STIM_SET_6/1159408.bmp_pp75_L1_V1_veridical_freeview_isoFalse_fps144.mp4",""
"null","","","html-keyboard-response","349","3565129","0.0-349.0","hxeyc6ya","","<span style=""color:Black; font-size:50px;"">Video 2</span>","null","","","","",""
"null","","","video-keyboard-response","350","3568190","0.0-350.0","hxeyc6ya","","","null","","<span style=""color:Black; font-size:50px;"">Casey","Casey","STIM_SET_6/1159408.bmp_pp57_L1_V1_veridical_freeview_isoFalse_fps144.mp4",""
"","","","call-function","351","3568191","0.0-351.0","hxeyc6ya","","","","","","","",""
"753.2099999999627","","","categorize-html","352","3570947","0.0-352.0","hxeyc6ya","","Which video showed <span style=""font-size:30px"">Sandy's</span> attention?","50","","","","","false"
"null","","","html-keyboard-response","353","3571452","0.0-353.0","hxeyc6ya",""," ","null","","","","",""
"","","","call-function","354","3571453","0.0-354.0","hxeyc6ya","","","","","","","",""
"null","","","html-keyboard-response","355","3572954","0.0-355.0","hxeyc6ya","","<span style=""color:Black; font-size:50px;"">Video 1</span>","null","","","","",""
"null","","","video-keyboard-response","356","3576046","0.0-356.0","hxeyc6ya","","","null","","<span style=""color:Black; font-size:50px;"">Sandy","Sandy","STIM_SET_6/1592657.bmp_pp75_L1_V1_veridical_freeview_isoFalse_fps144.mp4",""
"null","","","html-keyboard-response","357","3577551","0.0-357.0","hxeyc6ya","","<span style=""color:Black; font-size:50px;"">Video 2</span>","null","","","","",""
"null","","","video-keyboard-response","358","3580654","0.0-358.0","hxeyc6ya","","","null","","<span style=""color:Black; font-size:50px;"">Casey","Casey","STIM_SET_6/1592657.bmp_pp57_L1_V1_veridical_freeview_isoFalse_fps144.mp4",""
"","","","call-function","359","3580654","0.0-359.0","hxeyc6ya","","","","","","","",""
"881.2000000001863","","","categorize-html","360","3583538","0.0-360.0","hxeyc6ya","","Which video showed <span style=""font-size:30px"">Sandy's</span> attention?","50","","","","","false"
"null","","","html-keyboard-response","361","3584044","0.0-361.0","hxeyc6ya",""," ","null","","","","",""
"","","","call-function","362","3584044","0.0-362.0","hxeyc6ya","","","","","","","",""
"null","","","html-keyboard-response","363","3585551","0.0-363.0","hxeyc6ya","","<span style=""color:Black; font-size:50px;"">Video 1</span>","null","","","","",""
"null","","","video-keyboard-response","364","3588646","0.0-364.0","hxeyc6ya","","","null","","<span style=""color:Black; font-size:50px;"">Sandy","Sandy","STIM_SET_6/150474.bmp_pp75_L1_V1_veridical_freeview_isoFalse_fps144.mp4",""
"null","","","html-keyboard-response","365","3590148","0.0-365.0","hxeyc6ya","","<span style=""color:Black; font-size:50px;"">Video 2</span>","null","","","","",""
"null","","","video-keyboard-response","366","3593248","0.0-366.0","hxeyc6ya","","","null","","<span style=""color:Black; font-size:50px;"">Casey","Casey","STIM_SET_6/150474.bmp_pp57_L1_V1_veridical_freeview_isoFalse_fps144.mp4",""
"","","","call-function","367","3593248","0.0-367.0","hxeyc6ya","","","","","","","",""
"751.3900000001304","","","categorize-html","368","3596002","0.0-368.0","hxeyc6ya","","Which video showed <span style=""font-size:30px"">Sandy's</span> attention?","50","","","","","false"
"null","","","html-keyboard-response","369","3596508","0.0-369.0","hxeyc6ya",""," ","null","","","","",""
"","","","call-function","370","3596509","0.0-370.0","hxeyc6ya","","","","","","","",""
"null","","","html-keyboard-response","371","3598015","0.0-371.0","hxeyc6ya","","<span style=""color:Black; font-size:50px;"">Video 1</span>","null","","","","",""
"null","","","video-keyboard-response","372","3601126","0.0-372.0","hxeyc6ya","","","null","","<span style=""color:Black; font-size:50px;"">Sandy","Sandy","STIM_SET_6/1159819.bmp_pp75_L1_V1_veridical_freeview_isoFalse_fps144.mp4",""
"null","","","html-keyboard-response","373","3602630","0.0-373.0","hxeyc6ya","","<span style=""color:Black; font-size:50px;"">Video 2</span>","null","","","","",""
"null","","","video-keyboard-response","374","3605749","0.0-374.0","hxeyc6ya","","","null","","<span style=""color:Black; font-size:50px;"">Casey","Casey","STIM_SET_6/1159819.bmp_pp57_L1_V1_veridical_freeview_isoFalse_fps144.mp4",""
"","","","call-function","375","3605749","0.0-375.0","hxeyc6ya","","","","","","","",""
"3146.6450000000186","","","categorize-html","376","3610899","0.0-376.0","hxeyc6ya","","Which video showed <span style=""font-size:30px"">Sandy's</span> attention?","50","","","","","false"
"null","","","html-keyboard-response","377","3611402","0.0-377.0","hxeyc6ya",""," ","null","","","","",""
"","","","call-function","378","3611402","0.0-378.0","hxeyc6ya","","","","","","","",""
"null","","","html-keyboard-response","379","3612904","0.0-379.0","hxeyc6ya","","<span style=""color:Black; font-size:50px;"">Video 1</span>","null","","","","",""
"null","","","video-keyboard-response","380","3615972","0.0-380.0","hxeyc6ya","","","null","","<span style=""color:Black; font-size:50px;"">Sandy","Sandy","STIM_SET_6/1159606.bmp_pp75_L1_V1_veridical_freeview_isoFalse_fps144.mp4",""
"null","","","html-keyboard-response","381","3617478","0.0-381.0","hxeyc6ya","","<span style=""color:Black; font-size:50px;"">Video 2</span>","null","","","","",""
"null","","","video-keyboard-response","382","3620539","0.0-382.0","hxeyc6ya","","","null","","<span style=""color:Black; font-size:50px;"">Casey","Casey","STIM_SET_6/1159606.bmp_pp57_L1_V1_veridical_freeview_isoFalse_fps144.mp4",""
"","","","call-function","383","3620540","0.0-383.0","hxeyc6ya","","","","","","","",""
"996.0400000000373","","","categorize-html","384","3623542","0.0-384.0","hxeyc6ya","","Which video showed <span style=""font-size:30px"">Sandy's</span> attention?","49","","","","","true"
"null","","","html-keyboard-response","385","3624048","0.0-385.0","hxeyc6ya",""," ","null","","","","",""
"","","","call-function","386","3624049","0.0-386.0","hxeyc6ya","","","","","","","",""
"null","","","html-keyboard-response","387","3625555","0.0-387.0","hxeyc6ya","","<span style=""color:Black; font-size:50px;"">Video 1</span>","null","","","","",""
"null","","","video-keyboard-response","388","3628629","0.0-388.0","hxeyc6ya","","","null","","<span style=""color:Black; font-size:50px;"">Casey","Casey","STIM_SET_6/285959.bmp_pp57_L1_V1_veridical_freeview_isoFalse_fps144.mp4",""
"null","","","html-keyboard-response","389","3630132","0.0-389.0","hxeyc6ya","","<span style=""color:Black; font-size:50px;"">Video 2</span>","null","","","","",""
"null","","","video-keyboard-response","390","3633208","0.0-390.0","hxeyc6ya","","","null","","<span style=""color:Black; font-size:50px;"">Sandy","Sandy","STIM_SET_6/285959.bmp_pp75_L1_V1_veridical_freeview_isoFalse_fps144.mp4",""
"","","","call-function","391","3633209","0.0-391.0","hxeyc6ya","","","","","","","",""
"598.7299999999814","","","categorize-html","392","3635812","0.0-392.0","hxeyc6ya","","Which video showed <span style=""font-size:30px"">Sandy's</span> attention?","50","","","","","true"
"null","","","html-keyboard-response","393","3636318","0.0-393.0","hxeyc6ya",""," ","null","","","","",""
"","","","call-function","394","3636318","0.0-394.0","hxeyc6ya","","","","","","","",""
"null","","","html-keyboard-response","395","3637821","0.0-395.0","hxeyc6ya","","<span style=""color:Black; font-size:50px;"">Video 1</span>","null","","","","",""
"null","","","video-keyboard-response","396","3640923","0.0-396.0","hxeyc6ya","","","null","","<span style=""color:Black; font-size:50px;"">Casey","Casey","STIM_SET_6/713769.bmp_pp57_L1_V1_veridical_freeview_isoFalse_fps144.mp4",""
"null","","","html-keyboard-response","397","3642429","0.0-397.0","hxeyc6ya","","<span style=""color:Black; font-size:50px;"">Video 2</span>","null","","","","",""
"null","","","video-keyboard-response","398","3645540","0.0-398.0","hxeyc6ya","","","null","","<span style=""color:Black; font-size:50px;"">Sandy","Sandy","STIM_SET_6/713769.bmp_pp75_L1_V1_veridical_freeview_isoFalse_fps144.mp4",""
"","","","call-function","399","3645541","0.0-399.0","hxeyc6ya","","","","","","","",""
"842.9150000000373","","","categorize-html","400","3648388","0.0-400.0","hxeyc6ya","","Which video showed <span style=""font-size:30px"">Sandy's</span> attention?","50","","","","","true"
"null","","","html-keyboard-response","401","3648890","0.0-401.0","hxeyc6ya",""," ","null","","","","",""
"","","","call-function","402","3648891","0.0-402.0","hxeyc6ya","","","","","","","",""
"null","","","html-keyboard-response","403","3650395","0.0-403.0","hxeyc6ya","","<span style=""color:Black; font-size:50px;"">Video 1</span>","null","","","","",""
"null","","","video-keyboard-response","404","3653487","0.0-404.0","hxeyc6ya","","","null","","<span style=""color:Black; font-size:50px;"">Casey","Casey","STIM_SET_6/1159365.bmp_pp57_L1_V1_veridical_freeview_isoFalse_fps144.mp4",""
"null","","","html-keyboard-response","405","3654989","0.0-405.0","hxeyc6ya","","<span style=""color:Black; font-size:50px;"">Video 2</span>","null","","","","",""
"null","","","video-keyboard-response","406","3658100","0.0-406.0","hxeyc6ya","","","null","","<span style=""color:Black; font-size:50px;"">Sandy","Sandy","STIM_SET_6/1159365.bmp_pp75_L1_V1_veridical_freeview_isoFalse_fps144.mp4",""
"","","","call-function","407","3658100","0.0-407.0","hxeyc6ya","","","","","","","",""
"2371.255000000354","","","categorize-html","408","3662477","0.0-408.0","hxeyc6ya","","Which video showed <span style=""font-size:30px"">Sandy's</span> attention?","50","","","","","true"
"null","","","html-keyboard-response","409","3662984","0.0-409.0","hxeyc6ya",""," ","null","","","","",""
"","","","call-function","410","3662984","0.0-410.0","hxeyc6ya","","","","","","","",""
"null","","","html-keyboard-response","411","3664490","0.0-411.0","hxeyc6ya","","<span style=""color:Black; font-size:50px;"">Video 1</span>","null","","","","",""
"null","","","video-keyboard-response","412","3667592","0.0-412.0","hxeyc6ya","","","null","","<span style=""color:Black; font-size:50px;"">Casey","Casey","STIM_SET_6/1592286.bmp_pp57_L1_V1_veridical_freeview_isoFalse_fps144.mp4",""
"null","","","html-keyboard-response","413","3669094","0.0-413.0","hxeyc6ya","","<span style=""color:Black; font-size:50px;"">Video 2</span>","null","","","","",""
"null","","","video-keyboard-response","414","3672206","0.0-414.0","hxeyc6ya","","","null","","<span style=""color:Black; font-size:50px;"">Sandy","Sandy","STIM_SET_6/1592286.bmp_pp75_L1_V1_veridical_freeview_isoFalse_fps144.mp4",""
"","","","call-function","415","3672206","0.0-415.0","hxeyc6ya","","","","","","","",""
"1105.7349999998696","","","categorize-html","416","3675317","0.0-416.0","hxeyc6ya","","Which video showed <span style=""font-size:30px"">Sandy's</span> attention?","49","","","","","false"
"null","","","html-keyboard-response","417","3675821","0.0-417.0","hxeyc6ya",""," ","null","","","","",""
"220459.0750000002","","","instructions","418","3896281","0.0-418.0","hxeyc6ya","[{""page_index"":0,""viewing_time"":210674.93999999994},{""page_index"":1,""viewing_time"":800.0550000001676},{""page_index"":2,""viewing_time"":8983.944999999832}]","","","","","","",""
"2779.1749999998137","","","instructions","419","3899060","0.0-419.0","hxeyc6ya","[{""page_index"":0,""viewing_time"":633.4550000000745},{""page_index"":1,""viewing_time"":1609.9399999999441},{""page_index"":2,""viewing_time"":535.6499999999069}]","","","","","","",""
"","","","call-function","420","3899061","0.0-420.0","hxeyc6ya","","","","","","","",""
"null","","","html-keyboard-response","421","3900562","0.0-421.0","hxeyc6ya","","<span style=""color:Black; font-size:50px;"">Video 1</span>","null","","","","",""
"null","","","video-keyboard-response","422","3903640","0.0-422.0","hxeyc6ya","","","null","","<span style=""color:Black; font-size:50px;"">Sandy","Sandy","STIM_SET_6/1592568.bmp_pp75_L1_V1_veridical_freeview_isoFalse_fps144.mp4",""
"null","","","html-keyboard-response","423","3905142","0.0-423.0","hxeyc6ya","","<span style=""color:Black; font-size:50px;"">Video 2</span>","null","","","","",""
"null","","","video-keyboard-response","424","3908212","0.0-424.0","hxeyc6ya","","","null","","<span style=""color:Black; font-size:50px;"">Casey","Casey","STIM_SET_6/1592568.bmp_pp57_L1_V1_veridical_freeview_isoFalse_fps144.mp4",""
"","","","call-function","425","3908213","0.0-425.0","hxeyc6ya","","","","","","","",""
"4250.824999999721","","","categorize-html","426","3914469","0.0-426.0","hxeyc6ya","","Which video showed <span style=""font-size:30px"">Sandy's</span> attention?","50","","","","","false"
"null","","","html-keyboard-response","427","3914971","0.0-427.0","hxeyc6ya",""," ","null","","","","",""
"","","","call-function","428","3914972","0.0-428.0","hxeyc6ya","","","","","","","",""
"null","","","html-keyboard-response","429","3916478","0.0-429.0","hxeyc6ya","","<span style=""color:Black; font-size:50px;"">Video 1</span>","null","","","","",""
"null","","","video-keyboard-response","430","3919554","0.0-430.0","hxeyc6ya","","","null","","<span style=""color:Black; font-size:50px;"">Sandy","Sandy","STIM_SET_6/713888.bmp_pp75_L1_V1_veridical_freeview_isoFalse_fps144.mp4",""
"null","","","html-keyboard-response","431","3921059","0.0-431.0","hxeyc6ya","","<span style=""color:Black; font-size:50px;"">Video 2</span>","null","","","","",""
"null","","","video-keyboard-response","432","3924136","0.0-432.0","hxeyc6ya","","","null","","<span style=""color:Black; font-size:50px;"">Casey","Casey","STIM_SET_6/713888.bmp_pp57_L1_V1_veridical_freeview_isoFalse_fps144.mp4",""
"","","","call-function","433","3924137","0.0-433.0","hxeyc6ya","","","","","","","",""
"2087.179999999702","","","categorize-html","434","3928227","0.0-434.0","hxeyc6ya","","Which video showed <span style=""font-size:30px"">Sandy's</span> attention?","50","","","","","false"
"null","","","html-keyboard-response","435","3928732","0.0-435.0","hxeyc6ya",""," ","null","","","","",""
"","","","call-function","436","3928732","0.0-436.0","hxeyc6ya","","","","","","","",""
"null","","","html-keyboard-response","437","3930237","0.0-437.0","hxeyc6ya","","<span style=""color:Black; font-size:50px;"">Video 1</span>","null","","","","",""
"null","","","video-keyboard-response","438","3933339","0.0-438.0","hxeyc6ya","","","null","","<span style=""color:Black; font-size:50px;"">Casey","Casey","STIM_SET_6/713418.bmp_pp57_L1_V1_veridical_freeview_isoFalse_fps144.mp4",""
"null","","","html-keyboard-response","439","3934841","0.0-439.0","hxeyc6ya","","<span style=""color:Black; font-size:50px;"">Video 2</span>","null","","","","",""
"null","","","video-keyboard-response","440","3937942","0.0-440.0","hxeyc6ya","","","null","","<span style=""color:Black; font-size:50px;"">Sandy","Sandy","STIM_SET_6/713418.bmp_pp75_L1_V1_veridical_freeview_isoFalse_fps144.mp4",""
"","","","call-function","441","3937942","0.0-441.0","hxeyc6ya","","","","","","","",""
"666.0200000000186","","","categorize-html","442","3940614","0.0-442.0","hxeyc6ya","","Which video showed <span style=""font-size:30px"">Sandy's</span> attention?","49","","","","","false"
"null","","","html-keyboard-response","443","3941116","0.0-443.0","hxeyc6ya",""," ","null","","","","",""
"","","","call-function","444","3941116","0.0-444.0","hxeyc6ya","","","","","","","",""
"null","","","html-keyboard-response","445","3942622","0.0-445.0","hxeyc6ya","","<span style=""color:Black; font-size:50px;"">Video 1</span>","null","","","","",""
"null","","","video-keyboard-response","446","3945735","0.0-446.0","hxeyc6ya","","","null","","<span style=""color:Black; font-size:50px;"">Casey","Casey","STIM_SET_6/498280.bmp_pp57_L1_V1_veridical_freeview_isoFalse_fps144.mp4",""
"null","","","html-keyboard-response","447","3947240","0.0-447.0","hxeyc6ya","","<span style=""color:Black; font-size:50px;"">Video 2</span>","null","","","","",""
"null","","","video-keyboard-response","448","3950336","0.0-448.0","hxeyc6ya","","","null","","<span style=""color:Black; font-size:50px;"">Sandy","Sandy","STIM_SET_6/498280.bmp_pp75_L1_V1_veridical_freeview_isoFalse_fps144.mp4",""
"","","","call-function","449","3950337","0.0-449.0","hxeyc6ya","","","","","","","",""
"3807.475000000093","","","categorize-html","450","3956150","0.0-450.0","hxeyc6ya","","Which video showed <span style=""font-size:30px"">Sandy's</span> attention?","49","","","","","false"
"null","","","html-keyboard-response","451","3956656","0.0-451.0","hxeyc6ya",""," ","null","","","","",""
"","","","call-function","452","3956657","0.0-452.0","hxeyc6ya","","","","","","","",""
"null","","","html-keyboard-response","453","3958160","0.0-453.0","hxeyc6ya","","<span style=""color:Black; font-size:50px;"">Video 1</span>","null","","","","",""
"null","","","video-keyboard-response","454","3961263","0.0-454.0","hxeyc6ya","","","null","","<span style=""color:Black; font-size:50px;"">Casey","Casey","STIM_SET_6/150273.bmp_pp57_L1_V1_veridical_freeview_isoFalse_fps144.mp4",""
"null","","","html-keyboard-response","455","3962766","0.0-455.0","hxeyc6ya","","<span style=""color:Black; font-size:50px;"">Video 2</span>","null","","","","",""
"null","","","video-keyboard-response","456","3965870","0.0-456.0","hxeyc6ya","","","null","","<span style=""color:Black; font-size:50px;"">Sandy","Sandy","STIM_SET_6/150273.bmp_pp75_L1_V1_veridical_freeview_isoFalse_fps144.mp4",""
"","","","call-function","457","3965870","0.0-457.0","hxeyc6ya","","","","","","","",""
"881.8799999998882","","","categorize-html","458","3968759","0.0-458.0","hxeyc6ya","","Which video showed <span style=""font-size:30px"">Sandy's</span> attention?","50","","","","","true"
"null","","","html-keyboard-response","459","3969265","0.0-459.0","hxeyc6ya",""," ","null","","","","",""
"","","","call-function","460","3969266","0.0-460.0","hxeyc6ya","","","","","","","",""
"null","","","html-keyboard-response","461","3970771","0.0-461.0","hxeyc6ya","","<span style=""color:Black; font-size:50px;"">Video 1</span>","null","","","","",""
"null","","","video-keyboard-response","462","3973842","0.0-462.0","hxeyc6ya","","","null","","<span style=""color:Black; font-size:50px;"">Sandy","Sandy","STIM_SET_6/497950.bmp_pp75_L1_V1_veridical_freeview_isoFalse_fps144.mp4",""
"null","","","html-keyboard-response","463","3975343","0.0-463.0","hxeyc6ya","","<span style=""color:Black; font-size:50px;"">Video 2</span>","null","","","","",""
"null","","","video-keyboard-response","464","3978414","0.0-464.0","hxeyc6ya","","","null","","<span style=""color:Black; font-size:50px;"">Casey","Casey","STIM_SET_6/497950.bmp_pp57_L1_V1_veridical_freeview_isoFalse_fps144.mp4",""
"","","","call-function","465","3978414","0.0-465.0","hxeyc6ya","","","","","","","",""
"810.0750000001863","","","categorize-html","466","3981231","0.0-466.0","hxeyc6ya","","Which video showed <span style=""font-size:30px"">Sandy's</span> attention?","50","","","","","false"
"null","","","html-keyboard-response","467","3981735","0.0-467.0","hxeyc6ya",""," ","null","","","","",""
"","","","call-function","468","3981736","0.0-468.0","hxeyc6ya","","","","","","","",""
"null","","","html-keyboard-response","469","3983239","0.0-469.0","hxeyc6ya","","<span style=""color:Black; font-size:50px;"">Video 1</span>","null","","","","",""
"null","","","video-keyboard-response","470","3986314","0.0-470.0","hxeyc6ya","","","null","","<span style=""color:Black; font-size:50px;"">Casey","Casey","STIM_SET_6/1593047.bmp_pp57_L1_V1_veridical_freeview_isoFalse_fps144.mp4",""
"null","","","html-keyboard-response","471","3987815","0.0-471.0","hxeyc6ya","","<span style=""color:Black; font-size:50px;"">Video 2</span>","null","","","","",""
"null","","","video-keyboard-response","472","3990894","0.0-472.0","hxeyc6ya","","","null","","<span style=""color:Black; font-size:50px;"">Sandy","Sandy","STIM_SET_6/1593047.bmp_pp75_L1_V1_veridical_freeview_isoFalse_fps144.mp4",""
"","","","call-function","473","3990894","0.0-473.0","hxeyc6ya","","","","","","","",""
"873.6699999999255","","","categorize-html","474","3993771","0.0-474.0","hxeyc6ya","","Which video showed <span style=""font-size:30px"">Sandy's</span> attention?","50","","","","","true"
"null","","","html-keyboard-response","475","3994276","0.0-475.0","hxeyc6ya",""," ","null","","","","",""
"","","","call-function","476","3994276","0.0-476.0","hxeyc6ya","","","","","","","",""
"null","","","html-keyboard-response","477","3995778","0.0-477.0","hxeyc6ya","","<span style=""color:Black; font-size:50px;"">Video 1</span>","null","","","","",""
"null","","","video-keyboard-response","478","3998870","0.0-478.0","hxeyc6ya","","","null","","<span style=""color:Black; font-size:50px;"">Sandy","Sandy","STIM_SET_6/1159973.bmp_pp75_L1_V1_veridical_freeview_isoFalse_fps144.mp4",""
"null","","","html-keyboard-response","479","4000373","0.0-479.0","hxeyc6ya","","<span style=""color:Black; font-size:50px;"">Video 2</span>","null","","","","",""
"null","","","video-keyboard-response","480","4003474","0.0-480.0","hxeyc6ya","","","null","","<span style=""color:Black; font-size:50px;"">Casey","Casey","STIM_SET_6/1159973.bmp_pp57_L1_V1_veridical_freeview_isoFalse_fps144.mp4",""
"","","","call-function","481","4003474","0.0-481.0","hxeyc6ya","","","","","","","",""
"573.910000000149","","","categorize-html","482","4006054","0.0-482.0","hxeyc6ya","","Which video showed <span style=""font-size:30px"">Sandy's</span> attention?","49","","","","","true"
"null","","","html-keyboard-response","483","4006560","0.0-483.0","hxeyc6ya",""," ","null","","","","",""
"","","","call-function","484","4006560","0.0-484.0","hxeyc6ya","","","","","","","",""
"null","","","html-keyboard-response","485","4008064","0.0-485.0","hxeyc6ya","","<span style=""color:Black; font-size:50px;"">Video 1</span>","null","","","","",""
"null","","","video-keyboard-response","486","4011167","0.0-486.0","hxeyc6ya","","","null","","<span style=""color:Black; font-size:50px;"">Casey","Casey","STIM_SET_6/497974.bmp_pp57_L1_V1_veridical_freeview_isoFalse_fps144.mp4",""
"null","","","html-keyboard-response","487","4012674","0.0-487.0","hxeyc6ya","","<span style=""color:Black; font-size:50px;"">Video 2</span>","null","","","","",""
"null","","","video-keyboard-response","488","4015785","0.0-488.0","hxeyc6ya","","","null","","<span style=""color:Black; font-size:50px;"">Sandy","Sandy","STIM_SET_6/497974.bmp_pp75_L1_V1_veridical_freeview_isoFalse_fps144.mp4",""
"","","","call-function","489","4015785","0.0-489.0","hxeyc6ya","","","","","","","",""
"694.6100000003353","","","categorize-html","490","4018484","0.0-490.0","hxeyc6ya","","Which video showed <span style=""font-size:30px"">Sandy's</span> attention?","50","","","","","true"
"null","","","html-keyboard-response","491","4018987","0.0-491.0","hxeyc6ya",""," ","null","","","","",""
"","","","call-function","492","4018987","0.0-492.0","hxeyc6ya","","","","","","","",""
"null","","","html-keyboard-response","493","4020490","0.0-493.0","hxeyc6ya","","<span style=""color:Black; font-size:50px;"">Video 1</span>","null","","","","",""
"null","","","video-keyboard-response","494","4023587","0.0-494.0","hxeyc6ya","","","null","","<span style=""color:Black; font-size:50px;"">Sandy","Sandy","STIM_SET_6/1592874.bmp_pp75_L1_V1_veridical_freeview_isoFalse_fps144.mp4",""
"null","","","html-keyboard-response","495","4025090","0.0-495.0","hxeyc6ya","","<span style=""color:Black; font-size:50px;"">Video 2</span>","null","","","","",""
"null","","","video-keyboard-response","496","4028194","0.0-496.0","hxeyc6ya","","","null","","<span style=""color:Black; font-size:50px;"">Casey","Casey","STIM_SET_6/1592874.bmp_pp57_L1_V1_veridical_freeview_isoFalse_fps144.mp4",""
"","","","call-function","497","4028194","0.0-497.0","hxeyc6ya","","","","","","","",""
"3093.8449999997392","","","categorize-html","498","4033294","0.0-498.0","hxeyc6ya","","Which video showed <span style=""font-size:30px"">Sandy's</span> attention?","49","","","","","true"
"null","","","html-keyboard-response","499","4033798","0.0-499.0","hxeyc6ya",""," ","null","","","","",""
"9404.600000000093","","","instructions","500","4043203","0.0-500.0","hxeyc6ya","[{""page_index"":0,""viewing_time"":2536.3600000003353},{""page_index"":1,""viewing_time"":6426.0099999997765},{""page_index"":2,""viewing_time"":442.1150000002235}]","","","","","","",""
"1649.5800000000745","","","instructions","501","4044853","0.0-501.0","hxeyc6ya","[{""page_index"":0,""viewing_time"":393.4199999999255},{""page_index"":1,""viewing_time"":521.2900000000373},{""page_index"":2,""viewing_time"":734.75}]","","","","","","",""
"","","","call-function","502","4044853","0.0-502.0","hxeyc6ya","","","","","","","",""
"null","","","html-keyboard-response","503","4046360","0.0-503.0","hxeyc6ya","","<span style=""color:Black; font-size:50px;"">Video 1</span>","null","","","","",""
"null","","","video-keyboard-response","504","4049422","0.0-504.0","hxeyc6ya","","","null","","<span style=""color:Black; font-size:50px;"">Casey","Casey","STIM_SET_6/713330.bmp_pp57_L1_V1_veridical_freeview_isoFalse_fps144.mp4",""
"null","","","html-keyboard-response","505","4050929","0.0-505.0","hxeyc6ya","","<span style=""color:Black; font-size:50px;"">Video 2</span>","null","","","","",""
"null","","","video-keyboard-response","506","4054000","0.0-506.0","hxeyc6ya","","","null","","<span style=""color:Black; font-size:50px;"">Sandy","Sandy","STIM_SET_6/713330.bmp_pp75_L1_V1_veridical_freeview_isoFalse_fps144.mp4",""
"","","","call-function","507","4054000","0.0-507.0","hxeyc6ya","","","","","","","",""
"1407.8500000000931","","","categorize-html","508","4057415","0.0-508.0","hxeyc6ya","","Which video showed <span style=""font-size:30px"">Sandy's</span> attention?","49","","","","","false"
"null","","","html-keyboard-response","509","4057917","0.0-509.0","hxeyc6ya",""," ","null","","","","",""
"","","","call-function","510","4057918","0.0-510.0","hxeyc6ya","","","","","","","",""
"null","","","html-keyboard-response","511","4059421","0.0-511.0","hxeyc6ya","","<span style=""color:Black; font-size:50px;"">Video 1</span>","null","","","","",""
"null","","","video-keyboard-response","512","4062497","0.0-512.0","hxeyc6ya","","","null","","<span style=""color:Black; font-size:50px;"">Sandy","Sandy","STIM_SET_6/1159768.bmp_pp75_L1_V1_veridical_freeview_isoFalse_fps144.mp4",""
"null","","","html-keyboard-response","513","4064004","0.0-513.0","hxeyc6ya","","<span style=""color:Black; font-size:50px;"">Video 2</span>","null","","","","",""
"null","","","video-keyboard-response","514","4067081","0.0-514.0","hxeyc6ya","","","null","","<span style=""color:Black; font-size:50px;"">Casey","Casey","STIM_SET_6/1159768.bmp_pp57_L1_V1_veridical_freeview_isoFalse_fps144.mp4",""
"","","","call-function","515","4067082","0.0-515.0","hxeyc6ya","","","","","","","",""
"1934.2999999998137","","","categorize-html","516","4071020","0.0-516.0","hxeyc6ya","","Which video showed <span style=""font-size:30px"">Sandy's</span> attention?","50","","","","","false"
"null","","","html-keyboard-response","517","4071523","0.0-517.0","hxeyc6ya",""," ","null","","","","",""
"","","","call-function","518","4071523","0.0-518.0","hxeyc6ya","","","","","","","",""
"null","","","html-keyboard-response","519","4073029","0.0-519.0","hxeyc6ya","","<span style=""color:Black; font-size:50px;"">Video 1</span>","null","","","","",""
"null","","","video-keyboard-response","520","4076129","0.0-520.0","hxeyc6ya","","","null","","<span style=""color:Black; font-size:50px;"">Sandy","Sandy","STIM_SET_6/1159749.bmp_pp75_L1_V1_veridical_freeview_isoFalse_fps144.mp4",""
"null","","","html-keyboard-response","521","4077632","0.0-521.0","hxeyc6ya","","<span style=""color:Black; font-size:50px;"">Video 2</span>","null","","","","",""
"null","","","video-keyboard-response","522","4080726","0.0-522.0","hxeyc6ya","","","null","","<span style=""color:Black; font-size:50px;"">Casey","Casey","STIM_SET_6/1159749.bmp_pp57_L1_V1_veridical_freeview_isoFalse_fps144.mp4",""
"","","","call-function","523","4080726","0.0-523.0","hxeyc6ya","","","","","","","",""
"514.1049999999814","","","categorize-html","524","4083243","0.0-524.0","hxeyc6ya","","Which video showed <span style=""font-size:30px"">Sandy's</span> attention?","49","","","","","true"
"null","","","html-keyboard-response","525","4083750","0.0-525.0","hxeyc6ya",""," ","null","","","","",""
"","","","call-function","526","4083750","0.0-526.0","hxeyc6ya","","","","","","","",""
"null","","","html-keyboard-response","527","4085256","0.0-527.0","hxeyc6ya","","<span style=""color:Black; font-size:50px;"">Video 1</span>","null","","","","",""
"null","","","video-keyboard-response","528","4088353","0.0-528.0","hxeyc6ya","","","null","","<span style=""color:Black; font-size:50px;"">Sandy","Sandy","STIM_SET_6/1592017.bmp_pp75_L1_V1_veridical_freeview_isoFalse_fps144.mp4",""
"null","","","html-keyboard-response","529","4089858","0.0-529.0","hxeyc6ya","","<span style=""color:Black; font-size:50px;"">Video 2</span>","null","","","","",""
"null","","","video-keyboard-response","530","4092964","0.0-530.0","hxeyc6ya","","","null","","<span style=""color:Black; font-size:50px;"">Casey","Casey","STIM_SET_6/1592017.bmp_pp57_L1_V1_veridical_freeview_isoFalse_fps144.mp4",""
"","","","call-function","531","4092965","0.0-531.0","hxeyc6ya","","","","","","","",""
"451.29999999981374","","","categorize-html","532","4095420","0.0-532.0","hxeyc6ya","","Which video showed <span style=""font-size:30px"">Sandy's</span> attention?","50","","","","","false"
"null","","","html-keyboard-response","533","4095923","0.0-533.0","hxeyc6ya",""," ","null","","","","",""
"","","","call-function","534","4095924","0.0-534.0","hxeyc6ya","","","","","","","",""
"null","","","html-keyboard-response","535","4097427","0.0-535.0","hxeyc6ya","","<span style=""color:Black; font-size:50px;"">Video 1</span>","null","","","","",""
"null","","","video-keyboard-response","536","4100537","0.0-536.0","hxeyc6ya","","","null","","<span style=""color:Black; font-size:50px;"">Sandy","Sandy","STIM_SET_6/1592501.bmp_pp75_L1_V1_veridical_freeview_isoFalse_fps144.mp4",""
"null","","","html-keyboard-response","537","4102038","0.0-537.0","hxeyc6ya","","<span style=""color:Black; font-size:50px;"">Video 2</span>","null","","","","",""
"null","","","video-keyboard-response","538","4105140","0.0-538.0","hxeyc6ya","","","null","","<span style=""color:Black; font-size:50px;"">Casey","Casey","STIM_SET_6/1592501.bmp_pp57_L1_V1_veridical_freeview_isoFalse_fps144.mp4",""
"","","","call-function","539","4105141","0.0-539.0","hxeyc6ya","","","","","","","",""
"811.2050000000745","","","categorize-html","540","4107954","0.0-540.0","hxeyc6ya","","Which video showed <span style=""font-size:30px"">Sandy's</span> attention?","50","","","","","false"
"null","","","html-keyboard-response","541","4108461","0.0-541.0","hxeyc6ya",""," ","null","","","","",""
"","","","call-function","542","4108461","0.0-542.0","hxeyc6ya","","","","","","","",""
"null","","","html-keyboard-response","543","4109963","0.0-543.0","hxeyc6ya","","<span style=""color:Black; font-size:50px;"">Video 1</span>","null","","","","",""
"null","","","video-keyboard-response","544","4113037","0.0-544.0","hxeyc6ya","","","null","","<span style=""color:Black; font-size:50px;"">Casey","Casey","STIM_SET_6/713788.bmp_pp57_L1_V1_veridical_freeview_isoFalse_fps144.mp4",""
"null","","","html-keyboard-response","545","4114542","0.0-545.0","hxeyc6ya","","<span style=""color:Black; font-size:50px;"">Video 2</span>","null","","","","",""
"null","","","video-keyboard-response","546","4117618","0.0-546.0","hxeyc6ya","","","null","","<span style=""color:Black; font-size:50px;"">Sandy","Sandy","STIM_SET_6/713788.bmp_pp75_L1_V1_veridical_freeview_isoFalse_fps144.mp4",""
"","","","call-function","547","4117618","0.0-547.0","hxeyc6ya","","","","","","","",""
"366.29000000003725","","","categorize-html","548","4119987","0.0-548.0","hxeyc6ya","","Which video showed <span style=""font-size:30px"">Sandy's</span> attention?","49","","","","","false"
"null","","","html-keyboard-response","549","4120493","0.0-549.0","hxeyc6ya",""," ","null","","","","",""
"","","","call-function","550","4120493","0.0-550.0","hxeyc6ya","","","","","","","",""
"null","","","html-keyboard-response","551","4121995","0.0-551.0","hxeyc6ya","","<span style=""color:Black; font-size:50px;"">Video 1</span>","null","","","","",""
"null","","","video-keyboard-response","552","4125095","0.0-552.0","hxeyc6ya","","","null","","<span style=""color:Black; font-size:50px;"">Sandy","Sandy","STIM_SET_6/1160189.bmp_pp75_L1_V1_veridical_freeview_isoFalse_fps144.mp4",""
"null","","","html-keyboard-response","553","4126599","0.0-553.0","hxeyc6ya","","<span style=""color:Black; font-size:50px;"">Video 2</span>","null","","","","",""
"null","","","video-keyboard-response","554","4129677","0.0-554.0","hxeyc6ya","","","null","","<span style=""color:Black; font-size:50px;"">Casey","Casey","STIM_SET_6/1160189.bmp_pp57_L1_V1_veridical_freeview_isoFalse_fps144.mp4",""
"","","","call-function","555","4129678","0.0-555.0","hxeyc6ya","","","","","","","",""
"938.4950000001118","","","categorize-html","556","4132620","0.0-556.0","hxeyc6ya","","Which video showed <span style=""font-size:30px"">Sandy's</span> attention?","49","","","","","true"
"null","","","html-keyboard-response","557","4133122","0.0-557.0","hxeyc6ya",""," ","null","","","","",""
"","","","call-function","558","4133123","0.0-558.0","hxeyc6ya","","","","","","","",""
"null","","","html-keyboard-response","559","4134624","0.0-559.0","hxeyc6ya","","<span style=""color:Black; font-size:50px;"">Video 1</span>","null","","","","",""
"null","","","video-keyboard-response","560","4137703","0.0-560.0","hxeyc6ya","","","null","","<span style=""color:Black; font-size:50px;"">Casey","Casey","STIM_SET_6/1592079.bmp_pp57_L1_V1_veridical_freeview_isoFalse_fps144.mp4",""
"null","","","html-keyboard-response","561","4139207","0.0-561.0","hxeyc6ya","","<span style=""color:Black; font-size:50px;"">Video 2</span>","null","","","","",""
"null","","","video-keyboard-response","562","4142299","0.0-562.0","hxeyc6ya","","","null","","<span style=""color:Black; font-size:50px;"">Sandy","Sandy","STIM_SET_6/1592079.bmp_pp75_L1_V1_veridical_freeview_isoFalse_fps144.mp4",""
"","","","call-function","563","4142300","0.0-563.0","hxeyc6ya","","","","","","","",""
"2948.625","","","categorize-html","564","4147251","0.0-564.0","hxeyc6ya","","Which video showed <span style=""font-size:30px"">Sandy's</span> attention?","50","","","","","true"
"null","","","html-keyboard-response","565","4147757","0.0-565.0","hxeyc6ya",""," ","null","","","","",""
"","","","call-function","566","4147757","0.0-566.0","hxeyc6ya","","","","","","","",""
"null","","","html-keyboard-response","567","4149259","0.0-567.0","hxeyc6ya","","<span style=""color:Black; font-size:50px;"">Video 1</span>","null","","","","",""
"null","","","video-keyboard-response","568","4152354","0.0-568.0","hxeyc6ya","","","null","","<span style=""color:Black; font-size:50px;"">Sandy","Sandy","STIM_SET_6/285992.bmp_pp75_L1_V1_veridical_freeview_isoFalse_fps144.mp4",""
"null","","","html-keyboard-response","569","4153857","0.0-569.0","hxeyc6ya","","<span style=""color:Black; font-size:50px;"">Video 2</span>","null","","","","",""
"null","","","video-keyboard-response","570","4156959","0.0-570.0","hxeyc6ya","","","null","","<span style=""color:Black; font-size:50px;"">Casey","Casey","STIM_SET_6/285992.bmp_pp57_L1_V1_veridical_freeview_isoFalse_fps144.mp4",""
"","","","call-function","571","4156959","0.0-571.0","hxeyc6ya","","","","","","","",""
"4504.944999999832","","","categorize-html","572","4163469","0.0-572.0","hxeyc6ya","","Which video showed <span style=""font-size:30px"">Sandy's</span> attention?","49","","","","","true"
"null","","","html-keyboard-response","573","4163973","0.0-573.0","hxeyc6ya",""," ","null","","","","",""
"","","","call-function","574","4163973","0.0-574.0","hxeyc6ya","","","","","","","",""
"null","","","html-keyboard-response","575","4165476","0.0-575.0","hxeyc6ya","","<span style=""color:Black; font-size:50px;"">Video 1</span>","null","","","","",""
"null","","","video-keyboard-response","576","4168573","0.0-576.0","hxeyc6ya","","","null","","<span style=""color:Black; font-size:50px;"">Sandy","Sandy","STIM_SET_6/150303.bmp_pp75_L1_V1_veridical_freeview_isoFalse_fps144.mp4",""
"null","","","html-keyboard-response","577","4170077","0.0-577.0","hxeyc6ya","","<span style=""color:Black; font-size:50px;"">Video 2</span>","null","","","","",""
"null","","","video-keyboard-response","578","4173174","0.0-578.0","hxeyc6ya","","","null","","<span style=""color:Black; font-size:50px;"">Casey","Casey","STIM_SET_6/150303.bmp_pp57_L1_V1_veridical_freeview_isoFalse_fps144.mp4",""
"","","","call-function","579","4173174","0.0-579.0","hxeyc6ya","","","","","","","",""
"2081.7650000001304","","","categorize-html","580","4177263","0.0-580.0","hxeyc6ya","","Which video showed <span style=""font-size:30px"">Sandy's</span> attention?","49","","","","","true"
"null","","","html-keyboard-response","581","4177766","0.0-581.0","hxeyc6ya",""," ","null","","","","",""
"3061.274999999907","","","instructions","582","4180828","0.0-582.0","hxeyc6ya","[{""page_index"":0,""viewing_time"":3061.0849999999627}]","","","","","","",""
"2062.489999999758","","","instructions","583","4182891","0.0-583.0","hxeyc6ya","[{""page_index"":0,""viewing_time"":2062.3799999998882}]","","","","","","",""
"105439.88500000024","{""Q0"":""The experience was mostly fine, but from a technical aspect it seemed as though there were a few (probably less than five) videos where the spotlight glitched and several appeared simultaneously on the screen for a split second. It made it really hard to follow those videos.""}","","survey-text","584","4288337","0.0-584.0","hxeyc6ya","","","","","","","",""
"101725.16000000015","{""Q0"":""I found the easiest ones to be the ones where there were central points that Sandy kept coming back to. I also tried not to choose videos where thee was no visible or recognizable pattern because I figured that wouldn't be Sandy even if I couldn't consistently figure out her attention.""}","","survey-text","585","4390066","0.0-585.0","hxeyc6ya","","","","","","","",""
"58694.985000000335","{""Q0"":""The videos with the faces and large background scenery.""}","","survey-text","586","4448766","0.0-586.0","hxeyc6ya","","","","","","","",""
"1126.7800000002608","","","instructions","587","4449894","0.0-587.0","hxeyc6ya","[{""page_index"":0,""viewing_time"":1126.570000000298}]","","","","","","",""
"233402.71499999985","{""Experimenter_end"":[""Printed ID# hxeyc6ya on consent form"",""Given subject SONA credit or payment"",""Given the subject debrief form""]}","[0]","survey-multi-select","588","4683299","0.0-588.0","hxeyc6ya","","","","","","","",""
