"rt","responses","question_order","trial_type","trial_index","time_elapsed","internal_node_id","ID","view_history","stimulus","key_press","value","agent","condition","image","correct"
"911904.51","{""Experimenter"":[""Confirmed subject's identity (ID card)"",""Confirmed normal or corrected-to-normal vision"",""Obtained consent (signature and date)""]}","[0]","survey-multi-select","0","911912","0.0-0.0","kparyk2c","","","","","","","",""
"55491.27500000002","","","instructions","1","967405","0.0-1.0","kparyk2c","[{""page_index"":0,""viewing_time"":55491.119999999995}]","","","","","","",""
"19719.015000000014","","","instructions","2","987125","0.0-2.0","kparyk2c","[{""page_index"":0,""viewing_time"":5128.640000000014},{""page_index"":1,""viewing_time"":8913.119999999995},{""page_index"":2,""viewing_time"":5677.130000000005}]","","","","","","",""
"5711.459999999963","","","instructions","3","992837","0.0-3.0","kparyk2c","[{""page_index"":0,""viewing_time"":5711.344999999972}]","","","","","","",""
"null","","","video-keyboard-response","4","995927","0.0-4.0","kparyk2c","","","null","","","","",""
"57864.18000000017","","","instructions","5","1053792","0.0-5.0","kparyk2c","[{""page_index"":0,""viewing_time"":2951.7350000001024},{""page_index"":1,""viewing_time"":3619.2099999999627},{""page_index"":2,""viewing_time"":1068.9599999999627},{""page_index"":3,""viewing_time"":16949.31500000006},{""page_index"":4,""viewing_time"":9828.949999999953},{""page_index"":5,""viewing_time"":8044.619999999995},{""page_index"":6,""viewing_time"":12902.23999999999},{""page_index"":7,""viewing_time"":2498.9799999999814}]","","","","","","",""
"5671.620000000112","","","instructions","6","1059465","0.0-6.0","kparyk2c","[{""page_index"":0,""viewing_time"":5670.929999999935}]","","","","","","",""
"1821.2299999999814","","","instructions","7","1061287","0.0-7.0","kparyk2c","[{""page_index"":0,""viewing_time"":1821.125}]","","","","","","",""
"","","","call-function","8","1061288","0.0-8.0","kparyk2c","","","","","","","",""
"null","","","html-keyboard-response","9","1062789","0.0-9.0","kparyk2c","","<span style=""color:Black; font-size:50px;"">Video 1</span>","null","","","","",""
"null","","","video-keyboard-response","10","1067313","0.0-10.0","kparyk2c","","","null","","<span style=""color:Black; font-size:50px;"">Sandy","Sandy","STIM_SET_7/498280.bmp_pp81_L1_V1_veridical_freeview_isoFalse_fps144.mp4",""
"null","","","html-keyboard-response","11","1068819","0.0-11.0","kparyk2c","","<span style=""color:Black; font-size:50px;"">Video 2</span>","null","","","","",""
"null","","","video-keyboard-response","12","1071922","0.0-12.0","kparyk2c","","","null","","<span style=""color:Black; font-size:50px;"">Casey","Casey","STIM_SET_7/498280.bmp_pp71_L1_V1_veridical_freeview_isoFalse_fps144.mp4",""
"","","","call-function","13","1071922","0.0-13.0","kparyk2c","","","","","","","",""
"1601.6499999999069","","","categorize-html","14","1075527","0.0-14.0","kparyk2c","","Which video showed <span style=""font-size:30px"">Sandy's</span> attention?","49","","","","","true"
"null","","","html-keyboard-response","15","1076034","0.0-15.0","kparyk2c",""," ","null","","","","",""
"","","","call-function","16","1076034","0.0-16.0","kparyk2c","","","","","","","",""
"null","","","html-keyboard-response","17","1077539","0.0-17.0","kparyk2c","","<span style=""color:Black; font-size:50px;"">Video 1</span>","null","","","","",""
"null","","","video-keyboard-response","18","1080620","0.0-18.0","kparyk2c","","","null","","<span style=""color:Black; font-size:50px;"">Sandy","Sandy","STIM_SET_7/498175.bmp_pp81_L1_V1_veridical_freeview_isoFalse_fps144.mp4",""
"null","","","html-keyboard-response","19","1082122","0.0-19.0","kparyk2c","","<span style=""color:Black; font-size:50px;"">Video 2</span>","null","","","","",""
"null","","","video-keyboard-response","20","1085204","0.0-20.0","kparyk2c","","","null","","<span style=""color:Black; font-size:50px;"">Casey","Casey","STIM_SET_7/498175.bmp_pp71_L1_V1_veridical_freeview_isoFalse_fps144.mp4",""
"","","","call-function","21","1085205","0.0-21.0","kparyk2c","","","","","","","",""
"4245.104999999981","","","categorize-html","22","1091454","0.0-22.0","kparyk2c","","Which video showed <span style=""font-size:30px"">Sandy's</span> attention?","49","","","","","true"
"null","","","html-keyboard-response","23","1091955","0.0-23.0","kparyk2c",""," ","null","","","","",""
"","","","call-function","24","1091956","0.0-24.0","kparyk2c","","","","","","","",""
"null","","","html-keyboard-response","25","1093457","0.0-25.0","kparyk2c","","<span style=""color:Black; font-size:50px;"">Video 1</span>","null","","","","",""
"null","","","video-keyboard-response","26","1096615","0.0-26.0","kparyk2c","","","null","","<span style=""color:Black; font-size:50px;"">Casey","Casey","STIM_SET_7/1591781.bmp_pp71_L1_V1_veridical_freeview_isoFalse_fps144.mp4",""
"null","","","html-keyboard-response","27","1098117","0.0-27.0","kparyk2c","","<span style=""color:Black; font-size:50px;"">Video 2</span>","null","","","","",""
"null","","","video-keyboard-response","28","1101241","0.0-28.0","kparyk2c","","","null","","<span style=""color:Black; font-size:50px;"">Sandy","Sandy","STIM_SET_7/1591781.bmp_pp81_L1_V1_veridical_freeview_isoFalse_fps144.mp4",""
"","","","call-function","29","1101241","0.0-29.0","kparyk2c","","","","","","","",""
"2105.75","","","categorize-html","30","1105351","0.0-30.0","kparyk2c","","Which video showed <span style=""font-size:30px"">Sandy's</span> attention?","50","","","","","true"
"null","","","html-keyboard-response","31","1105853","0.0-31.0","kparyk2c",""," ","null","","","","",""
"","","","call-function","32","1105853","0.0-32.0","kparyk2c","","","","","","","",""
"null","","","html-keyboard-response","33","1107355","0.0-33.0","kparyk2c","","<span style=""color:Black; font-size:50px;"">Video 1</span>","null","","","","",""
"null","","","video-keyboard-response","34","1110478","0.0-34.0","kparyk2c","","","null","","<span style=""color:Black; font-size:50px;"">Sandy","Sandy","STIM_SET_7/713858.bmp_pp81_L1_V1_veridical_freeview_isoFalse_fps144.mp4",""
"null","","","html-keyboard-response","35","1111984","0.0-35.0","kparyk2c","","<span style=""color:Black; font-size:50px;"">Video 2</span>","null","","","","",""
"null","","","video-keyboard-response","36","1115095","0.0-36.0","kparyk2c","","","null","","<span style=""color:Black; font-size:50px;"">Casey","Casey","STIM_SET_7/713858.bmp_pp71_L1_V1_veridical_freeview_isoFalse_fps144.mp4",""
"","","","call-function","37","1115095","0.0-37.0","kparyk2c","","","","","","","",""
"515.4849999998696","","","categorize-html","38","1117616","0.0-38.0","kparyk2c","","Which video showed <span style=""font-size:30px"">Sandy's</span> attention?","49","","","","","true"
"null","","","html-keyboard-response","39","1118120","0.0-39.0","kparyk2c",""," ","null","","","","",""
"","","","call-function","40","1118121","0.0-40.0","kparyk2c","","","","","","","",""
"null","","","html-keyboard-response","41","1119622","0.0-41.0","kparyk2c","","<span style=""color:Black; font-size:50px;"">Video 1</span>","null","","","","",""
"null","","","video-keyboard-response","42","1122737","0.0-42.0","kparyk2c","","","null","","<span style=""color:Black; font-size:50px;"">Sandy","Sandy","STIM_SET_7/1592189.bmp_pp81_L1_V1_veridical_freeview_isoFalse_fps144.mp4",""
"null","","","html-keyboard-response","43","1124240","0.0-43.0","kparyk2c","","<span style=""color:Black; font-size:50px;"">Video 2</span>","null","","","","",""
"null","","","video-keyboard-response","44","1127355","0.0-44.0","kparyk2c","","","null","","<span style=""color:Black; font-size:50px;"">Casey","Casey","STIM_SET_7/1592189.bmp_pp71_L1_V1_veridical_freeview_isoFalse_fps144.mp4",""
"","","","call-function","45","1127356","0.0-45.0","kparyk2c","","","","","","","",""
"639.5550000001676","","","categorize-html","46","1129997","0.0-46.0","kparyk2c","","Which video showed <span style=""font-size:30px"">Sandy's</span> attention?","50","","","","","false"
"null","","","html-keyboard-response","47","1130500","0.0-47.0","kparyk2c",""," ","null","","","","",""
"","","","call-function","48","1130501","0.0-48.0","kparyk2c","","","","","","","",""
"null","","","html-keyboard-response","49","1132003","0.0-49.0","kparyk2c","","<span style=""color:Black; font-size:50px;"">Video 1</span>","null","","","","",""
"null","","","video-keyboard-response","50","1135085","0.0-50.0","kparyk2c","","","null","","<span style=""color:Black; font-size:50px;"">Casey","Casey","STIM_SET_7/1592657.bmp_pp71_L1_V1_veridical_freeview_isoFalse_fps144.mp4",""
"null","","","html-keyboard-response","51","1136590","0.0-51.0","kparyk2c","","<span style=""color:Black; font-size:50px;"">Video 2</span>","null","","","","",""
"null","","","video-keyboard-response","52","1139683","0.0-52.0","kparyk2c","","","null","","<span style=""color:Black; font-size:50px;"">Sandy","Sandy","STIM_SET_7/1592657.bmp_pp81_L1_V1_veridical_freeview_isoFalse_fps144.mp4",""
"","","","call-function","53","1139684","0.0-53.0","kparyk2c","","","","","","","",""
"367.2600000000093","","","categorize-html","54","1142055","0.0-54.0","kparyk2c","","Which video showed <span style=""font-size:30px"">Sandy's</span> attention?","50","","","","","true"
"null","","","html-keyboard-response","55","1142557","0.0-55.0","kparyk2c",""," ","null","","","","",""
"","","","call-function","56","1142558","0.0-56.0","kparyk2c","","","","","","","",""
"null","","","html-keyboard-response","57","1144060","0.0-57.0","kparyk2c","","<span style=""color:Black; font-size:50px;"">Video 1</span>","null","","","","",""
"null","","","video-keyboard-response","58","1147150","0.0-58.0","kparyk2c","","","null","","<span style=""color:Black; font-size:50px;"">Sandy","Sandy","STIM_SET_7/1592857.bmp_pp81_L1_V1_veridical_freeview_isoFalse_fps144.mp4",""
"null","","","html-keyboard-response","59","1148656","0.0-59.0","kparyk2c","","<span style=""color:Black; font-size:50px;"">Video 2</span>","null","","","","",""
"null","","","video-keyboard-response","60","1151727","0.0-60.0","kparyk2c","","","null","","<span style=""color:Black; font-size:50px;"">Casey","Casey","STIM_SET_7/1592857.bmp_pp71_L1_V1_veridical_freeview_isoFalse_fps144.mp4",""
"","","","call-function","61","1151728","0.0-61.0","kparyk2c","","","","","","","",""
"1427.1949999998324","","","categorize-html","62","1155158","0.0-62.0","kparyk2c","","Which video showed <span style=""font-size:30px"">Sandy's</span> attention?","49","","","","","true"
"null","","","html-keyboard-response","63","1155663","0.0-63.0","kparyk2c",""," ","null","","","","",""
"","","","call-function","64","1155663","0.0-64.0","kparyk2c","","","","","","","",""
"null","","","html-keyboard-response","65","1157169","0.0-65.0","kparyk2c","","<span style=""color:Black; font-size:50px;"">Video 1</span>","null","","","","",""
"null","","","video-keyboard-response","66","1160301","0.0-66.0","kparyk2c","","","null","","<span style=""color:Black; font-size:50px;"">Casey","Casey","STIM_SET_7/1159819.bmp_pp71_L1_V1_veridical_freeview_isoFalse_fps144.mp4",""
"null","","","html-keyboard-response","67","1161808","0.0-67.0","kparyk2c","","<span style=""color:Black; font-size:50px;"">Video 2</span>","null","","","","",""
"null","","","video-keyboard-response","68","1164953","0.0-68.0","kparyk2c","","","null","","<span style=""color:Black; font-size:50px;"">Sandy","Sandy","STIM_SET_7/1159819.bmp_pp81_L1_V1_veridical_freeview_isoFalse_fps144.mp4",""
"","","","call-function","69","1164954","0.0-69.0","kparyk2c","","","","","","","",""
"465.14999999990687","","","categorize-html","70","1167424","0.0-70.0","kparyk2c","","Which video showed <span style=""font-size:30px"">Sandy's</span> attention?","50","","","","","true"
"null","","","html-keyboard-response","71","1167926","0.0-71.0","kparyk2c",""," ","null","","","","",""
"","","","call-function","72","1167926","0.0-72.0","kparyk2c","","","","","","","",""
"null","","","html-keyboard-response","73","1169431","0.0-73.0","kparyk2c","","<span style=""color:Black; font-size:50px;"">Video 1</span>","null","","","","",""
"null","","","video-keyboard-response","74","1172560","0.0-74.0","kparyk2c","","","null","","<span style=""color:Black; font-size:50px;"">Casey","Casey","STIM_SET_7/1592934.bmp_pp71_L1_V1_veridical_freeview_isoFalse_fps144.mp4",""
"null","","","html-keyboard-response","75","1174064","0.0-75.0","kparyk2c","","<span style=""color:Black; font-size:50px;"">Video 2</span>","null","","","","",""
"null","","","video-keyboard-response","76","1177177","0.0-76.0","kparyk2c","","","null","","<span style=""color:Black; font-size:50px;"">Sandy","Sandy","STIM_SET_7/1592934.bmp_pp81_L1_V1_veridical_freeview_isoFalse_fps144.mp4",""
"","","","call-function","77","1177177","0.0-77.0","kparyk2c","","","","","","","",""
"361.9899999999907","","","categorize-html","78","1179545","0.0-78.0","kparyk2c","","Which video showed <span style=""font-size:30px"">Sandy's</span> attention?","49","","","","","false"
"null","","","html-keyboard-response","79","1180047","0.0-79.0","kparyk2c",""," ","null","","","","",""
"","","","call-function","80","1180048","0.0-80.0","kparyk2c","","","","","","","",""
"null","","","html-keyboard-response","81","1181550","0.0-81.0","kparyk2c","","<span style=""color:Black; font-size:50px;"">Video 1</span>","null","","","","",""
"null","","","video-keyboard-response","82","1184673","0.0-82.0","kparyk2c","","","null","","<span style=""color:Black; font-size:50px;"">Casey","Casey","STIM_SET_7/1592079.bmp_pp71_L1_V1_veridical_freeview_isoFalse_fps144.mp4",""
"null","","","html-keyboard-response","83","1186175","0.0-83.0","kparyk2c","","<span style=""color:Black; font-size:50px;"">Video 2</span>","null","","","","",""
"null","","","video-keyboard-response","84","1189308","0.0-84.0","kparyk2c","","","null","","<span style=""color:Black; font-size:50px;"">Sandy","Sandy","STIM_SET_7/1592079.bmp_pp81_L1_V1_veridical_freeview_isoFalse_fps144.mp4",""
"","","","call-function","85","1189308","0.0-85.0","kparyk2c","","","","","","","",""
"438.66500000003725","","","categorize-html","86","1191751","0.0-86.0","kparyk2c","","Which video showed <span style=""font-size:30px"">Sandy's</span> attention?","50","","","","","true"
"null","","","html-keyboard-response","87","1192254","0.0-87.0","kparyk2c",""," ","null","","","","",""
"4805.610000000102","","","instructions","88","1197060","0.0-88.0","kparyk2c","[{""page_index"":0,""viewing_time"":2711.380000000121},{""page_index"":1,""viewing_time"":1217.8899999998976},{""page_index"":2,""viewing_time"":876.1799999999348}]","","","","","","",""
"12582.185000000056","","","instructions","89","1209642","0.0-89.0","kparyk2c","[{""page_index"":0,""viewing_time"":9304.470000000205},{""page_index"":1,""viewing_time"":2376.589999999851},{""page_index"":2,""viewing_time"":900.9550000000745}]","","","","","","",""
"","","","call-function","90","1209643","0.0-90.0","kparyk2c","","","","","","","",""
"null","","","html-keyboard-response","91","1211146","0.0-91.0","kparyk2c","","<span style=""color:Black; font-size:50px;"">Video 1</span>","null","","","","",""
"null","","","video-keyboard-response","92","1214219","0.0-92.0","kparyk2c","","","null","","<span style=""color:Black; font-size:50px;"">Casey","Casey","STIM_SET_7/1593041.bmp_pp71_L1_V1_veridical_freeview_isoFalse_fps144.mp4",""
"null","","","html-keyboard-response","93","1215724","0.0-93.0","kparyk2c","","<span style=""color:Black; font-size:50px;"">Video 2</span>","null","","","","",""
"null","","","video-keyboard-response","94","1218796","0.0-94.0","kparyk2c","","","null","","<span style=""color:Black; font-size:50px;"">Sandy","Sandy","STIM_SET_7/1593041.bmp_pp81_L1_V1_veridical_freeview_isoFalse_fps144.mp4",""
"","","","call-function","95","1218796","0.0-95.0","kparyk2c","","","","","","","",""
"462.25499999988824","","","categorize-html","96","1221262","0.0-96.0","kparyk2c","","Which video showed <span style=""font-size:30px"">Sandy's</span> attention?","50","","","","","true"
"null","","","html-keyboard-response","97","1221764","0.0-97.0","kparyk2c",""," ","null","","","","",""
"","","","call-function","98","1221764","0.0-98.0","kparyk2c","","","","","","","",""
"null","","","html-keyboard-response","99","1223268","0.0-99.0","kparyk2c","","<span style=""color:Black; font-size:50px;"">Video 1</span>","null","","","","",""
"null","","","video-keyboard-response","100","1226345","0.0-100.0","kparyk2c","","","null","","<span style=""color:Black; font-size:50px;"">Sandy","Sandy","STIM_SET_7/498339.bmp_pp81_L1_V1_veridical_freeview_isoFalse_fps144.mp4",""
"null","","","html-keyboard-response","101","1227847","0.0-101.0","kparyk2c","","<span style=""color:Black; font-size:50px;"">Video 2</span>","null","","","","",""
"null","","","video-keyboard-response","102","1230922","0.0-102.0","kparyk2c","","","null","","<span style=""color:Black; font-size:50px;"">Casey","Casey","STIM_SET_7/498339.bmp_pp71_L1_V1_veridical_freeview_isoFalse_fps144.mp4",""
"","","","call-function","103","1230923","0.0-103.0","kparyk2c","","","","","","","",""
"1184.219999999972","","","categorize-html","104","1234110","0.0-104.0","kparyk2c","","Which video showed <span style=""font-size:30px"">Sandy's</span> attention?","49","","","","","true"
"null","","","html-keyboard-response","105","1234611","0.0-105.0","kparyk2c",""," ","null","","","","",""
"","","","call-function","106","1234612","0.0-106.0","kparyk2c","","","","","","","",""
"null","","","html-keyboard-response","107","1236116","0.0-107.0","kparyk2c","","<span style=""color:Black; font-size:50px;"">Video 1</span>","null","","","","",""
"null","","","video-keyboard-response","108","1239233","0.0-108.0","kparyk2c","","","null","","<span style=""color:Black; font-size:50px;"">Sandy","Sandy","STIM_SET_7/285992.bmp_pp81_L1_V1_veridical_freeview_isoFalse_fps144.mp4",""
"null","","","html-keyboard-response","109","1240738","0.0-109.0","kparyk2c","","<span style=""color:Black; font-size:50px;"">Video 2</span>","null","","","","",""
"null","","","video-keyboard-response","110","1243851","0.0-110.0","kparyk2c","","","null","","<span style=""color:Black; font-size:50px;"">Casey","Casey","STIM_SET_7/285992.bmp_pp71_L1_V1_veridical_freeview_isoFalse_fps144.mp4",""
"","","","call-function","111","1243851","0.0-111.0","kparyk2c","","","","","","","",""
"440.1899999999441","","","categorize-html","112","1246295","0.0-112.0","kparyk2c","","Which video showed <span style=""font-size:30px"">Sandy's</span> attention?","49","","","","","true"
"null","","","html-keyboard-response","113","1246802","0.0-113.0","kparyk2c",""," ","null","","","","",""
"","","","call-function","114","1246802","0.0-114.0","kparyk2c","","","","","","","",""
"null","","","html-keyboard-response","115","1248304","0.0-115.0","kparyk2c","","<span style=""color:Black; font-size:50px;"">Video 1</span>","null","","","","",""
"null","","","video-keyboard-response","116","1251440","0.0-116.0","kparyk2c","","","null","","<span style=""color:Black; font-size:50px;"">Casey","Casey","STIM_SET_7/1159365.bmp_pp71_L1_V1_veridical_freeview_isoFalse_fps144.mp4",""
"null","","","html-keyboard-response","117","1252942","0.0-117.0","kparyk2c","","<span style=""color:Black; font-size:50px;"">Video 2</span>","null","","","","",""
"null","","","video-keyboard-response","118","1256053","0.0-118.0","kparyk2c","","","null","","<span style=""color:Black; font-size:50px;"">Sandy","Sandy","STIM_SET_7/1159365.bmp_pp81_L1_V1_veridical_freeview_isoFalse_fps144.mp4",""
"","","","call-function","119","1256053","0.0-119.0","kparyk2c","","","","","","","",""
"597.8200000000652","","","categorize-html","120","1258655","0.0-120.0","kparyk2c","","Which video showed <span style=""font-size:30px"">Sandy's</span> attention?","50","","","","","true"
"null","","","html-keyboard-response","121","1259157","0.0-121.0","kparyk2c",""," ","null","","","","",""
"","","","call-function","122","1259158","0.0-122.0","kparyk2c","","","","","","","",""
"null","","","html-keyboard-response","123","1260664","0.0-123.0","kparyk2c","","<span style=""color:Black; font-size:50px;"">Video 1</span>","null","","","","",""
"null","","","video-keyboard-response","124","1263775","0.0-124.0","kparyk2c","","","null","","<span style=""color:Black; font-size:50px;"">Sandy","Sandy","STIM_SET_7/1159973.bmp_pp81_L1_V1_veridical_freeview_isoFalse_fps144.mp4",""
"null","","","html-keyboard-response","125","1265278","0.0-125.0","kparyk2c","","<span style=""color:Black; font-size:50px;"">Video 2</span>","null","","","","",""
"null","","","video-keyboard-response","126","1268375","0.0-126.0","kparyk2c","","","null","","<span style=""color:Black; font-size:50px;"">Casey","Casey","STIM_SET_7/1159973.bmp_pp71_L1_V1_veridical_freeview_isoFalse_fps144.mp4",""
"","","","call-function","127","1268376","0.0-127.0","kparyk2c","","","","","","","",""
"467.59499999997206","","","categorize-html","128","1270850","0.0-128.0","kparyk2c","","Which video showed <span style=""font-size:30px"">Sandy's</span> attention?","49","","","","","true"
"null","","","html-keyboard-response","129","1271357","0.0-129.0","kparyk2c",""," ","null","","","","",""
"","","","call-function","130","1271357","0.0-130.0","kparyk2c","","","","","","","",""
"null","","","html-keyboard-response","131","1272864","0.0-131.0","kparyk2c","","<span style=""color:Black; font-size:50px;"">Video 1</span>","null","","","","",""
"null","","","video-keyboard-response","132","1276017","0.0-132.0","kparyk2c","","","null","","<span style=""color:Black; font-size:50px;"">Casey","Casey","STIM_SET_7/1159749.bmp_pp71_L1_V1_veridical_freeview_isoFalse_fps144.mp4",""
"null","","","html-keyboard-response","133","1277520","0.0-133.0","kparyk2c","","<span style=""color:Black; font-size:50px;"">Video 2</span>","null","","","","",""
"null","","","video-keyboard-response","134","1282110","0.0-134.0","kparyk2c","","","null","","<span style=""color:Black; font-size:50px;"">Sandy","Sandy","STIM_SET_7/1159749.bmp_pp81_L1_V1_veridical_freeview_isoFalse_fps144.mp4",""
"","","","call-function","135","1282110","0.0-135.0","kparyk2c","","","","","","","",""
"508.5950000002049","","","categorize-html","136","1284627","0.0-136.0","kparyk2c","","Which video showed <span style=""font-size:30px"">Sandy's</span> attention?","50","","","","","true"
"null","","","html-keyboard-response","137","1285129","0.0-137.0","kparyk2c",""," ","null","","","","",""
"","","","call-function","138","1285130","0.0-138.0","kparyk2c","","","","","","","",""
"null","","","html-keyboard-response","139","1286635","0.0-139.0","kparyk2c","","<span style=""color:Black; font-size:50px;"">Video 1</span>","null","","","","",""
"null","","","video-keyboard-response","140","1289741","0.0-140.0","kparyk2c","","","null","","<span style=""color:Black; font-size:50px;"">Sandy","Sandy","STIM_SET_7/1591838.bmp_pp81_L1_V1_veridical_freeview_isoFalse_fps144.mp4",""
"null","","","html-keyboard-response","141","1291246","0.0-141.0","kparyk2c","","<span style=""color:Black; font-size:50px;"">Video 2</span>","null","","","","",""
"null","","","video-keyboard-response","142","1294324","0.0-142.0","kparyk2c","","","null","","<span style=""color:Black; font-size:50px;"">Casey","Casey","STIM_SET_7/1591838.bmp_pp71_L1_V1_veridical_freeview_isoFalse_fps144.mp4",""
"","","","call-function","143","1294324","0.0-143.0","kparyk2c","","","","","","","",""
"439.1700000001583","","","categorize-html","144","1296766","0.0-144.0","kparyk2c","","Which video showed <span style=""font-size:30px"">Sandy's</span> attention?","49","","","","","true"
"null","","","html-keyboard-response","145","1297271","0.0-145.0","kparyk2c",""," ","null","","","","",""
"","","","call-function","146","1297272","0.0-146.0","kparyk2c","","","","","","","",""
"null","","","html-keyboard-response","147","1298774","0.0-147.0","kparyk2c","","<span style=""color:Black; font-size:50px;"">Video 1</span>","null","","","","",""
"null","","","video-keyboard-response","148","1301867","0.0-148.0","kparyk2c","","","null","","<span style=""color:Black; font-size:50px;"">Sandy","Sandy","STIM_SET_7/713920.bmp_pp81_L1_V1_veridical_freeview_isoFalse_fps144.mp4",""
"null","","","html-keyboard-response","149","1303371","0.0-149.0","kparyk2c","","<span style=""color:Black; font-size:50px;"">Video 2</span>","null","","","","",""
"null","","","video-keyboard-response","150","1306482","0.0-150.0","kparyk2c","","","null","","<span style=""color:Black; font-size:50px;"">Casey","Casey","STIM_SET_7/713920.bmp_pp71_L1_V1_veridical_freeview_isoFalse_fps144.mp4",""
"","","","call-function","151","1306482","0.0-151.0","kparyk2c","","","","","","","",""
"1289.059999999823","","","categorize-html","152","1309778","0.0-152.0","kparyk2c","","Which video showed <span style=""font-size:30px"">Sandy's</span> attention?","49","","","","","true"
"null","","","html-keyboard-response","153","1310280","0.0-153.0","kparyk2c",""," ","null","","","","",""
"","","","call-function","154","1310280","0.0-154.0","kparyk2c","","","","","","","",""
"null","","","html-keyboard-response","155","1311784","0.0-155.0","kparyk2c","","<span style=""color:Black; font-size:50px;"">Video 1</span>","null","","","","",""
"null","","","video-keyboard-response","156","1314890","0.0-156.0","kparyk2c","","","null","","<span style=""color:Black; font-size:50px;"">Casey","Casey","STIM_SET_7/713765.bmp_pp71_L1_V1_veridical_freeview_isoFalse_fps144.mp4",""
"null","","","html-keyboard-response","157","1316394","0.0-157.0","kparyk2c","","<span style=""color:Black; font-size:50px;"">Video 2</span>","null","","","","",""
"null","","","video-keyboard-response","158","1319523","0.0-158.0","kparyk2c","","","null","","<span style=""color:Black; font-size:50px;"">Sandy","Sandy","STIM_SET_7/713765.bmp_pp81_L1_V1_veridical_freeview_isoFalse_fps144.mp4",""
"","","","call-function","159","1319524","0.0-159.0","kparyk2c","","","","","","","",""
"695.8000000000466","","","categorize-html","160","1322224","0.0-160.0","kparyk2c","","Which video showed <span style=""font-size:30px"">Sandy's</span> attention?","49","","","","","false"
"null","","","html-keyboard-response","161","1322726","0.0-161.0","kparyk2c",""," ","null","","","","",""
"","","","call-function","162","1322727","0.0-162.0","kparyk2c","","","","","","","",""
"null","","","html-keyboard-response","163","1324230","0.0-163.0","kparyk2c","","<span style=""color:Black; font-size:50px;"">Video 1</span>","null","","","","",""
"null","","","video-keyboard-response","164","1327353","0.0-164.0","kparyk2c","","","null","","<span style=""color:Black; font-size:50px;"">Sandy","Sandy","STIM_SET_7/1159606.bmp_pp81_L1_V1_veridical_freeview_isoFalse_fps144.mp4",""
"null","","","html-keyboard-response","165","1328858","0.0-165.0","kparyk2c","","<span style=""color:Black; font-size:50px;"">Video 2</span>","null","","","","",""
"null","","","video-keyboard-response","166","1331968","0.0-166.0","kparyk2c","","","null","","<span style=""color:Black; font-size:50px;"">Casey","Casey","STIM_SET_7/1159606.bmp_pp71_L1_V1_veridical_freeview_isoFalse_fps144.mp4",""
"","","","call-function","167","1331968","0.0-167.0","kparyk2c","","","","","","","",""
"1907.125","","","categorize-html","168","1335878","0.0-168.0","kparyk2c","","Which video showed <span style=""font-size:30px"">Sandy's</span> attention?","50","","","","","false"
"null","","","html-keyboard-response","169","1336382","0.0-169.0","kparyk2c",""," ","null","","","","",""
"4498.389999999898","","","instructions","170","1340881","0.0-170.0","kparyk2c","[{""page_index"":0,""viewing_time"":2441.100000000093},{""page_index"":1,""viewing_time"":855.1799999999348},{""page_index"":2,""viewing_time"":1201.9899999999907}]","","","","","","",""
"5249.425000000047","","","instructions","171","1346131","0.0-171.0","kparyk2c","[{""page_index"":0,""viewing_time"":1063.3600000001024},{""page_index"":1,""viewing_time"":3656.1299999998882},{""page_index"":2,""viewing_time"":529.8249999999534}]","","","","","","",""
"","","","call-function","172","1346131","0.0-172.0","kparyk2c","","","","","","","",""
"null","","","html-keyboard-response","173","1347635","0.0-173.0","kparyk2c","","<span style=""color:Black; font-size:50px;"">Video 1</span>","null","","","","",""
"null","","","video-keyboard-response","174","1350729","0.0-174.0","kparyk2c","","","null","","<span style=""color:Black; font-size:50px;"">Sandy","Sandy","STIM_SET_7/285807.bmp_pp81_L1_V1_veridical_freeview_isoFalse_fps144.mp4",""
"null","","","html-keyboard-response","175","1352235","0.0-175.0","kparyk2c","","<span style=""color:Black; font-size:50px;"">Video 2</span>","null","","","","",""
"null","","","video-keyboard-response","176","1355316","0.0-176.0","kparyk2c","","","null","","<span style=""color:Black; font-size:50px;"">Casey","Casey","STIM_SET_7/285807.bmp_pp71_L1_V1_veridical_freeview_isoFalse_fps144.mp4",""
"","","","call-function","177","1355317","0.0-177.0","kparyk2c","","","","","","","",""
"414.6699999999255","","","categorize-html","178","1357734","0.0-178.0","kparyk2c","","Which video showed <span style=""font-size:30px"">Sandy's</span> attention?","49","","","","","true"
"null","","","html-keyboard-response","179","1358236","0.0-179.0","kparyk2c",""," ","null","","","","",""
"","","","call-function","180","1358236","0.0-180.0","kparyk2c","","","","","","","",""
"null","","","html-keyboard-response","181","1359741","0.0-181.0","kparyk2c","","<span style=""color:Black; font-size:50px;"">Video 1</span>","null","","","","",""
"null","","","video-keyboard-response","182","1362816","0.0-182.0","kparyk2c","","","null","","<span style=""color:Black; font-size:50px;"">Sandy","Sandy","STIM_SET_7/150303.bmp_pp81_L1_V1_veridical_freeview_isoFalse_fps144.mp4",""
"null","","","html-keyboard-response","183","1364322","0.0-183.0","kparyk2c","","<span style=""color:Black; font-size:50px;"">Video 2</span>","null","","","","",""
"null","","","video-keyboard-response","184","1367397","0.0-184.0","kparyk2c","","","null","","<span style=""color:Black; font-size:50px;"">Casey","Casey","STIM_SET_7/150303.bmp_pp71_L1_V1_veridical_freeview_isoFalse_fps144.mp4",""
"","","","call-function","185","1367398","0.0-185.0","kparyk2c","","","","","","","",""
"2141.2399999999907","","","categorize-html","186","1371542","0.0-186.0","kparyk2c","","Which video showed <span style=""font-size:30px"">Sandy's</span> attention?","49","","","","","true"
"null","","","html-keyboard-response","187","1372044","0.0-187.0","kparyk2c",""," ","null","","","","",""
"","","","call-function","188","1372044","0.0-188.0","kparyk2c","","","","","","","",""
"null","","","html-keyboard-response","189","1373547","0.0-189.0","kparyk2c","","<span style=""color:Black; font-size:50px;"">Video 1</span>","null","","","","",""
"null","","","video-keyboard-response","190","1376649","0.0-190.0","kparyk2c","","","null","","<span style=""color:Black; font-size:50px;"">Sandy","Sandy","STIM_SET_7/1592530.bmp_pp81_L1_V1_veridical_freeview_isoFalse_fps144.mp4",""
"null","","","html-keyboard-response","191","1378153","0.0-191.0","kparyk2c","","<span style=""color:Black; font-size:50px;"">Video 2</span>","null","","","","",""
"null","","","video-keyboard-response","192","1381305","0.0-192.0","kparyk2c","","","null","","<span style=""color:Black; font-size:50px;"">Casey","Casey","STIM_SET_7/1592530.bmp_pp71_L1_V1_veridical_freeview_isoFalse_fps144.mp4",""
"","","","call-function","193","1381305","0.0-193.0","kparyk2c","","","","","","","",""
"345.7150000000838","","","categorize-html","194","1383658","0.0-194.0","kparyk2c","","Which video showed <span style=""font-size:30px"">Sandy's</span> attention?","49","","","","","true"
"null","","","html-keyboard-response","195","1384164","0.0-195.0","kparyk2c",""," ","null","","","","",""
"","","","call-function","196","1384164","0.0-196.0","kparyk2c","","","","","","","",""
"null","","","html-keyboard-response","197","1385669","0.0-197.0","kparyk2c","","<span style=""color:Black; font-size:50px;"">Video 1</span>","null","","","","",""
"null","","","video-keyboard-response","198","1388902","0.0-198.0","kparyk2c","","","null","","<span style=""color:Black; font-size:50px;"">Casey","Casey","STIM_SET_7/498326.bmp_pp71_L1_V1_veridical_freeview_isoFalse_fps144.mp4",""
"null","","","html-keyboard-response","199","1390404","0.0-199.0","kparyk2c","","<span style=""color:Black; font-size:50px;"">Video 2</span>","null","","","","",""
"null","","","video-keyboard-response","200","1393518","0.0-200.0","kparyk2c","","","null","","<span style=""color:Black; font-size:50px;"">Sandy","Sandy","STIM_SET_7/498326.bmp_pp81_L1_V1_veridical_freeview_isoFalse_fps144.mp4",""
"","","","call-function","201","1393518","0.0-201.0","kparyk2c","","","","","","","",""
"404.75499999988824","","","categorize-html","202","1395930","0.0-202.0","kparyk2c","","Which video showed <span style=""font-size:30px"">Sandy's</span> attention?","50","","","","","true"
"null","","","html-keyboard-response","203","1396434","0.0-203.0","kparyk2c",""," ","null","","","","",""
"","","","call-function","204","1396435","0.0-204.0","kparyk2c","","","","","","","",""
"null","","","html-keyboard-response","205","1397939","0.0-205.0","kparyk2c","","<span style=""color:Black; font-size:50px;"">Video 1</span>","null","","","","",""
"null","","","video-keyboard-response","206","1401074","0.0-206.0","kparyk2c","","","null","","<span style=""color:Black; font-size:50px;"">Casey","Casey","STIM_SET_7/285905.bmp_pp71_L1_V1_veridical_freeview_isoFalse_fps144.mp4",""
"null","","","html-keyboard-response","207","1402577","0.0-207.0","kparyk2c","","<span style=""color:Black; font-size:50px;"">Video 2</span>","null","","","","",""
"null","","","video-keyboard-response","208","1405690","0.0-208.0","kparyk2c","","","null","","<span style=""color:Black; font-size:50px;"">Sandy","Sandy","STIM_SET_7/285905.bmp_pp81_L1_V1_veridical_freeview_isoFalse_fps144.mp4",""
"","","","call-function","209","1405690","0.0-209.0","kparyk2c","","","","","","","",""
"369.2750000001397","","","categorize-html","210","1408063","0.0-210.0","kparyk2c","","Which video showed <span style=""font-size:30px"">Sandy's</span> attention?","50","","","","","true"
"null","","","html-keyboard-response","211","1408568","0.0-211.0","kparyk2c",""," ","null","","","","",""
"","","","call-function","212","1408569","0.0-212.0","kparyk2c","","","","","","","",""
"null","","","html-keyboard-response","213","1410072","0.0-213.0","kparyk2c","","<span style=""color:Black; font-size:50px;"">Video 1</span>","null","","","","",""
"null","","","video-keyboard-response","214","1413181","0.0-214.0","kparyk2c","","","null","","<span style=""color:Black; font-size:50px;"">Casey","Casey","STIM_SET_7/713769.bmp_pp71_L1_V1_veridical_freeview_isoFalse_fps144.mp4",""
"null","","","html-keyboard-response","215","1414686","0.0-215.0","kparyk2c","","<span style=""color:Black; font-size:50px;"">Video 2</span>","null","","","","",""
"null","","","video-keyboard-response","216","1417782","0.0-216.0","kparyk2c","","","null","","<span style=""color:Black; font-size:50px;"">Sandy","Sandy","STIM_SET_7/713769.bmp_pp81_L1_V1_veridical_freeview_isoFalse_fps144.mp4",""
"","","","call-function","217","1417782","0.0-217.0","kparyk2c","","","","","","","",""
"397.05000000004657","","","categorize-html","218","1420183","0.0-218.0","kparyk2c","","Which video showed <span style=""font-size:30px"">Sandy's</span> attention?","50","","","","","true"
"null","","","html-keyboard-response","219","1420684","0.0-219.0","kparyk2c",""," ","null","","","","",""
"","","","call-function","220","1420685","0.0-220.0","kparyk2c","","","","","","","",""
"null","","","html-keyboard-response","221","1422191","0.0-221.0","kparyk2c","","<span style=""color:Black; font-size:50px;"">Video 1</span>","null","","","","",""
"null","","","video-keyboard-response","222","1425267","0.0-222.0","kparyk2c","","","null","","<span style=""color:Black; font-size:50px;"">Sandy","Sandy","STIM_SET_7/713330.bmp_pp81_L1_V1_veridical_freeview_isoFalse_fps144.mp4",""
"null","","","html-keyboard-response","223","1426771","0.0-223.0","kparyk2c","","<span style=""color:Black; font-size:50px;"">Video 2</span>","null","","","","",""
"null","","","video-keyboard-response","224","1429862","0.0-224.0","kparyk2c","","","null","","<span style=""color:Black; font-size:50px;"">Casey","Casey","STIM_SET_7/713330.bmp_pp71_L1_V1_veridical_freeview_isoFalse_fps144.mp4",""
"","","","call-function","225","1429862","0.0-225.0","kparyk2c","","","","","","","",""
"365.62000000011176","","","categorize-html","226","1432234","0.0-226.0","kparyk2c","","Which video showed <span style=""font-size:30px"">Sandy's</span> attention?","50","","","","","false"
"null","","","html-keyboard-response","227","1432739","0.0-227.0","kparyk2c",""," ","null","","","","",""
"","","","call-function","228","1432739","0.0-228.0","kparyk2c","","","","","","","",""
"null","","","html-keyboard-response","229","1434244","0.0-229.0","kparyk2c","","<span style=""color:Black; font-size:50px;"">Video 1</span>","null","","","","",""
"null","","","video-keyboard-response","230","1437315","0.0-230.0","kparyk2c","","","null","","<span style=""color:Black; font-size:50px;"">Casey","Casey","STIM_SET_7/107933.bmp_pp71_L1_V1_veridical_freeview_isoFalse_fps144.mp4",""
"null","","","html-keyboard-response","231","1438822","0.0-231.0","kparyk2c","","<span style=""color:Black; font-size:50px;"">Video 2</span>","null","","","","",""
"null","","","video-keyboard-response","232","1441942","0.0-232.0","kparyk2c","","","null","","<span style=""color:Black; font-size:50px;"">Sandy","Sandy","STIM_SET_7/107933.bmp_pp81_L1_V1_veridical_freeview_isoFalse_fps144.mp4",""
"","","","call-function","233","1441942","0.0-233.0","kparyk2c","","","","","","","",""
"781.3649999999907","","","categorize-html","234","1444729","0.0-234.0","kparyk2c","","Which video showed <span style=""font-size:30px"">Sandy's</span> attention?","50","","","","","true"
"null","","","html-keyboard-response","235","1445231","0.0-235.0","kparyk2c",""," ","null","","","","",""
"","","","call-function","236","1445232","0.0-236.0","kparyk2c","","","","","","","",""
"null","","","html-keyboard-response","237","1446734","0.0-237.0","kparyk2c","","<span style=""color:Black; font-size:50px;"">Video 1</span>","null","","","","",""
"null","","","video-keyboard-response","238","1449851","0.0-238.0","kparyk2c","","","null","","<span style=""color:Black; font-size:50px;"">Sandy","Sandy","STIM_SET_7/285933.bmp_pp81_L1_V1_veridical_freeview_isoFalse_fps144.mp4",""
"null","","","html-keyboard-response","239","1451353","0.0-239.0","kparyk2c","","<span style=""color:Black; font-size:50px;"">Video 2</span>","null","","","","",""
"null","","","video-keyboard-response","240","1454481","0.0-240.0","kparyk2c","","","null","","<span style=""color:Black; font-size:50px;"">Casey","Casey","STIM_SET_7/285933.bmp_pp71_L1_V1_veridical_freeview_isoFalse_fps144.mp4",""
"","","","call-function","241","1454482","0.0-241.0","kparyk2c","","","","","","","",""
"1033.9199999999255","","","categorize-html","242","1457520","0.0-242.0","kparyk2c","","Which video showed <span style=""font-size:30px"">Sandy's</span> attention?","49","","","","","true"
"null","","","html-keyboard-response","243","1458022","0.0-243.0","kparyk2c",""," ","null","","","","",""
"","","","call-function","244","1458023","0.0-244.0","kparyk2c","","","","","","","",""
"null","","","html-keyboard-response","245","1459526","0.0-245.0","kparyk2c","","<span style=""color:Black; font-size:50px;"">Video 1</span>","null","","","","",""
"null","","","video-keyboard-response","246","1462625","0.0-246.0","kparyk2c","","","null","","<span style=""color:Black; font-size:50px;"">Sandy","Sandy","STIM_SET_7/713371.bmp_pp81_L1_V1_veridical_freeview_isoFalse_fps144.mp4",""
"null","","","html-keyboard-response","247","1464131","0.0-247.0","kparyk2c","","<span style=""color:Black; font-size:50px;"">Video 2</span>","null","","","","",""
"null","","","video-keyboard-response","248","1467247","0.0-248.0","kparyk2c","","","null","","<span style=""color:Black; font-size:50px;"">Casey","Casey","STIM_SET_7/713371.bmp_pp71_L1_V1_veridical_freeview_isoFalse_fps144.mp4",""
"","","","call-function","249","1467248","0.0-249.0","kparyk2c","","","","","","","",""
"787.875","","","categorize-html","250","1470041","0.0-250.0","kparyk2c","","Which video showed <span style=""font-size:30px"">Sandy's</span> attention?","49","","","","","true"
"null","","","html-keyboard-response","251","1470543","0.0-251.0","kparyk2c",""," ","null","","","","",""
"5990.550000000047","","","instructions","252","1476534","0.0-252.0","kparyk2c","[{""page_index"":0,""viewing_time"":4522.385000000009},{""page_index"":1,""viewing_time"":875.4449999998324},{""page_index"":2,""viewing_time"":592.5950000002049}]","","","","","","",""
"2150.5999999998603","","","instructions","253","1478685","0.0-253.0","kparyk2c","[{""page_index"":0,""viewing_time"":704.6949999998324},{""page_index"":1,""viewing_time"":890.7750000001397},{""page_index"":2,""viewing_time"":555.0200000000186}]","","","","","","",""
"","","","call-function","254","1478685","0.0-254.0","kparyk2c","","","","","","","",""
"null","","","html-keyboard-response","255","1480188","0.0-255.0","kparyk2c","","<span style=""color:Black; font-size:50px;"">Video 1</span>","null","","","","",""
"null","","","video-keyboard-response","256","1483270","0.0-256.0","kparyk2c","","","null","","<span style=""color:Black; font-size:50px;"">Sandy","Sandy","STIM_SET_7/713418.bmp_pp81_L1_V1_veridical_freeview_isoFalse_fps144.mp4",""
"null","","","html-keyboard-response","257","1484777","0.0-257.0","kparyk2c","","<span style=""color:Black; font-size:50px;"">Video 2</span>","null","","","","",""
"null","","","video-keyboard-response","258","1487886","0.0-258.0","kparyk2c","","","null","","<span style=""color:Black; font-size:50px;"">Casey","Casey","STIM_SET_7/713418.bmp_pp71_L1_V1_veridical_freeview_isoFalse_fps144.mp4",""
"","","","call-function","259","1487886","0.0-259.0","kparyk2c","","","","","","","",""
"717.1049999999814","","","categorize-html","260","1490608","0.0-260.0","kparyk2c","","Which video showed <span style=""font-size:30px"">Sandy's</span> attention?","50","","","","","false"
"null","","","html-keyboard-response","261","1491112","0.0-261.0","kparyk2c",""," ","null","","","","",""
"","","","call-function","262","1491113","0.0-262.0","kparyk2c","","","","","","","",""
"null","","","html-keyboard-response","263","1492618","0.0-263.0","kparyk2c","","<span style=""color:Black; font-size:50px;"">Video 1</span>","null","","","","",""
"null","","","video-keyboard-response","264","1495688","0.0-264.0","kparyk2c","","","null","","<span style=""color:Black; font-size:50px;"">Casey","Casey","STIM_SET_7/713228.bmp_pp71_L1_V1_veridical_freeview_isoFalse_fps144.mp4",""
"null","","","html-keyboard-response","265","1497194","0.0-265.0","kparyk2c","","<span style=""color:Black; font-size:50px;"">Video 2</span>","null","","","","",""
"null","","","video-keyboard-response","266","1500276","0.0-266.0","kparyk2c","","","null","","<span style=""color:Black; font-size:50px;"">Sandy","Sandy","STIM_SET_7/713228.bmp_pp81_L1_V1_veridical_freeview_isoFalse_fps144.mp4",""
"","","","call-function","267","1500276","0.0-267.0","kparyk2c","","","","","","","",""
"2879.380000000121","","","categorize-html","268","1505157","0.0-268.0","kparyk2c","","Which video showed <span style=""font-size:30px"">Sandy's</span> attention?","50","","","","","true"
"null","","","html-keyboard-response","269","1505664","0.0-269.0","kparyk2c",""," ","null","","","","",""
"","","","call-function","270","1505664","0.0-270.0","kparyk2c","","","","","","","",""
"null","","","html-keyboard-response","271","1507166","0.0-271.0","kparyk2c","","<span style=""color:Black; font-size:50px;"">Video 1</span>","null","","","","",""
"null","","","video-keyboard-response","272","1510248","0.0-272.0","kparyk2c","","","null","","<span style=""color:Black; font-size:50px;"">Sandy","Sandy","STIM_SET_7/713633.bmp_pp81_L1_V1_veridical_freeview_isoFalse_fps144.mp4",""
"null","","","html-keyboard-response","273","1511749","0.0-273.0","kparyk2c","","<span style=""color:Black; font-size:50px;"">Video 2</span>","null","","","","",""
"null","","","video-keyboard-response","274","1514850","0.0-274.0","kparyk2c","","","null","","<span style=""color:Black; font-size:50px;"">Casey","Casey","STIM_SET_7/713633.bmp_pp71_L1_V1_veridical_freeview_isoFalse_fps144.mp4",""
"","","","call-function","275","1514850","0.0-275.0","kparyk2c","","","","","","","",""
"721.1749999998137","","","categorize-html","276","1517578","0.0-276.0","kparyk2c","","Which video showed <span style=""font-size:30px"">Sandy's</span> attention?","50","","","","","false"
"null","","","html-keyboard-response","277","1518082","0.0-277.0","kparyk2c",""," ","null","","","","",""
"","","","call-function","278","1518082","0.0-278.0","kparyk2c","","","","","","","",""
"null","","","html-keyboard-response","279","1519585","0.0-279.0","kparyk2c","","<span style=""color:Black; font-size:50px;"">Video 1</span>","null","","","","",""
"null","","","video-keyboard-response","280","1522711","0.0-280.0","kparyk2c","","","null","","<span style=""color:Black; font-size:50px;"">Casey","Casey","STIM_SET_7/1159768.bmp_pp71_L1_V1_veridical_freeview_isoFalse_fps144.mp4",""
"null","","","html-keyboard-response","281","1524214","0.0-281.0","kparyk2c","","<span style=""color:Black; font-size:50px;"">Video 2</span>","null","","","","",""
"null","","","video-keyboard-response","282","1527347","0.0-282.0","kparyk2c","","","null","","<span style=""color:Black; font-size:50px;"">Sandy","Sandy","STIM_SET_7/1159768.bmp_pp81_L1_V1_veridical_freeview_isoFalse_fps144.mp4",""
"","","","call-function","283","1527347","0.0-283.0","kparyk2c","","","","","","","",""
"440.5100000000093","","","categorize-html","284","1529790","0.0-284.0","kparyk2c","","Which video showed <span style=""font-size:30px"">Sandy's</span> attention?","50","","","","","true"
"null","","","html-keyboard-response","285","1530293","0.0-285.0","kparyk2c",""," ","null","","","","",""
"","","","call-function","286","1530293","0.0-286.0","kparyk2c","","","","","","","",""
"null","","","html-keyboard-response","287","1531797","0.0-287.0","kparyk2c","","<span style=""color:Black; font-size:50px;"">Video 1</span>","null","","","","",""
"null","","","video-keyboard-response","288","1534921","0.0-288.0","kparyk2c","","","null","","<span style=""color:Black; font-size:50px;"">Sandy","Sandy","STIM_SET_7/1159508.bmp_pp81_L1_V1_veridical_freeview_isoFalse_fps144.mp4",""
"null","","","html-keyboard-response","289","1536428","0.0-289.0","kparyk2c","","<span style=""color:Black; font-size:50px;"">Video 2</span>","null","","","","",""
"null","","","video-keyboard-response","290","1539544","0.0-290.0","kparyk2c","","","null","","<span style=""color:Black; font-size:50px;"">Casey","Casey","STIM_SET_7/1159508.bmp_pp71_L1_V1_veridical_freeview_isoFalse_fps144.mp4",""
"","","","call-function","291","1539545","0.0-291.0","kparyk2c","","","","","","","",""
"666.9250000000466","","","categorize-html","292","1542216","0.0-292.0","kparyk2c","","Which video showed <span style=""font-size:30px"">Sandy's</span> attention?","49","","","","","true"
"null","","","html-keyboard-response","293","1542719","0.0-293.0","kparyk2c",""," ","null","","","","",""
"","","","call-function","294","1542720","0.0-294.0","kparyk2c","","","","","","","",""
"null","","","html-keyboard-response","295","1544223","0.0-295.0","kparyk2c","","<span style=""color:Black; font-size:50px;"">Video 1</span>","null","","","","",""
"null","","","video-keyboard-response","296","1547295","0.0-296.0","kparyk2c","","","null","","<span style=""color:Black; font-size:50px;"">Sandy","Sandy","STIM_SET_7/713075.bmp_pp81_L1_V1_veridical_freeview_isoFalse_fps144.mp4",""
"null","","","html-keyboard-response","297","1548799","0.0-297.0","kparyk2c","","<span style=""color:Black; font-size:50px;"">Video 2</span>","null","","","","",""
"null","","","video-keyboard-response","298","1551909","0.0-298.0","kparyk2c","","","null","","<span style=""color:Black; font-size:50px;"">Casey","Casey","STIM_SET_7/713075.bmp_pp71_L1_V1_veridical_freeview_isoFalse_fps144.mp4",""
"","","","call-function","299","1551910","0.0-299.0","kparyk2c","","","","","","","",""
"437.4749999998603","","","categorize-html","300","1554350","0.0-300.0","kparyk2c","","Which video showed <span style=""font-size:30px"">Sandy's</span> attention?","49","","","","","true"
"null","","","html-keyboard-response","301","1554854","0.0-301.0","kparyk2c",""," ","null","","","","",""
"","","","call-function","302","1554854","0.0-302.0","kparyk2c","","","","","","","",""
"null","","","html-keyboard-response","303","1556358","0.0-303.0","kparyk2c","","<span style=""color:Black; font-size:50px;"">Video 1</span>","null","","","","",""
"null","","","video-keyboard-response","304","1559537","0.0-304.0","kparyk2c","","","null","","<span style=""color:Black; font-size:50px;"">Casey","Casey","STIM_SET_7/498025.bmp_pp71_L1_V1_veridical_freeview_isoFalse_fps144.mp4",""
"null","","","html-keyboard-response","305","1561042","0.0-305.0","kparyk2c","","<span style=""color:Black; font-size:50px;"">Video 2</span>","null","","","","",""
"null","","","video-keyboard-response","306","1564140","0.0-306.0","kparyk2c","","","null","","<span style=""color:Black; font-size:50px;"">Sandy","Sandy","STIM_SET_7/498025.bmp_pp81_L1_V1_veridical_freeview_isoFalse_fps144.mp4",""
"","","","call-function","307","1564140","0.0-307.0","kparyk2c","","","","","","","",""
"391.29999999981374","","","categorize-html","308","1566534","0.0-308.0","kparyk2c","","Which video showed <span style=""font-size:30px"">Sandy's</span> attention?","50","","","","","true"
"null","","","html-keyboard-response","309","1567035","0.0-309.0","kparyk2c",""," ","null","","","","",""
"","","","call-function","310","1567036","0.0-310.0","kparyk2c","","","","","","","",""
"null","","","html-keyboard-response","311","1568538","0.0-311.0","kparyk2c","","<span style=""color:Black; font-size:50px;"">Video 1</span>","null","","","","",""
"null","","","video-keyboard-response","312","1571648","0.0-312.0","kparyk2c","","","null","","<span style=""color:Black; font-size:50px;"">Casey","Casey","STIM_SET_7/285948.bmp_pp71_L1_V1_veridical_freeview_isoFalse_fps144.mp4",""
"null","","","html-keyboard-response","313","1573153","0.0-313.0","kparyk2c","","<span style=""color:Black; font-size:50px;"">Video 2</span>","null","","","","",""
"null","","","video-keyboard-response","314","1576226","0.0-314.0","kparyk2c","","","null","","<span style=""color:Black; font-size:50px;"">Sandy","Sandy","STIM_SET_7/285948.bmp_pp81_L1_V1_veridical_freeview_isoFalse_fps144.mp4",""
"","","","call-function","315","1576226","0.0-315.0","kparyk2c","","","","","","","",""
"1233.7150000000838","","","categorize-html","316","1579463","0.0-316.0","kparyk2c","","Which video showed <span style=""font-size:30px"">Sandy's</span> attention?","50","","","","","true"
"null","","","html-keyboard-response","317","1579967","0.0-317.0","kparyk2c",""," ","null","","","","",""
"","","","call-function","318","1579967","0.0-318.0","kparyk2c","","","","","","","",""
"null","","","html-keyboard-response","319","1581469","0.0-319.0","kparyk2c","","<span style=""color:Black; font-size:50px;"">Video 1</span>","null","","","","",""
"null","","","video-keyboard-response","320","1584574","0.0-320.0","kparyk2c","","","null","","<span style=""color:Black; font-size:50px;"">Sandy","Sandy","STIM_SET_7/1592168.bmp_pp81_L1_V1_veridical_freeview_isoFalse_fps144.mp4",""
"null","","","html-keyboard-response","321","1586078","0.0-321.0","kparyk2c","","<span style=""color:Black; font-size:50px;"">Video 2</span>","null","","","","",""
"null","","","video-keyboard-response","322","1589214","0.0-322.0","kparyk2c","","","null","","<span style=""color:Black; font-size:50px;"">Casey","Casey","STIM_SET_7/1592168.bmp_pp71_L1_V1_veridical_freeview_isoFalse_fps144.mp4",""
"","","","call-function","323","1589215","0.0-323.0","kparyk2c","","","","","","","",""
"636.8900000001304","","","categorize-html","324","1591855","0.0-324.0","kparyk2c","","Which video showed <span style=""font-size:30px"">Sandy's</span> attention?","50","","","","","false"
"null","","","html-keyboard-response","325","1592361","0.0-325.0","kparyk2c",""," ","null","","","","",""
"","","","call-function","326","1592362","0.0-326.0","kparyk2c","","","","","","","",""
"null","","","html-keyboard-response","327","1593863","0.0-327.0","kparyk2c","","<span style=""color:Black; font-size:50px;"">Video 1</span>","null","","","","",""
"null","","","video-keyboard-response","328","1596987","0.0-328.0","kparyk2c","","","null","","<span style=""color:Black; font-size:50px;"">Sandy","Sandy","STIM_SET_7/1592807.bmp_pp81_L1_V1_veridical_freeview_isoFalse_fps144.mp4",""
"null","","","html-keyboard-response","329","1598491","0.0-329.0","kparyk2c","","<span style=""color:Black; font-size:50px;"">Video 2</span>","null","","","","",""
"null","","","video-keyboard-response","330","1601618","0.0-330.0","kparyk2c","","","null","","<span style=""color:Black; font-size:50px;"">Casey","Casey","STIM_SET_7/1592807.bmp_pp71_L1_V1_veridical_freeview_isoFalse_fps144.mp4",""
"","","","call-function","331","1601618","0.0-331.0","kparyk2c","","","","","","","",""
"2385.469999999972","","","categorize-html","332","1606006","0.0-332.0","kparyk2c","","Which video showed <span style=""font-size:30px"">Sandy's</span> attention?","49","","","","","true"
"null","","","html-keyboard-response","333","1606511","0.0-333.0","kparyk2c",""," ","null","","","","",""
"3883.6750000000466","","","instructions","334","1610395","0.0-334.0","kparyk2c","[{""page_index"":0,""viewing_time"":1792.3649999999907},{""page_index"":1,""viewing_time"":1265.0100000000093},{""page_index"":2,""viewing_time"":826.1850000000559}]","","","","","","",""
"2308.5","","","instructions","335","1612703","0.0-335.0","kparyk2c","[{""page_index"":0,""viewing_time"":713.2299999999814},{""page_index"":1,""viewing_time"":1001.9950000001118},{""page_index"":2,""viewing_time"":593.1599999999162}]","","","","","","",""
"","","","call-function","336","1612704","0.0-336.0","kparyk2c","","","","","","","",""
"null","","","html-keyboard-response","337","1614209","0.0-337.0","kparyk2c","","<span style=""color:Black; font-size:50px;"">Video 1</span>","null","","","","",""
"null","","","video-keyboard-response","338","1617304","0.0-338.0","kparyk2c","","","null","","<span style=""color:Black; font-size:50px;"">Sandy","Sandy","STIM_SET_7/1593056.bmp_pp81_L1_V1_veridical_freeview_isoFalse_fps144.mp4",""
"null","","","html-keyboard-response","339","1618810","0.0-339.0","kparyk2c","","<span style=""color:Black; font-size:50px;"">Video 2</span>","null","","","","",""
"null","","","video-keyboard-response","340","1621935","0.0-340.0","kparyk2c","","","null","","<span style=""color:Black; font-size:50px;"">Casey","Casey","STIM_SET_7/1593056.bmp_pp71_L1_V1_veridical_freeview_isoFalse_fps144.mp4",""
"","","","call-function","341","1621935","0.0-341.0","kparyk2c","","","","","","","",""
"828.5900000000838","","","categorize-html","342","1624766","0.0-342.0","kparyk2c","","Which video showed <span style=""font-size:30px"">Sandy's</span> attention?","49","","","","","true"
"null","","","html-keyboard-response","343","1625271","0.0-343.0","kparyk2c",""," ","null","","","","",""
"","","","call-function","344","1625271","0.0-344.0","kparyk2c","","","","","","","",""
"null","","","html-keyboard-response","345","1626774","0.0-345.0","kparyk2c","","<span style=""color:Black; font-size:50px;"">Video 1</span>","null","","","","",""
"null","","","video-keyboard-response","346","1629866","0.0-346.0","kparyk2c","","","null","","<span style=""color:Black; font-size:50px;"">Casey","Casey","STIM_SET_7/1159967.bmp_pp71_L1_V1_veridical_freeview_isoFalse_fps144.mp4",""
"null","","","html-keyboard-response","347","1631372","0.0-347.0","kparyk2c","","<span style=""color:Black; font-size:50px;"">Video 2</span>","null","","","","",""
"null","","","video-keyboard-response","348","1634450","0.0-348.0","kparyk2c","","","null","","<span style=""color:Black; font-size:50px;"">Sandy","Sandy","STIM_SET_7/1159967.bmp_pp81_L1_V1_veridical_freeview_isoFalse_fps144.mp4",""
"","","","call-function","349","1634451","0.0-349.0","kparyk2c","","","","","","","",""
"456.83499999996275","","","categorize-html","350","1636910","0.0-350.0","kparyk2c","","Which video showed <span style=""font-size:30px"">Sandy's</span> attention?","49","","","","","false"
"null","","","html-keyboard-response","351","1637412","0.0-351.0","kparyk2c",""," ","null","","","","",""
"","","","call-function","352","1637413","0.0-352.0","kparyk2c","","","","","","","",""
"null","","","html-keyboard-response","353","1638919","0.0-353.0","kparyk2c","","<span style=""color:Black; font-size:50px;"">Video 1</span>","null","","","","",""
"null","","","video-keyboard-response","354","1642008","0.0-354.0","kparyk2c","","","null","","<span style=""color:Black; font-size:50px;"">Sandy","Sandy","STIM_SET_7/285851.bmp_pp81_L1_V1_veridical_freeview_isoFalse_fps144.mp4",""
"null","","","html-keyboard-response","355","1643513","0.0-355.0","kparyk2c","","<span style=""color:Black; font-size:50px;"">Video 2</span>","null","","","","",""
"null","","","video-keyboard-response","356","1646632","0.0-356.0","kparyk2c","","","null","","<span style=""color:Black; font-size:50px;"">Casey","Casey","STIM_SET_7/285851.bmp_pp71_L1_V1_veridical_freeview_isoFalse_fps144.mp4",""
"","","","call-function","357","1646633","0.0-357.0","kparyk2c","","","","","","","",""
"563.1350000000093","","","categorize-html","358","1649204","0.0-358.0","kparyk2c","","Which video showed <span style=""font-size:30px"">Sandy's</span> attention?","49","","","","","true"
"null","","","html-keyboard-response","359","1649707","0.0-359.0","kparyk2c",""," ","null","","","","",""
"","","","call-function","360","1649708","0.0-360.0","kparyk2c","","","","","","","",""
"null","","","html-keyboard-response","361","1651211","0.0-361.0","kparyk2c","","<span style=""color:Black; font-size:50px;"">Video 1</span>","null","","","","",""
"null","","","video-keyboard-response","362","1654319","0.0-362.0","kparyk2c","","","null","","<span style=""color:Black; font-size:50px;"">Sandy","Sandy","STIM_SET_7/498258.bmp_pp81_L1_V1_veridical_freeview_isoFalse_fps144.mp4",""
"null","","","html-keyboard-response","363","1655822","0.0-363.0","kparyk2c","","<span style=""color:Black; font-size:50px;"">Video 2</span>","null","","","","",""
"null","","","video-keyboard-response","364","1658923","0.0-364.0","kparyk2c","","","null","","<span style=""color:Black; font-size:50px;"">Casey","Casey","STIM_SET_7/498258.bmp_pp71_L1_V1_veridical_freeview_isoFalse_fps144.mp4",""
"","","","call-function","365","1658924","0.0-365.0","kparyk2c","","","","","","","",""
"383.9799999999814","","","categorize-html","366","1661314","0.0-366.0","kparyk2c","","Which video showed <span style=""font-size:30px"">Sandy's</span> attention?","49","","","","","true"
"null","","","html-keyboard-response","367","1661818","0.0-367.0","kparyk2c",""," ","null","","","","",""
"","","","call-function","368","1661818","0.0-368.0","kparyk2c","","","","","","","",""
"null","","","html-keyboard-response","369","1663324","0.0-369.0","kparyk2c","","<span style=""color:Black; font-size:50px;"">Video 1</span>","null","","","","",""
"null","","","video-keyboard-response","370","1666442","0.0-370.0","kparyk2c","","","null","","<span style=""color:Black; font-size:50px;"">Casey","Casey","STIM_SET_7/1592047.bmp_pp71_L1_V1_veridical_freeview_isoFalse_fps144.mp4",""
"null","","","html-keyboard-response","371","1667947","0.0-371.0","kparyk2c","","<span style=""color:Black; font-size:50px;"">Video 2</span>","null","","","","",""
"null","","","video-keyboard-response","372","1671060","0.0-372.0","kparyk2c","","","null","","<span style=""color:Black; font-size:50px;"">Sandy","Sandy","STIM_SET_7/1592047.bmp_pp81_L1_V1_veridical_freeview_isoFalse_fps144.mp4",""
"","","","call-function","373","1671060","0.0-373.0","kparyk2c","","","","","","","",""
"751.8100000000559","","","categorize-html","374","1673815","0.0-374.0","kparyk2c","","Which video showed <span style=""font-size:30px"">Sandy's</span> attention?","50","","","","","true"
"null","","","html-keyboard-response","375","1674319","0.0-375.0","kparyk2c",""," ","null","","","","",""
"","","","call-function","376","1674320","0.0-376.0","kparyk2c","","","","","","","",""
"null","","","html-keyboard-response","377","1675823","0.0-377.0","kparyk2c","","<span style=""color:Black; font-size:50px;"">Video 1</span>","null","","","","",""
"null","","","video-keyboard-response","378","1678943","0.0-378.0","kparyk2c","","","null","","<span style=""color:Black; font-size:50px;"">Sandy","Sandy","STIM_SET_7/713760.bmp_pp81_L1_V1_veridical_freeview_isoFalse_fps144.mp4",""
"null","","","html-keyboard-response","379","1680445","0.0-379.0","kparyk2c","","<span style=""color:Black; font-size:50px;"">Video 2</span>","null","","","","",""
"null","","","video-keyboard-response","380","1683517","0.0-380.0","kparyk2c","","","null","","<span style=""color:Black; font-size:50px;"">Casey","Casey","STIM_SET_7/713760.bmp_pp71_L1_V1_veridical_freeview_isoFalse_fps144.mp4",""
"","","","call-function","381","1683517","0.0-381.0","kparyk2c","","","","","","","",""
"454.18000000016764","","","categorize-html","382","1685976","0.0-382.0","kparyk2c","","Which video showed <span style=""font-size:30px"">Sandy's</span> attention?","49","","","","","true"
"null","","","html-keyboard-response","383","1686482","0.0-383.0","kparyk2c",""," ","null","","","","",""
"","","","call-function","384","1686483","0.0-384.0","kparyk2c","","","","","","","",""
"null","","","html-keyboard-response","385","1687986","0.0-385.0","kparyk2c","","<span style=""color:Black; font-size:50px;"">Video 1</span>","null","","","","",""
"null","","","video-keyboard-response","386","1691086","0.0-386.0","kparyk2c","","","null","","<span style=""color:Black; font-size:50px;"">Casey","Casey","STIM_SET_7/1159463.bmp_pp71_L1_V1_veridical_freeview_isoFalse_fps144.mp4",""
"null","","","html-keyboard-response","387","1692587","0.0-387.0","kparyk2c","","<span style=""color:Black; font-size:50px;"">Video 2</span>","null","","","","",""
"null","","","video-keyboard-response","388","1695671","0.0-388.0","kparyk2c","","","null","","<span style=""color:Black; font-size:50px;"">Sandy","Sandy","STIM_SET_7/1159463.bmp_pp81_L1_V1_veridical_freeview_isoFalse_fps144.mp4",""
"","","","call-function","389","1695671","0.0-389.0","kparyk2c","","","","","","","",""
"412.21999999997206","","","categorize-html","390","1698086","0.0-390.0","kparyk2c","","Which video showed <span style=""font-size:30px"">Sandy's</span> attention?","50","","","","","true"
"null","","","html-keyboard-response","391","1698592","0.0-391.0","kparyk2c",""," ","null","","","","",""
"","","","call-function","392","1698592","0.0-392.0","kparyk2c","","","","","","","",""
"null","","","html-keyboard-response","393","1700096","0.0-393.0","kparyk2c","","<span style=""color:Black; font-size:50px;"">Video 1</span>","null","","","","",""
"null","","","video-keyboard-response","394","1703172","0.0-394.0","kparyk2c","","","null","","<span style=""color:Black; font-size:50px;"">Casey","Casey","STIM_SET_7/1591977.bmp_pp71_L1_V1_veridical_freeview_isoFalse_fps144.mp4",""
"null","","","html-keyboard-response","395","1704677","0.0-395.0","kparyk2c","","<span style=""color:Black; font-size:50px;"">Video 2</span>","null","","","","",""
"null","","","video-keyboard-response","396","1707748","0.0-396.0","kparyk2c","","","null","","<span style=""color:Black; font-size:50px;"">Sandy","Sandy","STIM_SET_7/1591977.bmp_pp81_L1_V1_veridical_freeview_isoFalse_fps144.mp4",""
"","","","call-function","397","1707748","0.0-397.0","kparyk2c","","","","","","","",""
"671.7150000000838","","","categorize-html","398","1710423","0.0-398.0","kparyk2c","","Which video showed <span style=""font-size:30px"">Sandy's</span> attention?","50","","","","","true"
"null","","","html-keyboard-response","399","1710926","0.0-399.0","kparyk2c",""," ","null","","","","",""
"","","","call-function","400","1710927","0.0-400.0","kparyk2c","","","","","","","",""
"null","","","html-keyboard-response","401","1712433","0.0-401.0","kparyk2c","","<span style=""color:Black; font-size:50px;"">Video 1</span>","null","","","","",""
"null","","","video-keyboard-response","402","1715554","0.0-402.0","kparyk2c","","","null","","<span style=""color:Black; font-size:50px;"">Sandy","Sandy","STIM_SET_7/150273.bmp_pp81_L1_V1_veridical_freeview_isoFalse_fps144.mp4",""
"null","","","html-keyboard-response","403","1717059","0.0-403.0","kparyk2c","","<span style=""color:Black; font-size:50px;"">Video 2</span>","null","","","","",""
"null","","","video-keyboard-response","404","1720161","0.0-404.0","kparyk2c","","","null","","<span style=""color:Black; font-size:50px;"">Casey","Casey","STIM_SET_7/150273.bmp_pp71_L1_V1_veridical_freeview_isoFalse_fps144.mp4",""
"","","","call-function","405","1720162","0.0-405.0","kparyk2c","","","","","","","",""
"434.24500000011176","","","categorize-html","406","1722598","0.0-406.0","kparyk2c","","Which video showed <span style=""font-size:30px"">Sandy's</span> attention?","49","","","","","true"
"null","","","html-keyboard-response","407","1723102","0.0-407.0","kparyk2c",""," ","null","","","","",""
"","","","call-function","408","1723103","0.0-408.0","kparyk2c","","","","","","","",""
"null","","","html-keyboard-response","409","1724606","0.0-409.0","kparyk2c","","<span style=""color:Black; font-size:50px;"">Video 1</span>","null","","","","",""
"null","","","video-keyboard-response","410","1727716","0.0-410.0","kparyk2c","","","null","","<span style=""color:Black; font-size:50px;"">Casey","Casey","STIM_SET_7/712977.bmp_pp71_L1_V1_veridical_freeview_isoFalse_fps144.mp4",""
"null","","","html-keyboard-response","411","1729220","0.0-411.0","kparyk2c","","<span style=""color:Black; font-size:50px;"">Video 2</span>","null","","","","",""
"null","","","video-keyboard-response","412","1732328","0.0-412.0","kparyk2c","","","null","","<span style=""color:Black; font-size:50px;"">Sandy","Sandy","STIM_SET_7/712977.bmp_pp81_L1_V1_veridical_freeview_isoFalse_fps144.mp4",""
"","","","call-function","413","1732329","0.0-413.0","kparyk2c","","","","","","","",""
"1626.719999999972","","","categorize-html","414","1735959","0.0-414.0","kparyk2c","","Which video showed <span style=""font-size:30px"">Sandy's</span> attention?","50","","","","","true"
"null","","","html-keyboard-response","415","1736463","0.0-415.0","kparyk2c",""," ","null","","","","",""
"3604.5500000000466","","","instructions","416","1740068","0.0-416.0","kparyk2c","[{""page_index"":0,""viewing_time"":1813.625},{""page_index"":1,""viewing_time"":932.4350000000559},{""page_index"":2,""viewing_time"":858.3049999999348}]","","","","","","",""
"2470.4849999998696","","","instructions","417","1742539","0.0-417.0","kparyk2c","[{""page_index"":0,""viewing_time"":808.125},{""page_index"":1,""viewing_time"":830.0799999998417},{""page_index"":2,""viewing_time"":832.160000000149}]","","","","","","",""
"","","","call-function","418","1742539","0.0-418.0","kparyk2c","","","","","","","",""
"null","","","html-keyboard-response","419","1744041","0.0-419.0","kparyk2c","","<span style=""color:Black; font-size:50px;"">Video 1</span>","null","","","","",""
"null","","","video-keyboard-response","420","1747233","0.0-420.0","kparyk2c","","","null","","<span style=""color:Black; font-size:50px;"">Sandy","Sandy","STIM_SET_7/1592372.bmp_pp81_L1_V1_veridical_freeview_isoFalse_fps144.mp4",""
"null","","","html-keyboard-response","421","1748737","0.0-421.0","kparyk2c","","<span style=""color:Black; font-size:50px;"">Video 2</span>","null","","","","",""
"null","","","video-keyboard-response","422","1751847","0.0-422.0","kparyk2c","","","null","","<span style=""color:Black; font-size:50px;"">Casey","Casey","STIM_SET_7/1592372.bmp_pp71_L1_V1_veridical_freeview_isoFalse_fps144.mp4",""
"","","","call-function","423","1751848","0.0-423.0","kparyk2c","","","","","","","",""
"876.1000000000931","","","categorize-html","424","1754731","0.0-424.0","kparyk2c","","Which video showed <span style=""font-size:30px"">Sandy's</span> attention?","49","","","","","true"
"null","","","html-keyboard-response","425","1755235","0.0-425.0","kparyk2c",""," ","null","","","","",""
"","","","call-function","426","1755235","0.0-426.0","kparyk2c","","","","","","","",""
"null","","","html-keyboard-response","427","1756740","0.0-427.0","kparyk2c","","<span style=""color:Black; font-size:50px;"">Video 1</span>","null","","","","",""
"null","","","video-keyboard-response","428","1759835","0.0-428.0","kparyk2c","","","null","","<span style=""color:Black; font-size:50px;"">Casey","Casey","STIM_SET_7/1592836.bmp_pp71_L1_V1_veridical_freeview_isoFalse_fps144.mp4",""
"null","","","html-keyboard-response","429","1761337","0.0-429.0","kparyk2c","","<span style=""color:Black; font-size:50px;"">Video 2</span>","null","","","","",""
"null","","","video-keyboard-response","430","1764454","0.0-430.0","kparyk2c","","","null","","<span style=""color:Black; font-size:50px;"">Sandy","Sandy","STIM_SET_7/1592836.bmp_pp81_L1_V1_veridical_freeview_isoFalse_fps144.mp4",""
"","","","call-function","431","1764455","0.0-431.0","kparyk2c","","","","","","","",""
"1309.0749999999534","","","categorize-html","432","1767767","0.0-432.0","kparyk2c","","Which video showed <span style=""font-size:30px"">Sandy's</span> attention?","49","","","","","false"
"null","","","html-keyboard-response","433","1768270","0.0-433.0","kparyk2c",""," ","null","","","","",""
"","","","call-function","434","1768270","0.0-434.0","kparyk2c","","","","","","","",""
"null","","","html-keyboard-response","435","1769772","0.0-435.0","kparyk2c","","<span style=""color:Black; font-size:50px;"">Video 1</span>","null","","","","",""
"null","","","video-keyboard-response","436","1772846","0.0-436.0","kparyk2c","","","null","","<span style=""color:Black; font-size:50px;"">Sandy","Sandy","STIM_SET_7/285932.bmp_pp81_L1_V1_veridical_freeview_isoFalse_fps144.mp4",""
"null","","","html-keyboard-response","437","1774353","0.0-437.0","kparyk2c","","<span style=""color:Black; font-size:50px;"">Video 2</span>","null","","","","",""
"null","","","video-keyboard-response","438","1777424","0.0-438.0","kparyk2c","","","null","","<span style=""color:Black; font-size:50px;"">Casey","Casey","STIM_SET_7/285932.bmp_pp71_L1_V1_veridical_freeview_isoFalse_fps144.mp4",""
"","","","call-function","439","1777425","0.0-439.0","kparyk2c","","","","","","","",""
"338.84499999997206","","","categorize-html","440","1779770","0.0-440.0","kparyk2c","","Which video showed <span style=""font-size:30px"">Sandy's</span> attention?","49","","","","","true"
"null","","","html-keyboard-response","441","1780273","0.0-441.0","kparyk2c",""," ","null","","","","",""
"","","","call-function","442","1780273","0.0-442.0","kparyk2c","","","","","","","",""
"null","","","html-keyboard-response","443","1781777","0.0-443.0","kparyk2c","","<span style=""color:Black; font-size:50px;"">Video 1</span>","null","","","","",""
"null","","","video-keyboard-response","444","1784895","0.0-444.0","kparyk2c","","","null","","<span style=""color:Black; font-size:50px;"">Sandy","Sandy","STIM_SET_7/498108.bmp_pp81_L1_V1_veridical_freeview_isoFalse_fps144.mp4",""
"null","","","html-keyboard-response","445","1786399","0.0-445.0","kparyk2c","","<span style=""color:Black; font-size:50px;"">Video 2</span>","null","","","","",""
"null","","","video-keyboard-response","446","1789516","0.0-446.0","kparyk2c","","","null","","<span style=""color:Black; font-size:50px;"">Casey","Casey","STIM_SET_7/498108.bmp_pp71_L1_V1_veridical_freeview_isoFalse_fps144.mp4",""
"","","","call-function","447","1789517","0.0-447.0","kparyk2c","","","","","","","",""
"319","","","categorize-html","448","1791839","0.0-448.0","kparyk2c","","Which video showed <span style=""font-size:30px"">Sandy's</span> attention?","49","","","","","true"
"null","","","html-keyboard-response","449","1792341","0.0-449.0","kparyk2c",""," ","null","","","","",""
"","","","call-function","450","1792342","0.0-450.0","kparyk2c","","","","","","","",""
"null","","","html-keyboard-response","451","1793846","0.0-451.0","kparyk2c","","<span style=""color:Black; font-size:50px;"">Video 1</span>","null","","","","",""
"null","","","video-keyboard-response","452","1796964","0.0-452.0","kparyk2c","","","null","","<span style=""color:Black; font-size:50px;"">Sandy","Sandy","STIM_SET_7/1159440.bmp_pp81_L1_V1_veridical_freeview_isoFalse_fps144.mp4",""
"null","","","html-keyboard-response","453","1798467","0.0-453.0","kparyk2c","","<span style=""color:Black; font-size:50px;"">Video 2</span>","null","","","","",""
"null","","","video-keyboard-response","454","1801581","0.0-454.0","kparyk2c","","","null","","<span style=""color:Black; font-size:50px;"">Casey","Casey","STIM_SET_7/1159440.bmp_pp71_L1_V1_veridical_freeview_isoFalse_fps144.mp4",""
"","","","call-function","455","1801582","0.0-455.0","kparyk2c","","","","","","","",""
"510.035000000149","","","categorize-html","456","1804095","0.0-456.0","kparyk2c","","Which video showed <span style=""font-size:30px"">Sandy's</span> attention?","49","","","","","true"
"null","","","html-keyboard-response","457","1804601","0.0-457.0","kparyk2c",""," ","null","","","","",""
"","","","call-function","458","1804602","0.0-458.0","kparyk2c","","","","","","","",""
"null","","","html-keyboard-response","459","1806105","0.0-459.0","kparyk2c","","<span style=""color:Black; font-size:50px;"">Video 1</span>","null","","","","",""
"null","","","video-keyboard-response","460","1809215","0.0-460.0","kparyk2c","","","null","","<span style=""color:Black; font-size:50px;"">Casey","Casey","STIM_SET_7/61513.bmp_pp71_L1_V1_veridical_freeview_isoFalse_fps144.mp4",""
"null","","","html-keyboard-response","461","1810720","0.0-461.0","kparyk2c","","<span style=""color:Black; font-size:50px;"">Video 2</span>","null","","","","",""
"null","","","video-keyboard-response","462","1813820","0.0-462.0","kparyk2c","","","null","","<span style=""color:Black; font-size:50px;"">Sandy","Sandy","STIM_SET_7/61513.bmp_pp81_L1_V1_veridical_freeview_isoFalse_fps144.mp4",""
"","","","call-function","463","1813821","0.0-463.0","kparyk2c","","","","","","","",""
"831.5050000001211","","","categorize-html","464","1816655","0.0-464.0","kparyk2c","","Which video showed <span style=""font-size:30px"">Sandy's</span> attention?","50","","","","","true"
"null","","","html-keyboard-response","465","1817157","0.0-465.0","kparyk2c",""," ","null","","","","",""
"","","","call-function","466","1817157","0.0-466.0","kparyk2c","","","","","","","",""
"null","","","html-keyboard-response","467","1818664","0.0-467.0","kparyk2c","","<span style=""color:Black; font-size:50px;"">Video 1</span>","null","","","","",""
"null","","","video-keyboard-response","468","1821775","0.0-468.0","kparyk2c","","","null","","<span style=""color:Black; font-size:50px;"">Casey","Casey","STIM_SET_7/107906.bmp_pp71_L1_V1_veridical_freeview_isoFalse_fps144.mp4",""
"null","","","html-keyboard-response","469","1823279","0.0-469.0","kparyk2c","","<span style=""color:Black; font-size:50px;"">Video 2</span>","null","","","","",""
"null","","","video-keyboard-response","470","1826357","0.0-470.0","kparyk2c","","","null","","<span style=""color:Black; font-size:50px;"">Sandy","Sandy","STIM_SET_7/107906.bmp_pp81_L1_V1_veridical_freeview_isoFalse_fps144.mp4",""
"","","","call-function","471","1826358","0.0-471.0","kparyk2c","","","","","","","",""
"1238.0250000001397","","","categorize-html","472","1829601","0.0-472.0","kparyk2c","","Which video showed <span style=""font-size:30px"">Sandy's</span> attention?","49","","","","","false"
"null","","","html-keyboard-response","473","1830102","0.0-473.0","kparyk2c",""," ","null","","","","",""
"","","","call-function","474","1830103","0.0-474.0","kparyk2c","","","","","","","",""
"null","","","html-keyboard-response","475","1831608","0.0-475.0","kparyk2c","","<span style=""color:Black; font-size:50px;"">Video 1</span>","null","","","","",""
"null","","","video-keyboard-response","476","1834715","0.0-476.0","kparyk2c","","","null","","<span style=""color:Black; font-size:50px;"">Casey","Casey","STIM_SET_7/1592119.bmp_pp71_L1_V1_veridical_freeview_isoFalse_fps144.mp4",""
"null","","","html-keyboard-response","477","1836216","0.0-477.0","kparyk2c","","<span style=""color:Black; font-size:50px;"">Video 2</span>","null","","","","",""
"null","","","video-keyboard-response","478","1839303","0.0-478.0","kparyk2c","","","null","","<span style=""color:Black; font-size:50px;"">Sandy","Sandy","STIM_SET_7/1592119.bmp_pp81_L1_V1_veridical_freeview_isoFalse_fps144.mp4",""
"","","","call-function","479","1839304","0.0-479.0","kparyk2c","","","","","","","",""
"1876.6899999999441","","","categorize-html","480","1843183","0.0-480.0","kparyk2c","","Which video showed <span style=""font-size:30px"">Sandy's</span> attention?","50","","","","","true"
"null","","","html-keyboard-response","481","1843687","0.0-481.0","kparyk2c",""," ","null","","","","",""
"","","","call-function","482","1843688","0.0-482.0","kparyk2c","","","","","","","",""
"null","","","html-keyboard-response","483","1845190","0.0-483.0","kparyk2c","","<span style=""color:Black; font-size:50px;"">Video 1</span>","null","","","","",""
"null","","","video-keyboard-response","484","1848290","0.0-484.0","kparyk2c","","","null","","<span style=""color:Black; font-size:50px;"">Sandy","Sandy","STIM_SET_7/1592133.bmp_pp81_L1_V1_veridical_freeview_isoFalse_fps144.mp4",""
"null","","","html-keyboard-response","485","1849792","0.0-485.0","kparyk2c","","<span style=""color:Black; font-size:50px;"">Video 2</span>","null","","","","",""
"null","","","video-keyboard-response","486","1852913","0.0-486.0","kparyk2c","","","null","","<span style=""color:Black; font-size:50px;"">Casey","Casey","STIM_SET_7/1592133.bmp_pp71_L1_V1_veridical_freeview_isoFalse_fps144.mp4",""
"","","","call-function","487","1852913","0.0-487.0","kparyk2c","","","","","","","",""
"714.6200000001118","","","categorize-html","488","1855633","0.0-488.0","kparyk2c","","Which video showed <span style=""font-size:30px"">Sandy's</span> attention?","50","","","","","false"
"null","","","html-keyboard-response","489","1856135","0.0-489.0","kparyk2c",""," ","null","","","","",""
"","","","call-function","490","1856136","0.0-490.0","kparyk2c","","","","","","","",""
"null","","","html-keyboard-response","491","1857638","0.0-491.0","kparyk2c","","<span style=""color:Black; font-size:50px;"">Video 1</span>","null","","","","",""
"null","","","video-keyboard-response","492","1860752","0.0-492.0","kparyk2c","","","null","","<span style=""color:Black; font-size:50px;"">Sandy","Sandy","STIM_SET_7/1159427.bmp_pp81_L1_V1_veridical_freeview_isoFalse_fps144.mp4",""
"null","","","html-keyboard-response","493","1862257","0.0-493.0","kparyk2c","","<span style=""color:Black; font-size:50px;"">Video 2</span>","null","","","","",""
"null","","","video-keyboard-response","494","1865369","0.0-494.0","kparyk2c","","","null","","<span style=""color:Black; font-size:50px;"">Casey","Casey","STIM_SET_7/1159427.bmp_pp71_L1_V1_veridical_freeview_isoFalse_fps144.mp4",""
"","","","call-function","495","1865370","0.0-495.0","kparyk2c","","","","","","","",""
"834.1350000000093","","","categorize-html","496","1868207","0.0-496.0","kparyk2c","","Which video showed <span style=""font-size:30px"">Sandy's</span> attention?","50","","","","","false"
"null","","","html-keyboard-response","497","1868710","0.0-497.0","kparyk2c",""," ","null","","","","",""
"3703.5100000000093","","","instructions","498","1872414","0.0-498.0","kparyk2c","[{""page_index"":0,""viewing_time"":1890.3500000000931},{""page_index"":1,""viewing_time"":643.0799999998417},{""page_index"":2,""viewing_time"":1169.905000000028}]","","","","","","",""
"1813.630000000121","","","instructions","499","1874228","0.0-499.0","kparyk2c","[{""page_index"":0,""viewing_time"":508.8550000002142},{""page_index"":1,""viewing_time"":599.7099999999627},{""page_index"":2,""viewing_time"":704.9549999998417}]","","","","","","",""
"","","","call-function","500","1874228","0.0-500.0","kparyk2c","","","","","","","",""
"null","","","html-keyboard-response","501","1875730","0.0-501.0","kparyk2c","","<span style=""color:Black; font-size:50px;"">Video 1</span>","null","","","","",""
"null","","","video-keyboard-response","502","1878820","0.0-502.0","kparyk2c","","","null","","<span style=""color:Black; font-size:50px;"">Casey","Casey","STIM_SET_7/713936.bmp_pp71_L1_V1_veridical_freeview_isoFalse_fps144.mp4",""
"null","","","html-keyboard-response","503","1880324","0.0-503.0","kparyk2c","","<span style=""color:Black; font-size:50px;"">Video 2</span>","null","","","","",""
"null","","","video-keyboard-response","504","1883454","0.0-504.0","kparyk2c","","","null","","<span style=""color:Black; font-size:50px;"">Sandy","Sandy","STIM_SET_7/713936.bmp_pp81_L1_V1_veridical_freeview_isoFalse_fps144.mp4",""
"","","","call-function","505","1883454","0.0-505.0","kparyk2c","","","","","","","",""
"1389.1899999999441","","","categorize-html","506","1886847","0.0-506.0","kparyk2c","","Which video showed <span style=""font-size:30px"">Sandy's</span> attention?","50","","","","","true"
"null","","","html-keyboard-response","507","1887352","0.0-507.0","kparyk2c",""," ","null","","","","",""
"","","","call-function","508","1887353","0.0-508.0","kparyk2c","","","","","","","",""
"null","","","html-keyboard-response","509","1888857","0.0-509.0","kparyk2c","","<span style=""color:Black; font-size:50px;"">Video 1</span>","null","","","","",""
"null","","","video-keyboard-response","510","1891951","0.0-510.0","kparyk2c","","","null","","<span style=""color:Black; font-size:50px;"">Sandy","Sandy","STIM_SET_7/1592233.bmp_pp81_L1_V1_veridical_freeview_isoFalse_fps144.mp4",""
"null","","","html-keyboard-response","511","1893456","0.0-511.0","kparyk2c","","<span style=""color:Black; font-size:50px;"">Video 2</span>","null","","","","",""
"null","","","video-keyboard-response","512","1896560","0.0-512.0","kparyk2c","","","null","","<span style=""color:Black; font-size:50px;"">Casey","Casey","STIM_SET_7/1592233.bmp_pp71_L1_V1_veridical_freeview_isoFalse_fps144.mp4",""
"","","","call-function","513","1896561","0.0-513.0","kparyk2c","","","","","","","",""
"923.1300000001211","","","categorize-html","514","1899486","0.0-514.0","kparyk2c","","Which video showed <span style=""font-size:30px"">Sandy's</span> attention?","49","","","","","true"
"null","","","html-keyboard-response","515","1899991","0.0-515.0","kparyk2c",""," ","null","","","","",""
"","","","call-function","516","1899991","0.0-516.0","kparyk2c","","","","","","","",""
"null","","","html-keyboard-response","517","1901493","0.0-517.0","kparyk2c","","<span style=""color:Black; font-size:50px;"">Video 1</span>","null","","","","",""
"null","","","video-keyboard-response","518","1906013","0.0-518.0","kparyk2c","","","null","","<span style=""color:Black; font-size:50px;"">Sandy","Sandy","STIM_SET_7/1592568.bmp_pp81_L1_V1_veridical_freeview_isoFalse_fps144.mp4",""
"null","","","html-keyboard-response","519","1907514","0.0-519.0","kparyk2c","","<span style=""color:Black; font-size:50px;"">Video 2</span>","null","","","","",""
"null","","","video-keyboard-response","520","1910647","0.0-520.0","kparyk2c","","","null","","<span style=""color:Black; font-size:50px;"">Casey","Casey","STIM_SET_7/1592568.bmp_pp71_L1_V1_veridical_freeview_isoFalse_fps144.mp4",""
"","","","call-function","521","1910647","0.0-521.0","kparyk2c","","","","","","","",""
"2076.8850000000093","","","categorize-html","522","1914730","0.0-522.0","kparyk2c","","Which video showed <span style=""font-size:30px"">Sandy's</span> attention?","49","","","","","true"
"null","","","html-keyboard-response","523","1915235","0.0-523.0","kparyk2c",""," ","null","","","","",""
"","","","call-function","524","1915236","0.0-524.0","kparyk2c","","","","","","","",""
"null","","","html-keyboard-response","525","1916742","0.0-525.0","kparyk2c","","<span style=""color:Black; font-size:50px;"">Video 1</span>","null","","","","",""
"null","","","video-keyboard-response","526","1919823","0.0-526.0","kparyk2c","","","null","","<span style=""color:Black; font-size:50px;"">Casey","Casey","STIM_SET_7/1593146.bmp_pp71_L1_V1_veridical_freeview_isoFalse_fps144.mp4",""
"null","","","html-keyboard-response","527","1921330","0.0-527.0","kparyk2c","","<span style=""color:Black; font-size:50px;"">Video 2</span>","null","","","","",""
"null","","","video-keyboard-response","528","1924430","0.0-528.0","kparyk2c","","","null","","<span style=""color:Black; font-size:50px;"">Sandy","Sandy","STIM_SET_7/1593146.bmp_pp81_L1_V1_veridical_freeview_isoFalse_fps144.mp4",""
"","","","call-function","529","1924430","0.0-529.0","kparyk2c","","","","","","","",""
"1445.7150000000838","","","categorize-html","530","1927880","0.0-530.0","kparyk2c","","Which video showed <span style=""font-size:30px"">Sandy's</span> attention?","50","","","","","true"
"null","","","html-keyboard-response","531","1928384","0.0-531.0","kparyk2c",""," ","null","","","","",""
"","","","call-function","532","1928385","0.0-532.0","kparyk2c","","","","","","","",""
"null","","","html-keyboard-response","533","1929886","0.0-533.0","kparyk2c","","<span style=""color:Black; font-size:50px;"">Video 1</span>","null","","","","",""
"null","","","video-keyboard-response","534","1932999","0.0-534.0","kparyk2c","","","null","","<span style=""color:Black; font-size:50px;"">Casey","Casey","STIM_SET_7/713652.bmp_pp71_L1_V1_veridical_freeview_isoFalse_fps144.mp4",""
"null","","","html-keyboard-response","535","1934503","0.0-535.0","kparyk2c","","<span style=""color:Black; font-size:50px;"">Video 2</span>","null","","","","",""
"null","","","video-keyboard-response","536","1937621","0.0-536.0","kparyk2c","","","null","","<span style=""color:Black; font-size:50px;"">Sandy","Sandy","STIM_SET_7/713652.bmp_pp81_L1_V1_veridical_freeview_isoFalse_fps144.mp4",""
"","","","call-function","537","1937621","0.0-537.0","kparyk2c","","","","","","","",""
"487.1950000000652","","","categorize-html","538","1940114","0.0-538.0","kparyk2c","","Which video showed <span style=""font-size:30px"">Sandy's</span> attention?","49","","","","","false"
"null","","","html-keyboard-response","539","1940618","0.0-539.0","kparyk2c",""," ","null","","","","",""
"","","","call-function","540","1940619","0.0-540.0","kparyk2c","","","","","","","",""
"null","","","html-keyboard-response","541","1942122","0.0-541.0","kparyk2c","","<span style=""color:Black; font-size:50px;"">Video 1</span>","null","","","","",""
"null","","","video-keyboard-response","542","1945215","0.0-542.0","kparyk2c","","","null","","<span style=""color:Black; font-size:50px;"">Sandy","Sandy","STIM_SET_7/1593047.bmp_pp81_L1_V1_veridical_freeview_isoFalse_fps144.mp4",""
"null","","","html-keyboard-response","543","1946717","0.0-543.0","kparyk2c","","<span style=""color:Black; font-size:50px;"">Video 2</span>","null","","","","",""
"null","","","video-keyboard-response","544","1949823","0.0-544.0","kparyk2c","","","null","","<span style=""color:Black; font-size:50px;"">Casey","Casey","STIM_SET_7/1593047.bmp_pp71_L1_V1_veridical_freeview_isoFalse_fps144.mp4",""
"","","","call-function","545","1949825","0.0-545.0","kparyk2c","","","","","","","",""
"739.2349999998696","","","categorize-html","546","1952566","0.0-546.0","kparyk2c","","Which video showed <span style=""font-size:30px"">Sandy's</span> attention?","49","","","","","true"
"null","","","html-keyboard-response","547","1953069","0.0-547.0","kparyk2c",""," ","null","","","","",""
"","","","call-function","548","1953070","0.0-548.0","kparyk2c","","","","","","","",""
"null","","","html-keyboard-response","549","1954576","0.0-549.0","kparyk2c","","<span style=""color:Black; font-size:50px;"">Video 1</span>","null","","","","",""
"null","","","video-keyboard-response","550","1957653","0.0-550.0","kparyk2c","","","null","","<span style=""color:Black; font-size:50px;"">Sandy","Sandy","STIM_SET_7/1160140.bmp_pp81_L1_V1_veridical_freeview_isoFalse_fps144.mp4",""
"null","","","html-keyboard-response","551","1959159","0.0-551.0","kparyk2c","","<span style=""color:Black; font-size:50px;"">Video 2</span>","null","","","","",""
"null","","","video-keyboard-response","552","1962319","0.0-552.0","kparyk2c","","","null","","<span style=""color:Black; font-size:50px;"">Casey","Casey","STIM_SET_7/1160140.bmp_pp71_L1_V1_veridical_freeview_isoFalse_fps144.mp4",""
"","","","call-function","553","1962319","0.0-553.0","kparyk2c","","","","","","","",""
"917.3800000001211","","","categorize-html","554","1965242","0.0-554.0","kparyk2c","","Which video showed <span style=""font-size:30px"">Sandy's</span> attention?","50","","","","","false"
"null","","","html-keyboard-response","555","1965744","0.0-555.0","kparyk2c",""," ","null","","","","",""
"","","","call-function","556","1965745","0.0-556.0","kparyk2c","","","","","","","",""
"null","","","html-keyboard-response","557","1967246","0.0-557.0","kparyk2c","","<span style=""color:Black; font-size:50px;"">Video 1</span>","null","","","","",""
"null","","","video-keyboard-response","558","1970335","0.0-558.0","kparyk2c","","","null","","<span style=""color:Black; font-size:50px;"">Sandy","Sandy","STIM_SET_7/1592137.bmp_pp81_L1_V1_veridical_freeview_isoFalse_fps144.mp4",""
"null","","","html-keyboard-response","559","1971840","0.0-559.0","kparyk2c","","<span style=""color:Black; font-size:50px;"">Video 2</span>","null","","","","",""
"null","","","video-keyboard-response","560","1974994","0.0-560.0","kparyk2c","","","null","","<span style=""color:Black; font-size:50px;"">Casey","Casey","STIM_SET_7/1592137.bmp_pp71_L1_V1_veridical_freeview_isoFalse_fps144.mp4",""
"","","","call-function","561","1974995","0.0-561.0","kparyk2c","","","","","","","",""
"361.5150000001304","","","categorize-html","562","1977359","0.0-562.0","kparyk2c","","Which video showed <span style=""font-size:30px"">Sandy's</span> attention?","49","","","","","true"
"null","","","html-keyboard-response","563","1977864","0.0-563.0","kparyk2c",""," ","null","","","","",""
"","","","call-function","564","1977865","0.0-564.0","kparyk2c","","","","","","","",""
"null","","","html-keyboard-response","565","1979367","0.0-565.0","kparyk2c","","<span style=""color:Black; font-size:50px;"">Video 1</span>","null","","","","",""
"null","","","video-keyboard-response","566","1982474","0.0-566.0","kparyk2c","","","null","","<span style=""color:Black; font-size:50px;"">Casey","Casey","STIM_SET_7/1592025.bmp_pp71_L1_V1_veridical_freeview_isoFalse_fps144.mp4",""
"null","","","html-keyboard-response","567","1983978","0.0-567.0","kparyk2c","","<span style=""color:Black; font-size:50px;"">Video 2</span>","null","","","","",""
"null","","","video-keyboard-response","568","1987089","0.0-568.0","kparyk2c","","","null","","<span style=""color:Black; font-size:50px;"">Sandy","Sandy","STIM_SET_7/1592025.bmp_pp81_L1_V1_veridical_freeview_isoFalse_fps144.mp4",""
"","","","call-function","569","1987090","0.0-569.0","kparyk2c","","","","","","","",""
"3242.6149999999907","","","categorize-html","570","1992339","0.0-570.0","kparyk2c","","Which video showed <span style=""font-size:30px"">Sandy's</span> attention?","50","","","","","true"
"null","","","html-keyboard-response","571","1992842","0.0-571.0","kparyk2c",""," ","null","","","","",""
"","","","call-function","572","1992843","0.0-572.0","kparyk2c","","","","","","","",""
"null","","","html-keyboard-response","573","1994349","0.0-573.0","kparyk2c","","<span style=""color:Black; font-size:50px;"">Video 1</span>","null","","","","",""
"null","","","video-keyboard-response","574","1997471","0.0-574.0","kparyk2c","","","null","","<span style=""color:Black; font-size:50px;"">Sandy","Sandy","STIM_SET_7/1159486.bmp_pp81_L1_V1_veridical_freeview_isoFalse_fps144.mp4",""
"null","","","html-keyboard-response","575","1998974","0.0-575.0","kparyk2c","","<span style=""color:Black; font-size:50px;"">Video 2</span>","null","","","","",""
"null","","","video-keyboard-response","576","2002139","0.0-576.0","kparyk2c","","","null","","<span style=""color:Black; font-size:50px;"">Casey","Casey","STIM_SET_7/1159486.bmp_pp71_L1_V1_veridical_freeview_isoFalse_fps144.mp4",""
"","","","call-function","577","2002139","0.0-577.0","kparyk2c","","","","","","","",""
"337.18499999982305","","","categorize-html","578","2004481","0.0-578.0","kparyk2c","","Which video showed <span style=""font-size:30px"">Sandy's</span> attention?","49","","","","","true"
"null","","","html-keyboard-response","579","2004984","0.0-579.0","kparyk2c",""," ","null","","","","",""
"2284.6500000001397","","","instructions","580","2007269","0.0-580.0","kparyk2c","[{""page_index"":0,""viewing_time"":2284.5250000001397}]","","","","","","",""
"2547.4549999998417","","","instructions","581","2009817","0.0-581.0","kparyk2c","[{""page_index"":0,""viewing_time"":2547.339999999851}]","","","","","","",""
"58953.76000000001","{""Q0"":""It was a well set up test. It seemed Sandy did not look at the faces/words as much as Casey did.""}","","survey-text","582","2068777","0.0-582.0","kparyk2c","","","","","","","",""
"67395.55000000005","{""Q0"":""It seemed like Sandy was a little more sporadic with her attention. Casey's eyes tended to go more towards faces and words or more details and Sandy's attention did see those things but focused a little more on the background than Casey""}","","survey-text","583","2136177","0.0-583.0","kparyk2c","","","","","","","",""
"23386.935000000056","{""Q0"":""Some of the pictures they had very similar eye patterns""}","","survey-text","584","2159568","0.0-584.0","kparyk2c","","","","","","","",""
"1605.8149999999441","","","instructions","585","2161175","0.0-585.0","kparyk2c","[{""page_index"":0,""viewing_time"":1605.6949999998324}]","","","","","","",""
"135633.54499999993","{""Experimenter_end"":[""Printed ID# kparyk2c on consent form""]}","[0]","survey-multi-select","586","2296810","0.0-586.0","kparyk2c","","","","","","","",""
