"rt","responses","question_order","trial_type","trial_index","time_elapsed","internal_node_id","ID","view_history","stimulus","key_press","value","agent","condition","image","correct"
"16430.25","{""Experimenter"":[""Confirmed subject's identity (ID card)"",""Confirmed normal or corrected-to-normal vision"",""Obtained consent (signature and date)"",""Checked the test room lighting"",""Checked computer screen lighting"",""Checked distance from screen to chin rest (50cm)"",""Cleaned and adjusted chin rest"",""Counterbalanced the order of the tasks"",""Opened the experiment in Firefox"",""Made the experiment full screen"",""Encouraged subject to silence phone, put away distractors, etc.""]}","[0]","survey-multi-select","0","16438","0.0-0.0","j8d4trrh","","","","","","","",""
"1310194.065","","","instructions","1","1326635","0.0-1.0","j8d4trrh","[{""page_index"":0,""viewing_time"":1310193.91}]","","","","","","",""
"8738.285000000149","{""Age"":3,""Sex"":0,""Gender"":0}","[0,1,2]","survey-likert","2","1335376","0.0-2.0","j8d4trrh","","","","","","","",""
"1279.1800000001676","","","instructions","3","1336655","0.0-3.0","j8d4trrh","[{""page_index"":0,""viewing_time"":1279.0800000000745}]","","","","","","",""
"8967.665000000037","","","instructions","4","1345623","0.0-4.0","j8d4trrh","[{""page_index"":0,""viewing_time"":97.89999999990687},{""page_index"":1,""viewing_time"":969.8700000001118},{""page_index"":0,""viewing_time"":1475.094999999972},{""page_index"":1,""viewing_time"":3926.8000000000466},{""page_index"":2,""viewing_time"":2497.875}]","","","","","","",""
"1570.869999999879","","","instructions","5","1347195","0.0-5.0","j8d4trrh","[{""page_index"":0,""viewing_time"":1570.7600000000093}]","","","","","","",""
"null","","","video-keyboard-response","6","1350270","0.0-6.0","j8d4trrh","","","null","","","","",""
"31103.194999999832","","","instructions","7","1381374","0.0-7.0","j8d4trrh","[{""page_index"":0,""viewing_time"":3570.024999999907},{""page_index"":1,""viewing_time"":8872.169999999925},{""page_index"":2,""viewing_time"":69.375},{""page_index"":3,""viewing_time"":5802.725000000093},{""page_index"":4,""viewing_time"":1844.5449999999255},{""page_index"":5,""viewing_time"":3663.4950000001118},{""page_index"":6,""viewing_time"":5585.020000000019},{""page_index"":7,""viewing_time"":1695.714999999851}]","","","","","","",""
"4691.760000000009","","","instructions","8","1386066","0.0-8.0","j8d4trrh","[{""page_index"":0,""viewing_time"":4691.514999999898}]","","","","","","",""
"1303.7749999999069","","","instructions","9","1387370","0.0-9.0","j8d4trrh","[{""page_index"":0,""viewing_time"":1303.6650000000373}]","","","","","","",""
"","","","call-function","10","1387371","0.0-10.0","j8d4trrh","","","","","","","",""
"null","","","html-keyboard-response","11","1388873","0.0-11.0","j8d4trrh","","<span style=""color:Black; font-size:50px;"">Video 1</span>","null","","","","",""
"null","","","video-keyboard-response","12","1391942","0.0-12.0","j8d4trrh","","","null","","<span style=""color:Black; font-size:50px;"">Casey","Casey","subject_8/1592298.bmp_pp153_L3_V1_veridical_freeview_isoFalse_fps144.mp4",""
"null","","","html-keyboard-response","13","1393446","0.0-13.0","j8d4trrh","","<span style=""color:Black; font-size:50px;"">Video 2</span>","null","","","","",""
"null","","","video-keyboard-response","14","1396522","0.0-14.0","j8d4trrh","","","null","","<span style=""color:Black; font-size:50px;"">Sandy","Sandy","subject_8/1592298.bmp_pp92_L3_V1_veridical_freeview_isoFalse_fps144.mp4",""
"","","","call-function","15","1396522","0.0-15.0","j8d4trrh","","","","","","","",""
"2581.969999999972","","","categorize-html","16","1401111","0.0-16.0","j8d4trrh","","Which video showed <span style=""font-size:30px"">Sandy's</span> attention?","49","","","","","false"
"null","","","html-keyboard-response","17","1401613","0.0-17.0","j8d4trrh",""," ","null","","","","",""
"","","","call-function","18","1401614","0.0-18.0","j8d4trrh","","","","","","","",""
"null","","","html-keyboard-response","19","1403119","0.0-19.0","j8d4trrh","","<span style=""color:Black; font-size:50px;"">Video 1</span>","null","","","","",""
"null","","","video-keyboard-response","20","1406197","0.0-20.0","j8d4trrh","","","null","","<span style=""color:Black; font-size:50px;"">Casey","Casey","subject_8/1159592.bmp_pp153_L3_V1_veridical_freeview_isoFalse_fps144.mp4",""
"null","","","html-keyboard-response","21","1407701","0.0-21.0","j8d4trrh","","<span style=""color:Black; font-size:50px;"">Video 2</span>","null","","","","",""
"null","","","video-keyboard-response","22","1410777","0.0-22.0","j8d4trrh","","","null","","<span style=""color:Black; font-size:50px;"">Sandy","Sandy","subject_8/1159592.bmp_pp92_L3_V1_veridical_freeview_isoFalse_fps144.mp4",""
"","","","call-function","23","1410777","0.0-23.0","j8d4trrh","","","","","","","",""
"1277.4099999999162","","","categorize-html","24","1414060","0.0-24.0","j8d4trrh","","Which video showed <span style=""font-size:30px"">Sandy's</span> attention?","50","","","","","true"
"null","","","html-keyboard-response","25","1414563","0.0-25.0","j8d4trrh",""," ","null","","","","",""
"","","","call-function","26","1414563","0.0-26.0","j8d4trrh","","","","","","","",""
"null","","","html-keyboard-response","27","1416070","0.0-27.0","j8d4trrh","","<span style=""color:Black; font-size:50px;"">Video 1</span>","null","","","","",""
"null","","","video-keyboard-response","28","1419147","0.0-28.0","j8d4trrh","","","null","","<span style=""color:Black; font-size:50px;"">Casey","Casey","subject_8/1159621.bmp_pp153_L3_V1_veridical_freeview_isoFalse_fps144.mp4",""
"null","","","html-keyboard-response","29","1420651","0.0-29.0","j8d4trrh","","<span style=""color:Black; font-size:50px;"">Video 2</span>","null","","","","",""
"null","","","video-keyboard-response","30","1423715","0.0-30.0","j8d4trrh","","","null","","<span style=""color:Black; font-size:50px;"">Sandy","Sandy","subject_8/1159621.bmp_pp92_L3_V1_veridical_freeview_isoFalse_fps144.mp4",""
"","","","call-function","31","1423715","0.0-31.0","j8d4trrh","","","","","","","",""
"4219.895000000019","","","categorize-html","32","1429942","0.0-32.0","j8d4trrh","","Which video showed <span style=""font-size:30px"">Sandy's</span> attention?","49","","","","","false"
"null","","","html-keyboard-response","33","1430446","0.0-33.0","j8d4trrh",""," ","null","","","","",""
"","","","call-function","34","1430446","0.0-34.0","j8d4trrh","","","","","","","",""
"null","","","html-keyboard-response","35","1431948","0.0-35.0","j8d4trrh","","<span style=""color:Black; font-size:50px;"">Video 1</span>","null","","","","",""
"null","","","video-keyboard-response","36","1435044","0.0-36.0","j8d4trrh","","","null","","<span style=""color:Black; font-size:50px;"">Casey","Casey","subject_8/713684.bmp_pp153_L3_V1_veridical_freeview_isoFalse_fps144.mp4",""
"null","","","html-keyboard-response","37","1436548","0.0-37.0","j8d4trrh","","<span style=""color:Black; font-size:50px;"">Video 2</span>","null","","","","",""
"null","","","video-keyboard-response","38","1439633","0.0-38.0","j8d4trrh","","","null","","<span style=""color:Black; font-size:50px;"">Sandy","Sandy","subject_8/713684.bmp_pp92_L3_V1_veridical_freeview_isoFalse_fps144.mp4",""
"","","","call-function","39","1439633","0.0-39.0","j8d4trrh","","","","","","","",""
"2341.6750000000466","","","categorize-html","40","1443979","0.0-40.0","j8d4trrh","","Which video showed <span style=""font-size:30px"">Sandy's</span> attention?","49","","","","","false"
"null","","","html-keyboard-response","41","1444485","0.0-41.0","j8d4trrh",""," ","null","","","","",""
"","","","call-function","42","1444485","0.0-42.0","j8d4trrh","","","","","","","",""
"null","","","html-keyboard-response","43","1445988","0.0-43.0","j8d4trrh","","<span style=""color:Black; font-size:50px;"">Video 1</span>","null","","","","",""
"null","","","video-keyboard-response","44","1449073","0.0-44.0","j8d4trrh","","","null","","<span style=""color:Black; font-size:50px;"">Sandy","Sandy","subject_8/713796.bmp_pp92_L3_V1_veridical_freeview_isoFalse_fps144.mp4",""
"null","","","html-keyboard-response","45","1450575","0.0-45.0","j8d4trrh","","<span style=""color:Black; font-size:50px;"">Video 2</span>","null","","","","",""
"null","","","video-keyboard-response","46","1453670","0.0-46.0","j8d4trrh","","","null","","<span style=""color:Black; font-size:50px;"">Casey","Casey","subject_8/713796.bmp_pp153_L3_V1_veridical_freeview_isoFalse_fps144.mp4",""
"","","","call-function","47","1453671","0.0-47.0","j8d4trrh","","","","","","","",""
"1400.2299999999814","","","categorize-html","48","1457078","0.0-48.0","j8d4trrh","","Which video showed <span style=""font-size:30px"">Sandy's</span> attention?","50","","","","","false"
"null","","","html-keyboard-response","49","1457582","0.0-49.0","j8d4trrh",""," ","null","","","","",""
"","","","call-function","50","1457582","0.0-50.0","j8d4trrh","","","","","","","",""
"null","","","html-keyboard-response","51","1459085","0.0-51.0","j8d4trrh","","<span style=""color:Black; font-size:50px;"">Video 1</span>","null","","","","",""
"null","","","video-keyboard-response","52","1462181","0.0-52.0","j8d4trrh","","","null","","<span style=""color:Black; font-size:50px;"">Sandy","Sandy","subject_8/497926.bmp_pp92_L3_V1_veridical_freeview_isoFalse_fps144.mp4",""
"null","","","html-keyboard-response","53","1463683","0.0-53.0","j8d4trrh","","<span style=""color:Black; font-size:50px;"">Video 2</span>","null","","","","",""
"null","","","video-keyboard-response","54","1466788","0.0-54.0","j8d4trrh","","","null","","<span style=""color:Black; font-size:50px;"">Casey","Casey","subject_8/497926.bmp_pp153_L3_V1_veridical_freeview_isoFalse_fps144.mp4",""
"","","","call-function","55","1466788","0.0-55.0","j8d4trrh","","","","","","","",""
"3066.725000000093","","","categorize-html","56","1471858","0.0-56.0","j8d4trrh","","Which video showed <span style=""font-size:30px"">Sandy's</span> attention?","50","","","","","false"
"null","","","html-keyboard-response","57","1472361","0.0-57.0","j8d4trrh",""," ","null","","","","",""
"","","","call-function","58","1472362","0.0-58.0","j8d4trrh","","","","","","","",""
"null","","","html-keyboard-response","59","1473865","0.0-59.0","j8d4trrh","","<span style=""color:Black; font-size:50px;"">Video 1</span>","null","","","","",""
"null","","","video-keyboard-response","60","1476941","0.0-60.0","j8d4trrh","","","null","","<span style=""color:Black; font-size:50px;"">Casey","Casey","subject_8/713620.bmp_pp153_L3_V1_veridical_freeview_isoFalse_fps144.mp4",""
"null","","","html-keyboard-response","61","1478446","0.0-61.0","j8d4trrh","","<span style=""color:Black; font-size:50px;"">Video 2</span>","null","","","","",""
"null","","","video-keyboard-response","62","1481508","0.0-62.0","j8d4trrh","","","null","","<span style=""color:Black; font-size:50px;"">Sandy","Sandy","subject_8/713620.bmp_pp92_L3_V1_veridical_freeview_isoFalse_fps144.mp4",""
"","","","call-function","63","1481508","0.0-63.0","j8d4trrh","","","","","","","",""
"1603.1450000000186","","","categorize-html","64","1485114","0.0-64.0","j8d4trrh","","Which video showed <span style=""font-size:30px"">Sandy's</span> attention?","49","","","","","false"
"null","","","html-keyboard-response","65","1485619","0.0-65.0","j8d4trrh",""," ","null","","","","",""
"","","","call-function","66","1485620","0.0-66.0","j8d4trrh","","","","","","","",""
"null","","","html-keyboard-response","67","1487122","0.0-67.0","j8d4trrh","","<span style=""color:Black; font-size:50px;"">Video 1</span>","null","","","","",""
"null","","","video-keyboard-response","68","1490182","0.0-68.0","j8d4trrh","","","null","","<span style=""color:Black; font-size:50px;"">Sandy","Sandy","subject_8/286034.bmp_pp92_L3_V1_veridical_freeview_isoFalse_fps144.mp4",""
"null","","","html-keyboard-response","69","1491683","0.0-69.0","j8d4trrh","","<span style=""color:Black; font-size:50px;"">Video 2</span>","null","","","","",""
"null","","","video-keyboard-response","70","1494742","0.0-70.0","j8d4trrh","","","null","","<span style=""color:Black; font-size:50px;"">Casey","Casey","subject_8/286034.bmp_pp153_L3_V1_veridical_freeview_isoFalse_fps144.mp4",""
"","","","call-function","71","1494743","0.0-71.0","j8d4trrh","","","","","","","",""
"3760.1699999999255","","","categorize-html","72","1500510","0.0-72.0","j8d4trrh","","Which video showed <span style=""font-size:30px"">Sandy's</span> attention?","50","","","","","false"
"null","","","html-keyboard-response","73","1501016","0.0-73.0","j8d4trrh",""," ","null","","","","",""
"","","","call-function","74","1501016","0.0-74.0","j8d4trrh","","","","","","","",""
"null","","","html-keyboard-response","75","1502519","0.0-75.0","j8d4trrh","","<span style=""color:Black; font-size:50px;"">Video 1</span>","null","","","","",""
"null","","","video-keyboard-response","76","1505624","0.0-76.0","j8d4trrh","","","null","","<span style=""color:Black; font-size:50px;"">Casey","Casey","subject_8/713211.bmp_pp153_L3_V1_veridical_freeview_isoFalse_fps144.mp4",""
"null","","","html-keyboard-response","77","1507128","0.0-77.0","j8d4trrh","","<span style=""color:Black; font-size:50px;"">Video 2</span>","null","","","","",""
"null","","","video-keyboard-response","78","1510217","0.0-78.0","j8d4trrh","","","null","","<span style=""color:Black; font-size:50px;"">Sandy","Sandy","subject_8/713211.bmp_pp92_L3_V1_veridical_freeview_isoFalse_fps144.mp4",""
"","","","call-function","79","1510217","0.0-79.0","j8d4trrh","","","","","","","",""
"2253.564999999944","","","categorize-html","80","1514474","0.0-80.0","j8d4trrh","","Which video showed <span style=""font-size:30px"">Sandy's</span> attention?","49","","","","","false"
"null","","","html-keyboard-response","81","1514981","0.0-81.0","j8d4trrh",""," ","null","","","","",""
"","","","call-function","82","1514981","0.0-82.0","j8d4trrh","","","","","","","",""
"null","","","html-keyboard-response","83","1516484","0.0-83.0","j8d4trrh","","<span style=""color:Black; font-size:50px;"">Video 1</span>","null","","","","",""
"null","","","video-keyboard-response","84","1519581","0.0-84.0","j8d4trrh","","","null","","<span style=""color:Black; font-size:50px;"">Sandy","Sandy","subject_8/1592303.bmp_pp92_L3_V1_veridical_freeview_isoFalse_fps144.mp4",""
"null","","","html-keyboard-response","85","1521085","0.0-85.0","j8d4trrh","","<span style=""color:Black; font-size:50px;"">Video 2</span>","null","","","","",""
"null","","","video-keyboard-response","86","1524182","0.0-86.0","j8d4trrh","","","null","","<span style=""color:Black; font-size:50px;"">Casey","Casey","subject_8/1592303.bmp_pp153_L3_V1_veridical_freeview_isoFalse_fps144.mp4",""
"","","","call-function","87","1524182","0.0-87.0","j8d4trrh","","","","","","","",""
"9713.089999999851","","","categorize-html","88","1535901","0.0-88.0","j8d4trrh","","Which video showed <span style=""font-size:30px"">Sandy's</span> attention?","49","","","","","true"
"null","","","html-keyboard-response","89","1536406","0.0-89.0","j8d4trrh",""," ","null","","","","",""
"7612.685000000056","","","instructions","90","1544019","0.0-90.0","j8d4trrh","[{""page_index"":0,""viewing_time"":5344.51500000013},{""page_index"":1,""viewing_time"":1497.0699999998324},{""page_index"":2,""viewing_time"":770.875}]","","","","","","",""
"7197.569999999832","","","instructions","91","1551217","0.0-91.0","j8d4trrh","[{""page_index"":0,""viewing_time"":3709.029999999795},{""page_index"":1,""viewing_time"":2614.465000000084},{""page_index"":2,""viewing_time"":873.9650000000838}]","","","","","","",""
"","","","call-function","92","1551217","0.0-92.0","j8d4trrh","","","","","","","",""
"null","","","html-keyboard-response","93","1552722","0.0-93.0","j8d4trrh","","<span style=""color:Black; font-size:50px;"">Video 1</span>","null","","","","",""
"null","","","video-keyboard-response","94","1555781","0.0-94.0","j8d4trrh","","","null","","<span style=""color:Black; font-size:50px;"">Sandy","Sandy","subject_8/1592378.bmp_pp92_L3_V1_veridical_freeview_isoFalse_fps144.mp4",""
"null","","","html-keyboard-response","95","1557285","0.0-95.0","j8d4trrh","","<span style=""color:Black; font-size:50px;"">Video 2</span>","null","","","","",""
"null","","","video-keyboard-response","96","1560350","0.0-96.0","j8d4trrh","","","null","","<span style=""color:Black; font-size:50px;"">Casey","Casey","subject_8/1592378.bmp_pp153_L3_V1_veridical_freeview_isoFalse_fps144.mp4",""
"","","","call-function","97","1560351","0.0-97.0","j8d4trrh","","","","","","","",""
"12248.719999999972","","","categorize-html","98","1574601","0.0-98.0","j8d4trrh","","Which video showed <span style=""font-size:30px"">Sandy's</span> attention?","50","","","","","false"
"null","","","html-keyboard-response","99","1575103","0.0-99.0","j8d4trrh",""," ","null","","","","",""
"","","","call-function","100","1575103","0.0-100.0","j8d4trrh","","","","","","","",""
"null","","","html-keyboard-response","101","1576607","0.0-101.0","j8d4trrh","","<span style=""color:Black; font-size:50px;"">Video 1</span>","null","","","","",""
"null","","","video-keyboard-response","102","1579674","0.0-102.0","j8d4trrh","","","null","","<span style=""color:Black; font-size:50px;"">Casey","Casey","subject_8/498079.bmp_pp153_L3_V1_veridical_freeview_isoFalse_fps144.mp4",""
"null","","","html-keyboard-response","103","1581179","0.0-103.0","j8d4trrh","","<span style=""color:Black; font-size:50px;"">Video 2</span>","null","","","","",""
"null","","","video-keyboard-response","104","1584247","0.0-104.0","j8d4trrh","","","null","","<span style=""color:Black; font-size:50px;"">Sandy","Sandy","subject_8/498079.bmp_pp92_L3_V1_veridical_freeview_isoFalse_fps144.mp4",""
"","","","call-function","105","1584248","0.0-105.0","j8d4trrh","","","","","","","",""
"2055.25","","","categorize-html","106","1588306","0.0-106.0","j8d4trrh","","Which video showed <span style=""font-size:30px"">Sandy's</span> attention?","50","","","","","true"
"null","","","html-keyboard-response","107","1588810","0.0-107.0","j8d4trrh",""," ","null","","","","",""
"","","","call-function","108","1588811","0.0-108.0","j8d4trrh","","","","","","","",""
"null","","","html-keyboard-response","109","1590317","0.0-109.0","j8d4trrh","","<span style=""color:Black; font-size:50px;"">Video 1</span>","null","","","","",""
"null","","","video-keyboard-response","110","1593427","0.0-110.0","j8d4trrh","","","null","","<span style=""color:Black; font-size:50px;"">Sandy","Sandy","subject_8/1592727.bmp_pp92_L3_V1_veridical_freeview_isoFalse_fps144.mp4",""
"null","","","html-keyboard-response","111","1594932","0.0-111.0","j8d4trrh","","<span style=""color:Black; font-size:50px;"">Video 2</span>","null","","","","",""
"null","","","video-keyboard-response","112","1598018","0.0-112.0","j8d4trrh","","","null","","<span style=""color:Black; font-size:50px;"">Casey","Casey","subject_8/1592727.bmp_pp153_L3_V1_veridical_freeview_isoFalse_fps144.mp4",""
"","","","call-function","113","1598019","0.0-113.0","j8d4trrh","","","","","","","",""
"1588.5849999999627","","","categorize-html","114","1601609","0.0-114.0","j8d4trrh","","Which video showed <span style=""font-size:30px"">Sandy's</span> attention?","49","","","","","true"
"null","","","html-keyboard-response","115","1602115","0.0-115.0","j8d4trrh",""," ","null","","","","",""
"","","","call-function","116","1602115","0.0-116.0","j8d4trrh","","","","","","","",""
"null","","","html-keyboard-response","117","1603618","0.0-117.0","j8d4trrh","","<span style=""color:Black; font-size:50px;"">Video 1</span>","null","","","","",""
"null","","","video-keyboard-response","118","1606703","0.0-118.0","j8d4trrh","","","null","","<span style=""color:Black; font-size:50px;"">Sandy","Sandy","subject_8/498032.bmp_pp92_L3_V1_veridical_freeview_isoFalse_fps144.mp4",""
"null","","","html-keyboard-response","119","1608206","0.0-119.0","j8d4trrh","","<span style=""color:Black; font-size:50px;"">Video 2</span>","null","","","","",""
"null","","","video-keyboard-response","120","1611302","0.0-120.0","j8d4trrh","","","null","","<span style=""color:Black; font-size:50px;"">Casey","Casey","subject_8/498032.bmp_pp153_L3_V1_veridical_freeview_isoFalse_fps144.mp4",""
"","","","call-function","121","1611303","0.0-121.0","j8d4trrh","","","","","","","",""
"1328.619999999879","","","categorize-html","122","1614634","0.0-122.0","j8d4trrh","","Which video showed <span style=""font-size:30px"">Sandy's</span> attention?","49","","","","","true"
"null","","","html-keyboard-response","123","1615140","0.0-123.0","j8d4trrh",""," ","null","","","","",""
"","","","call-function","124","1615140","0.0-124.0","j8d4trrh","","","","","","","",""
"null","","","html-keyboard-response","125","1616643","0.0-125.0","j8d4trrh","","<span style=""color:Black; font-size:50px;"">Video 1</span>","null","","","","",""
"null","","","video-keyboard-response","126","1619710","0.0-126.0","j8d4trrh","","","null","","<span style=""color:Black; font-size:50px;"">Casey","Casey","subject_8/1592817.bmp_pp153_L3_V1_veridical_freeview_isoFalse_fps144.mp4",""
"null","","","html-keyboard-response","127","1621212","0.0-127.0","j8d4trrh","","<span style=""color:Black; font-size:50px;"">Video 2</span>","null","","","","",""
"null","","","video-keyboard-response","128","1624274","0.0-128.0","j8d4trrh","","","null","","<span style=""color:Black; font-size:50px;"">Sandy","Sandy","subject_8/1592817.bmp_pp92_L3_V1_veridical_freeview_isoFalse_fps144.mp4",""
"","","","call-function","129","1624274","0.0-129.0","j8d4trrh","","","","","","","",""
"589.2650000001304","","","categorize-html","130","1626869","0.0-130.0","j8d4trrh","","Which video showed <span style=""font-size:30px"">Sandy's</span> attention?","49","","","","","false"
"null","","","html-keyboard-response","131","1627371","0.0-131.0","j8d4trrh",""," ","null","","","","",""
"","","","call-function","132","1627372","0.0-132.0","j8d4trrh","","","","","","","",""
"null","","","html-keyboard-response","133","1628878","0.0-133.0","j8d4trrh","","<span style=""color:Black; font-size:50px;"">Video 1</span>","null","","","","",""
"null","","","video-keyboard-response","134","1631975","0.0-134.0","j8d4trrh","","","null","","<span style=""color:Black; font-size:50px;"">Casey","Casey","subject_8/1160152.bmp_pp153_L3_V1_veridical_freeview_isoFalse_fps144.mp4",""
"null","","","html-keyboard-response","135","1633477","0.0-135.0","j8d4trrh","","<span style=""color:Black; font-size:50px;"">Video 2</span>","null","","","","",""
"null","","","video-keyboard-response","136","1636572","0.0-136.0","j8d4trrh","","","null","","<span style=""color:Black; font-size:50px;"">Sandy","Sandy","subject_8/1160152.bmp_pp92_L3_V1_veridical_freeview_isoFalse_fps144.mp4",""
"","","","call-function","137","1636572","0.0-137.0","j8d4trrh","","","","","","","",""
"1523.1599999999162","","","categorize-html","138","1640101","0.0-138.0","j8d4trrh","","Which video showed <span style=""font-size:30px"">Sandy's</span> attention?","49","","","","","false"
"null","","","html-keyboard-response","139","1640606","0.0-139.0","j8d4trrh",""," ","null","","","","",""
"","","","call-function","140","1640606","0.0-140.0","j8d4trrh","","","","","","","",""
"null","","","html-keyboard-response","141","1642113","0.0-141.0","j8d4trrh","","<span style=""color:Black; font-size:50px;"">Video 1</span>","null","","","","",""
"null","","","video-keyboard-response","142","1645191","0.0-142.0","j8d4trrh","","","null","","<span style=""color:Black; font-size:50px;"">Casey","Casey","subject_8/1592519.bmp_pp153_L3_V1_veridical_freeview_isoFalse_fps144.mp4",""
"null","","","html-keyboard-response","143","1646695","0.0-143.0","j8d4trrh","","<span style=""color:Black; font-size:50px;"">Video 2</span>","null","","","","",""
"null","","","video-keyboard-response","144","1649754","0.0-144.0","j8d4trrh","","","null","","<span style=""color:Black; font-size:50px;"">Sandy","Sandy","subject_8/1592519.bmp_pp92_L3_V1_veridical_freeview_isoFalse_fps144.mp4",""
"","","","call-function","145","1649754","0.0-145.0","j8d4trrh","","","","","","","",""
"6469.094999999972","","","categorize-html","146","1658228","0.0-146.0","j8d4trrh","","Which video showed <span style=""font-size:30px"">Sandy's</span> attention?","50","","","","","true"
"null","","","html-keyboard-response","147","1658731","0.0-147.0","j8d4trrh",""," ","null","","","","",""
"","","","call-function","148","1658731","0.0-148.0","j8d4trrh","","","","","","","",""
"null","","","html-keyboard-response","149","1660238","0.0-149.0","j8d4trrh","","<span style=""color:Black; font-size:50px;"">Video 1</span>","null","","","","",""
"null","","","video-keyboard-response","150","1663349","0.0-150.0","j8d4trrh","","","null","","<span style=""color:Black; font-size:50px;"">Casey","Casey","subject_8/713718.bmp_pp153_L3_V1_veridical_freeview_isoFalse_fps144.mp4",""
"null","","","html-keyboard-response","151","1664853","0.0-151.0","j8d4trrh","","<span style=""color:Black; font-size:50px;"">Video 2</span>","null","","","","",""
"null","","","video-keyboard-response","152","1667958","0.0-152.0","j8d4trrh","","","null","","<span style=""color:Black; font-size:50px;"">Sandy","Sandy","subject_8/713718.bmp_pp92_L3_V1_veridical_freeview_isoFalse_fps144.mp4",""
"","","","call-function","153","1667959","0.0-153.0","j8d4trrh","","","","","","","",""
"1696.5500000000466","","","categorize-html","154","1671660","0.0-154.0","j8d4trrh","","Which video showed <span style=""font-size:30px"">Sandy's</span> attention?","49","","","","","false"
"null","","","html-keyboard-response","155","1672166","0.0-155.0","j8d4trrh",""," ","null","","","","",""
"","","","call-function","156","1672166","0.0-156.0","j8d4trrh","","","","","","","",""
"null","","","html-keyboard-response","157","1673671","0.0-157.0","j8d4trrh","","<span style=""color:Black; font-size:50px;"">Video 1</span>","null","","","","",""
"null","","","video-keyboard-response","158","1676785","0.0-158.0","j8d4trrh","","","null","","<span style=""color:Black; font-size:50px;"">Sandy","Sandy","subject_8/150463.bmp_pp92_L3_V1_veridical_freeview_isoFalse_fps144.mp4",""
"null","","","html-keyboard-response","159","1678292","0.0-159.0","j8d4trrh","","<span style=""color:Black; font-size:50px;"">Video 2</span>","null","","","","",""
"null","","","video-keyboard-response","160","1681387","0.0-160.0","j8d4trrh","","","null","","<span style=""color:Black; font-size:50px;"">Casey","Casey","subject_8/150463.bmp_pp153_L3_V1_veridical_freeview_isoFalse_fps144.mp4",""
"","","","call-function","161","1681388","0.0-161.0","j8d4trrh","","","","","","","",""
"1291.655000000028","","","categorize-html","162","1684683","0.0-162.0","j8d4trrh","","Which video showed <span style=""font-size:30px"">Sandy's</span> attention?","49","","","","","true"
"null","","","html-keyboard-response","163","1685188","0.0-163.0","j8d4trrh",""," ","null","","","","",""
"","","","call-function","164","1685188","0.0-164.0","j8d4trrh","","","","","","","",""
"null","","","html-keyboard-response","165","1686692","0.0-165.0","j8d4trrh","","<span style=""color:Black; font-size:50px;"">Video 1</span>","null","","","","",""
"null","","","video-keyboard-response","166","1689768","0.0-166.0","j8d4trrh","","","null","","<span style=""color:Black; font-size:50px;"">Casey","Casey","subject_8/1591858.bmp_pp153_L3_V1_veridical_freeview_isoFalse_fps144.mp4",""
"null","","","html-keyboard-response","167","1691274","0.0-167.0","j8d4trrh","","<span style=""color:Black; font-size:50px;"">Video 2</span>","null","","","","",""
"null","","","video-keyboard-response","168","1694348","0.0-168.0","j8d4trrh","","","null","","<span style=""color:Black; font-size:50px;"">Sandy","Sandy","subject_8/1591858.bmp_pp92_L3_V1_veridical_freeview_isoFalse_fps144.mp4",""
"","","","call-function","169","1694349","0.0-169.0","j8d4trrh","","","","","","","",""
"2002.7750000001397","","","categorize-html","170","1698354","0.0-170.0","j8d4trrh","","Which video showed <span style=""font-size:30px"">Sandy's</span> attention?","49","","","","","false"
"null","","","html-keyboard-response","171","1698860","0.0-171.0","j8d4trrh",""," ","null","","","","",""
"34126.580000000075","","","instructions","172","1732987","0.0-172.0","j8d4trrh","[{""page_index"":0,""viewing_time"":1817.1999999999534},{""page_index"":1,""viewing_time"":29839.850000000093},{""page_index"":2,""viewing_time"":2469.409999999916}]","","","","","","",""
"2530.284999999916","","","instructions","173","1735518","0.0-173.0","j8d4trrh","[{""page_index"":0,""viewing_time"":932.4449999998324},{""page_index"":1,""viewing_time"":838.9000000001397},{""page_index"":2,""viewing_time"":758.8300000000745}]","","","","","","",""
"","","","call-function","174","1735518","0.0-174.0","j8d4trrh","","","","","","","",""
"null","","","html-keyboard-response","175","1737020","0.0-175.0","j8d4trrh","","<span style=""color:Black; font-size:50px;"">Video 1</span>","null","","","","",""
"null","","","video-keyboard-response","176","1740094","0.0-176.0","j8d4trrh","","","null","","<span style=""color:Black; font-size:50px;"">Casey","Casey","subject_8/1592350.bmp_pp153_L3_V1_veridical_freeview_isoFalse_fps144.mp4",""
"null","","","html-keyboard-response","177","1741598","0.0-177.0","j8d4trrh","","<span style=""color:Black; font-size:50px;"">Video 2</span>","null","","","","",""
"null","","","video-keyboard-response","178","1744666","0.0-178.0","j8d4trrh","","","null","","<span style=""color:Black; font-size:50px;"">Sandy","Sandy","subject_8/1592350.bmp_pp92_L3_V1_veridical_freeview_isoFalse_fps144.mp4",""
"","","","call-function","179","1744666","0.0-179.0","j8d4trrh","","","","","","","",""
"7284.899999999907","","","categorize-html","180","1753954","0.0-180.0","j8d4trrh","","Which video showed <span style=""font-size:30px"">Sandy's</span> attention?","50","","","","","true"
"null","","","html-keyboard-response","181","1754460","0.0-181.0","j8d4trrh",""," ","null","","","","",""
"","","","call-function","182","1754460","0.0-182.0","j8d4trrh","","","","","","","",""
"null","","","html-keyboard-response","183","1755964","0.0-183.0","j8d4trrh","","<span style=""color:Black; font-size:50px;"">Video 1</span>","null","","","","",""
"null","","","video-keyboard-response","184","1759041","0.0-184.0","j8d4trrh","","","null","","<span style=""color:Black; font-size:50px;"">Casey","Casey","subject_8/498058.bmp_pp153_L3_V1_veridical_freeview_isoFalse_fps144.mp4",""
"null","","","html-keyboard-response","185","1760545","0.0-185.0","j8d4trrh","","<span style=""color:Black; font-size:50px;"">Video 2</span>","null","","","","",""
"null","","","video-keyboard-response","186","1763622","0.0-186.0","j8d4trrh","","","null","","<span style=""color:Black; font-size:50px;"">Sandy","Sandy","subject_8/498058.bmp_pp92_L3_V1_veridical_freeview_isoFalse_fps144.mp4",""
"","","","call-function","187","1763622","0.0-187.0","j8d4trrh","","","","","","","",""
"1313.2150000000838","","","categorize-html","188","1766938","0.0-188.0","j8d4trrh","","Which video showed <span style=""font-size:30px"">Sandy's</span> attention?","49","","","","","false"
"null","","","html-keyboard-response","189","1767440","0.0-189.0","j8d4trrh",""," ","null","","","","",""
"","","","call-function","190","1767440","0.0-190.0","j8d4trrh","","","","","","","",""
"null","","","html-keyboard-response","191","1768942","0.0-191.0","j8d4trrh","","<span style=""color:Black; font-size:50px;"">Video 1</span>","null","","","","",""
"null","","","video-keyboard-response","192","1772050","0.0-192.0","j8d4trrh","","","null","","<span style=""color:Black; font-size:50px;"">Sandy","Sandy","subject_8/1159991.bmp_pp92_L3_V1_veridical_freeview_isoFalse_fps144.mp4",""
"null","","","html-keyboard-response","193","1773557","0.0-193.0","j8d4trrh","","<span style=""color:Black; font-size:50px;"">Video 2</span>","null","","","","",""
"null","","","video-keyboard-response","194","1776654","0.0-194.0","j8d4trrh","","","null","","<span style=""color:Black; font-size:50px;"">Casey","Casey","subject_8/1159991.bmp_pp153_L3_V1_veridical_freeview_isoFalse_fps144.mp4",""
"","","","call-function","195","1776655","0.0-195.0","j8d4trrh","","","","","","","",""
"2184.935000000056","","","categorize-html","196","1780846","0.0-196.0","j8d4trrh","","Which video showed <span style=""font-size:30px"">Sandy's</span> attention?","50","","","","","false"
"null","","","html-keyboard-response","197","1781349","0.0-197.0","j8d4trrh",""," ","null","","","","",""
"","","","call-function","198","1781350","0.0-198.0","j8d4trrh","","","","","","","",""
"null","","","html-keyboard-response","199","1782854","0.0-199.0","j8d4trrh","","<span style=""color:Black; font-size:50px;"">Video 1</span>","null","","","","",""
"null","","","video-keyboard-response","200","1785943","0.0-200.0","j8d4trrh","","","null","","<span style=""color:Black; font-size:50px;"">Sandy","Sandy","subject_8/1159648.bmp_pp92_L3_V1_veridical_freeview_isoFalse_fps144.mp4",""
"null","","","html-keyboard-response","201","1787446","0.0-201.0","j8d4trrh","","<span style=""color:Black; font-size:50px;"">Video 2</span>","null","","","","",""
"null","","","video-keyboard-response","202","1790538","0.0-202.0","j8d4trrh","","","null","","<span style=""color:Black; font-size:50px;"">Casey","Casey","subject_8/1159648.bmp_pp153_L3_V1_veridical_freeview_isoFalse_fps144.mp4",""
"","","","call-function","203","1790539","0.0-203.0","j8d4trrh","","","","","","","",""
"2292.5749999999534","","","categorize-html","204","1794835","0.0-204.0","j8d4trrh","","Which video showed <span style=""font-size:30px"">Sandy's</span> attention?","49","","","","","true"
"null","","","html-keyboard-response","205","1795340","0.0-205.0","j8d4trrh",""," ","null","","","","",""
"","","","call-function","206","1795340","0.0-206.0","j8d4trrh","","","","","","","",""
"null","","","html-keyboard-response","207","1796846","0.0-207.0","j8d4trrh","","<span style=""color:Black; font-size:50px;"">Video 1</span>","null","","","","",""
"null","","","video-keyboard-response","208","1799939","0.0-208.0","j8d4trrh","","","null","","<span style=""color:Black; font-size:50px;"">Casey","Casey","subject_8/1160019.bmp_pp153_L3_V1_veridical_freeview_isoFalse_fps144.mp4",""
"null","","","html-keyboard-response","209","1801441","0.0-209.0","j8d4trrh","","<span style=""color:Black; font-size:50px;"">Video 2</span>","null","","","","",""
"null","","","video-keyboard-response","210","1804502","0.0-210.0","j8d4trrh","","","null","","<span style=""color:Black; font-size:50px;"">Sandy","Sandy","subject_8/1160019.bmp_pp92_L3_V1_veridical_freeview_isoFalse_fps144.mp4",""
"","","","call-function","211","1804503","0.0-211.0","j8d4trrh","","","","","","","",""
"9232.579999999842","","","categorize-html","212","1815742","0.0-212.0","j8d4trrh","","Which video showed <span style=""font-size:30px"">Sandy's</span> attention?","49","","","","","false"
"null","","","html-keyboard-response","213","1816245","0.0-213.0","j8d4trrh",""," ","null","","","","",""
"","","","call-function","214","1816245","0.0-214.0","j8d4trrh","","","","","","","",""
"null","","","html-keyboard-response","215","1817750","0.0-215.0","j8d4trrh","","<span style=""color:Black; font-size:50px;"">Video 1</span>","null","","","","",""
"null","","","video-keyboard-response","216","1820827","0.0-216.0","j8d4trrh","","","null","","<span style=""color:Black; font-size:50px;"">Sandy","Sandy","subject_8/1592619.bmp_pp92_L3_V1_veridical_freeview_isoFalse_fps144.mp4",""
"null","","","html-keyboard-response","217","1822330","0.0-217.0","j8d4trrh","","<span style=""color:Black; font-size:50px;"">Video 2</span>","null","","","","",""
"null","","","video-keyboard-response","218","1825397","0.0-218.0","j8d4trrh","","","null","","<span style=""color:Black; font-size:50px;"">Casey","Casey","subject_8/1592619.bmp_pp153_L3_V1_veridical_freeview_isoFalse_fps144.mp4",""
"","","","call-function","219","1825397","0.0-219.0","j8d4trrh","","","","","","","",""
"1682.2750000001397","","","categorize-html","220","1829087","0.0-220.0","j8d4trrh","","Which video showed <span style=""font-size:30px"">Sandy's</span> attention?","50","","","","","false"
"null","","","html-keyboard-response","221","1829590","0.0-221.0","j8d4trrh",""," ","null","","","","",""
"","","","call-function","222","1829590","0.0-222.0","j8d4trrh","","","","","","","",""
"null","","","html-keyboard-response","223","1831094","0.0-223.0","j8d4trrh","","<span style=""color:Black; font-size:50px;"">Video 1</span>","null","","","","",""
"null","","","video-keyboard-response","224","1834158","0.0-224.0","j8d4trrh","","","null","","<span style=""color:Black; font-size:50px;"">Casey","Casey","subject_8/1592951.bmp_pp153_L3_V1_veridical_freeview_isoFalse_fps144.mp4",""
"null","","","html-keyboard-response","225","1835664","0.0-225.0","j8d4trrh","","<span style=""color:Black; font-size:50px;"">Video 2</span>","null","","","","",""
"null","","","video-keyboard-response","226","1838776","0.0-226.0","j8d4trrh","","","null","","<span style=""color:Black; font-size:50px;"">Sandy","Sandy","subject_8/1592951.bmp_pp92_L3_V1_veridical_freeview_isoFalse_fps144.mp4",""
"","","","call-function","227","1838776","0.0-227.0","j8d4trrh","","","","","","","",""
"1959.4599999999627","","","categorize-html","228","1842738","0.0-228.0","j8d4trrh","","Which video showed <span style=""font-size:30px"">Sandy's</span> attention?","49","","","","","false"
"null","","","html-keyboard-response","229","1843241","0.0-229.0","j8d4trrh",""," ","null","","","","",""
"","","","call-function","230","1843241","0.0-230.0","j8d4trrh","","","","","","","",""
"null","","","html-keyboard-response","231","1844748","0.0-231.0","j8d4trrh","","<span style=""color:Black; font-size:50px;"">Video 1</span>","null","","","","",""
"null","","","video-keyboard-response","232","1847851","0.0-232.0","j8d4trrh","","","null","","<span style=""color:Black; font-size:50px;"">Sandy","Sandy","subject_8/285684.bmp_pp92_L3_V1_veridical_freeview_isoFalse_fps144.mp4",""
"null","","","html-keyboard-response","233","1849353","0.0-233.0","j8d4trrh","","<span style=""color:Black; font-size:50px;"">Video 2</span>","null","","","","",""
"null","","","video-keyboard-response","234","1852449","0.0-234.0","j8d4trrh","","","null","","<span style=""color:Black; font-size:50px;"">Casey","Casey","subject_8/285684.bmp_pp153_L3_V1_veridical_freeview_isoFalse_fps144.mp4",""
"","","","call-function","235","1852450","0.0-235.0","j8d4trrh","","","","","","","",""
"4029.844999999972","","","categorize-html","236","1858484","0.0-236.0","j8d4trrh","","Which video showed <span style=""font-size:30px"">Sandy's</span> attention?","50","","","","","false"
"null","","","html-keyboard-response","237","1858987","0.0-237.0","j8d4trrh",""," ","null","","","","",""
"","","","call-function","238","1858988","0.0-238.0","j8d4trrh","","","","","","","",""
"null","","","html-keyboard-response","239","1860489","0.0-239.0","j8d4trrh","","<span style=""color:Black; font-size:50px;"">Video 1</span>","null","","","","",""
"null","","","video-keyboard-response","240","1863594","0.0-240.0","j8d4trrh","","","null","","<span style=""color:Black; font-size:50px;"">Sandy","Sandy","subject_8/1159956.bmp_pp92_L3_V1_veridical_freeview_isoFalse_fps144.mp4",""
"null","","","html-keyboard-response","241","1865098","0.0-241.0","j8d4trrh","","<span style=""color:Black; font-size:50px;"">Video 2</span>","null","","","","",""
"null","","","video-keyboard-response","242","1868174","0.0-242.0","j8d4trrh","","","null","","<span style=""color:Black; font-size:50px;"">Casey","Casey","subject_8/1159956.bmp_pp153_L3_V1_veridical_freeview_isoFalse_fps144.mp4",""
"","","","call-function","243","1868174","0.0-243.0","j8d4trrh","","","","","","","",""
"1337.375","","","categorize-html","244","1871518","0.0-244.0","j8d4trrh","","Which video showed <span style=""font-size:30px"">Sandy's</span> attention?","50","","","","","false"
"null","","","html-keyboard-response","245","1872021","0.0-245.0","j8d4trrh",""," ","null","","","","",""
"","","","call-function","246","1872021","0.0-246.0","j8d4trrh","","","","","","","",""
"null","","","html-keyboard-response","247","1873525","0.0-247.0","j8d4trrh","","<span style=""color:Black; font-size:50px;"">Video 1</span>","null","","","","",""
"null","","","video-keyboard-response","248","1876635","0.0-248.0","j8d4trrh","","","null","","<span style=""color:Black; font-size:50px;"">Casey","Casey","subject_8/150384.bmp_pp153_L3_V1_veridical_freeview_isoFalse_fps144.mp4",""
"null","","","html-keyboard-response","249","1878136","0.0-249.0","j8d4trrh","","<span style=""color:Black; font-size:50px;"">Video 2</span>","null","","","","",""
"null","","","video-keyboard-response","250","1881245","0.0-250.0","j8d4trrh","","","null","","<span style=""color:Black; font-size:50px;"">Sandy","Sandy","subject_8/150384.bmp_pp92_L3_V1_veridical_freeview_isoFalse_fps144.mp4",""
"","","","call-function","251","1881246","0.0-251.0","j8d4trrh","","","","","","","",""
"1370.0449999999255","","","categorize-html","252","1884621","0.0-252.0","j8d4trrh","","Which video showed <span style=""font-size:30px"">Sandy's</span> attention?","49","","","","","false"
"null","","","html-keyboard-response","253","1885128","0.0-253.0","j8d4trrh",""," ","null","","","","",""
"9197.104999999981","","","instructions","254","1894325","0.0-254.0","j8d4trrh","[{""page_index"":0,""viewing_time"":3374.9850000001024},{""page_index"":1,""viewing_time"":4790.020000000019},{""page_index"":2,""viewing_time"":1031.9849999998696}]","","","","","","",""
"1259.9250000000466","","","instructions","255","1895586","0.0-255.0","j8d4trrh","[{""page_index"":0,""viewing_time"":601.5549999999348},{""page_index"":1,""viewing_time"":599.190000000177},{""page_index"":2,""viewing_time"":59.05999999982305}]","","","","","","",""
"","","","call-function","256","1895586","0.0-256.0","j8d4trrh","","","","","","","",""
"null","","","html-keyboard-response","257","1897089","0.0-257.0","j8d4trrh","","<span style=""color:Black; font-size:50px;"">Video 1</span>","null","","","","",""
"null","","","video-keyboard-response","258","1900148","0.0-258.0","j8d4trrh","","","null","","<span style=""color:Black; font-size:50px;"">Casey","Casey","subject_8/713640.bmp_pp153_L3_V1_veridical_freeview_isoFalse_fps144.mp4",""
"null","","","html-keyboard-response","259","1901654","0.0-259.0","j8d4trrh","","<span style=""color:Black; font-size:50px;"">Video 2</span>","null","","","","",""
"null","","","video-keyboard-response","260","1904716","0.0-260.0","j8d4trrh","","","null","","<span style=""color:Black; font-size:50px;"">Sandy","Sandy","subject_8/713640.bmp_pp92_L3_V1_veridical_freeview_isoFalse_fps144.mp4",""
"","","","call-function","261","1904716","0.0-261.0","j8d4trrh","","","","","","","",""
"2490.814999999944","","","categorize-html","262","1909211","0.0-262.0","j8d4trrh","","Which video showed <span style=""font-size:30px"">Sandy's</span> attention?","50","","","","","true"
"null","","","html-keyboard-response","263","1909714","0.0-263.0","j8d4trrh",""," ","null","","","","",""
"","","","call-function","264","1909715","0.0-264.0","j8d4trrh","","","","","","","",""
"null","","","html-keyboard-response","265","1911218","0.0-265.0","j8d4trrh","","<span style=""color:Black; font-size:50px;"">Video 1</span>","null","","","","",""
"null","","","video-keyboard-response","266","1914293","0.0-266.0","j8d4trrh","","","null","","<span style=""color:Black; font-size:50px;"">Sandy","Sandy","subject_8/1592027.bmp_pp92_L3_V1_veridical_freeview_isoFalse_fps144.mp4",""
"null","","","html-keyboard-response","267","1915795","0.0-267.0","j8d4trrh","","<span style=""color:Black; font-size:50px;"">Video 2</span>","null","","","","",""
"null","","","video-keyboard-response","268","1918884","0.0-268.0","j8d4trrh","","","null","","<span style=""color:Black; font-size:50px;"">Casey","Casey","subject_8/1592027.bmp_pp153_L3_V1_veridical_freeview_isoFalse_fps144.mp4",""
"","","","call-function","269","1918885","0.0-269.0","j8d4trrh","","","","","","","",""
"1258.5200000000186","","","categorize-html","270","1922146","0.0-270.0","j8d4trrh","","Which video showed <span style=""font-size:30px"">Sandy's</span> attention?","49","","","","","true"
"null","","","html-keyboard-response","271","1922648","0.0-271.0","j8d4trrh",""," ","null","","","","",""
"","","","call-function","272","1922648","0.0-272.0","j8d4trrh","","","","","","","",""
"null","","","html-keyboard-response","273","1924152","0.0-273.0","j8d4trrh","","<span style=""color:Black; font-size:50px;"">Video 1</span>","null","","","","",""
"null","","","video-keyboard-response","274","1927247","0.0-274.0","j8d4trrh","","","null","","<span style=""color:Black; font-size:50px;"">Sandy","Sandy","subject_8/1159446.bmp_pp92_L3_V1_veridical_freeview_isoFalse_fps144.mp4",""
"null","","","html-keyboard-response","275","1928752","0.0-275.0","j8d4trrh","","<span style=""color:Black; font-size:50px;"">Video 2</span>","null","","","","",""
"null","","","video-keyboard-response","276","1931815","0.0-276.0","j8d4trrh","","","null","","<span style=""color:Black; font-size:50px;"">Casey","Casey","subject_8/1159446.bmp_pp153_L3_V1_veridical_freeview_isoFalse_fps144.mp4",""
"","","","call-function","277","1931816","0.0-277.0","j8d4trrh","","","","","","","",""
"1519.9849999998696","","","categorize-html","278","1935341","0.0-278.0","j8d4trrh","","Which video showed <span style=""font-size:30px"">Sandy's</span> attention?","49","","","","","true"
"null","","","html-keyboard-response","279","1935845","0.0-279.0","j8d4trrh",""," ","null","","","","",""
"","","","call-function","280","1935845","0.0-280.0","j8d4trrh","","","","","","","",""
"null","","","html-keyboard-response","281","1937348","0.0-281.0","j8d4trrh","","<span style=""color:Black; font-size:50px;"">Video 1</span>","null","","","","",""
"null","","","video-keyboard-response","282","1940452","0.0-282.0","j8d4trrh","","","null","","<span style=""color:Black; font-size:50px;"">Sandy","Sandy","subject_8/1593102.bmp_pp92_L3_V1_veridical_freeview_isoFalse_fps144.mp4",""
"null","","","html-keyboard-response","283","1941955","0.0-283.0","j8d4trrh","","<span style=""color:Black; font-size:50px;"">Video 2</span>","null","","","","",""
"null","","","video-keyboard-response","284","1945056","0.0-284.0","j8d4trrh","","","null","","<span style=""color:Black; font-size:50px;"">Casey","Casey","subject_8/1593102.bmp_pp153_L3_V1_veridical_freeview_isoFalse_fps144.mp4",""
"","","","call-function","285","1945056","0.0-285.0","j8d4trrh","","","","","","","",""
"2278.8799999998882","","","categorize-html","286","1949340","0.0-286.0","j8d4trrh","","Which video showed <span style=""font-size:30px"">Sandy's</span> attention?","50","","","","","false"
"null","","","html-keyboard-response","287","1949844","0.0-287.0","j8d4trrh",""," ","null","","","","",""
"","","","call-function","288","1949845","0.0-288.0","j8d4trrh","","","","","","","",""
"null","","","html-keyboard-response","289","1951348","0.0-289.0","j8d4trrh","","<span style=""color:Black; font-size:50px;"">Video 1</span>","null","","","","",""
"null","","","video-keyboard-response","290","1954444","0.0-290.0","j8d4trrh","","","null","","<span style=""color:Black; font-size:50px;"">Casey","Casey","subject_8/498405.bmp_pp153_L3_V1_veridical_freeview_isoFalse_fps144.mp4",""
"null","","","html-keyboard-response","291","1955946","0.0-291.0","j8d4trrh","","<span style=""color:Black; font-size:50px;"">Video 2</span>","null","","","","",""
"null","","","video-keyboard-response","292","1959051","0.0-292.0","j8d4trrh","","","null","","<span style=""color:Black; font-size:50px;"">Sandy","Sandy","subject_8/498405.bmp_pp92_L3_V1_veridical_freeview_isoFalse_fps144.mp4",""
"","","","call-function","293","1959051","0.0-293.0","j8d4trrh","","","","","","","",""
"5476.2050000000745","","","categorize-html","294","1966530","0.0-294.0","j8d4trrh","","Which video showed <span style=""font-size:30px"">Sandy's</span> attention?","50","","","","","true"
"null","","","html-keyboard-response","295","1967032","0.0-295.0","j8d4trrh",""," ","null","","","","",""
"","","","call-function","296","1967032","0.0-296.0","j8d4trrh","","","","","","","",""
"null","","","html-keyboard-response","297","1968534","0.0-297.0","j8d4trrh","","<span style=""color:Black; font-size:50px;"">Video 1</span>","null","","","","",""
"null","","","video-keyboard-response","298","1971600","0.0-298.0","j8d4trrh","","","null","","<span style=""color:Black; font-size:50px;"">Sandy","Sandy","subject_8/1592314.bmp_pp92_L3_V1_veridical_freeview_isoFalse_fps144.mp4",""
"null","","","html-keyboard-response","299","1973104","0.0-299.0","j8d4trrh","","<span style=""color:Black; font-size:50px;"">Video 2</span>","null","","","","",""
"null","","","video-keyboard-response","300","1976165","0.0-300.0","j8d4trrh","","","null","","<span style=""color:Black; font-size:50px;"">Casey","Casey","subject_8/1592314.bmp_pp153_L3_V1_veridical_freeview_isoFalse_fps144.mp4",""
"","","","call-function","301","1976166","0.0-301.0","j8d4trrh","","","","","","","",""
"713.9250000000466","","","categorize-html","302","1978885","0.0-302.0","j8d4trrh","","Which video showed <span style=""font-size:30px"">Sandy's</span> attention?","50","","","","","false"
"null","","","html-keyboard-response","303","1979388","0.0-303.0","j8d4trrh",""," ","null","","","","",""
"","","","call-function","304","1979388","0.0-304.0","j8d4trrh","","","","","","","",""
"null","","","html-keyboard-response","305","1980895","0.0-305.0","j8d4trrh","","<span style=""color:Black; font-size:50px;"">Video 1</span>","null","","","","",""
"null","","","video-keyboard-response","306","1983954","0.0-306.0","j8d4trrh","","","null","","<span style=""color:Black; font-size:50px;"">Sandy","Sandy","subject_8/498024.bmp_pp92_L3_V1_veridical_freeview_isoFalse_fps144.mp4",""
"null","","","html-keyboard-response","307","1985457","0.0-307.0","j8d4trrh","","<span style=""color:Black; font-size:50px;"">Video 2</span>","null","","","","",""
"null","","","video-keyboard-response","308","1988553","0.0-308.0","j8d4trrh","","","null","","<span style=""color:Black; font-size:50px;"">Casey","Casey","subject_8/498024.bmp_pp153_L3_V1_veridical_freeview_isoFalse_fps144.mp4",""
"","","","call-function","309","1988553","0.0-309.0","j8d4trrh","","","","","","","",""
"1286.344999999972","","","categorize-html","310","1991847","0.0-310.0","j8d4trrh","","Which video showed <span style=""font-size:30px"">Sandy's</span> attention?","49","","","","","true"
"null","","","html-keyboard-response","311","1992353","0.0-311.0","j8d4trrh",""," ","null","","","","",""
"","","","call-function","312","1992353","0.0-312.0","j8d4trrh","","","","","","","",""
"null","","","html-keyboard-response","313","1993855","0.0-313.0","j8d4trrh","","<span style=""color:Black; font-size:50px;"">Video 1</span>","null","","","","",""
"null","","","video-keyboard-response","314","1996916","0.0-314.0","j8d4trrh","","","null","","<span style=""color:Black; font-size:50px;"">Sandy","Sandy","subject_8/1160158.bmp_pp92_L3_V1_veridical_freeview_isoFalse_fps144.mp4",""
"null","","","html-keyboard-response","315","1998418","0.0-315.0","j8d4trrh","","<span style=""color:Black; font-size:50px;"">Video 2</span>","null","","","","",""
"null","","","video-keyboard-response","316","2001516","0.0-316.0","j8d4trrh","","","null","","<span style=""color:Black; font-size:50px;"">Casey","Casey","subject_8/1160158.bmp_pp153_L3_V1_veridical_freeview_isoFalse_fps144.mp4",""
"","","","call-function","317","2001516","0.0-317.0","j8d4trrh","","","","","","","",""
"1443.809999999823","","","categorize-html","318","2004966","0.0-318.0","j8d4trrh","","Which video showed <span style=""font-size:30px"">Sandy's</span> attention?","49","","","","","true"
"null","","","html-keyboard-response","319","2005472","0.0-319.0","j8d4trrh",""," ","null","","","","",""
"","","","call-function","320","2005472","0.0-320.0","j8d4trrh","","","","","","","",""
"null","","","html-keyboard-response","321","2006975","0.0-321.0","j8d4trrh","","<span style=""color:Black; font-size:50px;"">Video 1</span>","null","","","","",""
"null","","","video-keyboard-response","322","2010066","0.0-322.0","j8d4trrh","","","null","","<span style=""color:Black; font-size:50px;"">Casey","Casey","subject_8/1591920.bmp_pp153_L3_V1_veridical_freeview_isoFalse_fps144.mp4",""
"null","","","html-keyboard-response","323","2011573","0.0-323.0","j8d4trrh","","<span style=""color:Black; font-size:50px;"">Video 2</span>","null","","","","",""
"null","","","video-keyboard-response","324","2014663","0.0-324.0","j8d4trrh","","","null","","<span style=""color:Black; font-size:50px;"">Sandy","Sandy","subject_8/1591920.bmp_pp92_L3_V1_veridical_freeview_isoFalse_fps144.mp4",""
"","","","call-function","325","2014664","0.0-325.0","j8d4trrh","","","","","","","",""
"2175.8549999999814","","","categorize-html","326","2018844","0.0-326.0","j8d4trrh","","Which video showed <span style=""font-size:30px"">Sandy's</span> attention?","49","","","","","false"
"null","","","html-keyboard-response","327","2019351","0.0-327.0","j8d4trrh",""," ","null","","","","",""
"","","","call-function","328","2019351","0.0-328.0","j8d4trrh","","","","","","","",""
"null","","","html-keyboard-response","329","2020858","0.0-329.0","j8d4trrh","","<span style=""color:Black; font-size:50px;"">Video 1</span>","null","","","","",""
"null","","","video-keyboard-response","330","2023962","0.0-330.0","j8d4trrh","","","null","","<span style=""color:Black; font-size:50px;"">Casey","Casey","subject_8/1593058.bmp_pp153_L3_V1_veridical_freeview_isoFalse_fps144.mp4",""
"null","","","html-keyboard-response","331","2025468","0.0-331.0","j8d4trrh","","<span style=""color:Black; font-size:50px;"">Video 2</span>","null","","","","",""
"null","","","video-keyboard-response","332","2028555","0.0-332.0","j8d4trrh","","","null","","<span style=""color:Black; font-size:50px;"">Sandy","Sandy","subject_8/1593058.bmp_pp92_L3_V1_veridical_freeview_isoFalse_fps144.mp4",""
"","","","call-function","333","2028556","0.0-333.0","j8d4trrh","","","","","","","",""
"700.0800000000745","","","categorize-html","334","2031260","0.0-334.0","j8d4trrh","","Which video showed <span style=""font-size:30px"">Sandy's</span> attention?","49","","","","","false"
"null","","","html-keyboard-response","335","2031764","0.0-335.0","j8d4trrh",""," ","null","","","","",""
"20777.12999999989","","","instructions","336","2052542","0.0-336.0","j8d4trrh","[{""page_index"":0,""viewing_time"":2539.6299999998882},{""page_index"":1,""viewing_time"":17493.985000000102},{""page_index"":2,""viewing_time"":743.2700000000186}]","","","","","","",""
"2621.5849999999627","","","instructions","337","2055165","0.0-337.0","j8d4trrh","[{""page_index"":0,""viewing_time"":844.2099999999627},{""page_index"":1,""viewing_time"":1037.1850000000559},{""page_index"":2,""viewing_time"":739.5849999999627}]","","","","","","",""
"","","","call-function","338","2055167","0.0-338.0","j8d4trrh","","","","","","","",""
"null","","","html-keyboard-response","339","2056669","0.0-339.0","j8d4trrh","","<span style=""color:Black; font-size:50px;"">Video 1</span>","null","","","","",""
"null","","","video-keyboard-response","340","2059730","0.0-340.0","j8d4trrh","","","null","","<span style=""color:Black; font-size:50px;"">Sandy","Sandy","subject_8/498151.bmp_pp92_L3_V1_veridical_freeview_isoFalse_fps144.mp4",""
"null","","","html-keyboard-response","341","2061236","0.0-341.0","j8d4trrh","","<span style=""color:Black; font-size:50px;"">Video 2</span>","null","","","","",""
"null","","","video-keyboard-response","342","2064312","0.0-342.0","j8d4trrh","","","null","","<span style=""color:Black; font-size:50px;"">Casey","Casey","subject_8/498151.bmp_pp153_L3_V1_veridical_freeview_isoFalse_fps144.mp4",""
"","","","call-function","343","2064313","0.0-343.0","j8d4trrh","","","","","","","",""
"24014.14500000002","","","categorize-html","344","2090334","0.0-344.0","j8d4trrh","","Which video showed <span style=""font-size:30px"">Sandy's</span> attention?","49","","","","","true"
"null","","","html-keyboard-response","345","2090840","0.0-345.0","j8d4trrh",""," ","null","","","","",""
"","","","call-function","346","2090840","0.0-346.0","j8d4trrh","","","","","","","",""
"null","","","html-keyboard-response","347","2092344","0.0-347.0","j8d4trrh","","<span style=""color:Black; font-size:50px;"">Video 1</span>","null","","","","",""
"null","","","video-keyboard-response","348","2095407","0.0-348.0","j8d4trrh","","","null","","<span style=""color:Black; font-size:50px;"">Sandy","Sandy","subject_8/1592150.bmp_pp92_L3_V1_veridical_freeview_isoFalse_fps144.mp4",""
"null","","","html-keyboard-response","349","2096910","0.0-349.0","j8d4trrh","","<span style=""color:Black; font-size:50px;"">Video 2</span>","null","","","","",""
"null","","","video-keyboard-response","350","2099973","0.0-350.0","j8d4trrh","","","null","","<span style=""color:Black; font-size:50px;"">Casey","Casey","subject_8/1592150.bmp_pp153_L3_V1_veridical_freeview_isoFalse_fps144.mp4",""
"","","","call-function","351","2099973","0.0-351.0","j8d4trrh","","","","","","","",""
"1626.2400000002235","","","categorize-html","352","2103607","0.0-352.0","j8d4trrh","","Which video showed <span style=""font-size:30px"">Sandy's</span> attention?","49","","","","","true"
"null","","","html-keyboard-response","353","2104111","0.0-353.0","j8d4trrh",""," ","null","","","","",""
"","","","call-function","354","2104111","0.0-354.0","j8d4trrh","","","","","","","",""
"null","","","html-keyboard-response","355","2105615","0.0-355.0","j8d4trrh","","<span style=""color:Black; font-size:50px;"">Video 1</span>","null","","","","",""
"null","","","video-keyboard-response","356","2108707","0.0-356.0","j8d4trrh","","","null","","<span style=""color:Black; font-size:50px;"">Casey","Casey","subject_8/713780.bmp_pp153_L3_V1_veridical_freeview_isoFalse_fps144.mp4",""
"null","","","html-keyboard-response","357","2110213","0.0-357.0","j8d4trrh","","<span style=""color:Black; font-size:50px;"">Video 2</span>","null","","","","",""
"null","","","video-keyboard-response","358","2113309","0.0-358.0","j8d4trrh","","","null","","<span style=""color:Black; font-size:50px;"">Sandy","Sandy","subject_8/713780.bmp_pp92_L3_V1_veridical_freeview_isoFalse_fps144.mp4",""
"","","","call-function","359","2113310","0.0-359.0","j8d4trrh","","","","","","","",""
"882.1200000001118","","","categorize-html","360","2116195","0.0-360.0","j8d4trrh","","Which video showed <span style=""font-size:30px"">Sandy's</span> attention?","49","","","","","false"
"null","","","html-keyboard-response","361","2116700","0.0-361.0","j8d4trrh",""," ","null","","","","",""
"","","","call-function","362","2116701","0.0-362.0","j8d4trrh","","","","","","","",""
"null","","","html-keyboard-response","363","2118202","0.0-363.0","j8d4trrh","","<span style=""color:Black; font-size:50px;"">Video 1</span>","null","","","","",""
"null","","","video-keyboard-response","364","2121302","0.0-364.0","j8d4trrh","","","null","","<span style=""color:Black; font-size:50px;"">Sandy","Sandy","subject_8/713403.bmp_pp92_L3_V1_veridical_freeview_isoFalse_fps144.mp4",""
"null","","","html-keyboard-response","365","2122804","0.0-365.0","j8d4trrh","","<span style=""color:Black; font-size:50px;"">Video 2</span>","null","","","","",""
"null","","","video-keyboard-response","366","2125879","0.0-366.0","j8d4trrh","","","null","","<span style=""color:Black; font-size:50px;"">Casey","Casey","subject_8/713403.bmp_pp153_L3_V1_veridical_freeview_isoFalse_fps144.mp4",""
"","","","call-function","367","2125880","0.0-367.0","j8d4trrh","","","","","","","",""
"1192.304999999702","","","categorize-html","368","2129079","0.0-368.0","j8d4trrh","","Which video showed <span style=""font-size:30px"">Sandy's</span> attention?","50","","","","","false"
"null","","","html-keyboard-response","369","2129582","0.0-369.0","j8d4trrh",""," ","null","","","","",""
"","","","call-function","370","2129582","0.0-370.0","j8d4trrh","","","","","","","",""
"null","","","html-keyboard-response","371","2131084","0.0-371.0","j8d4trrh","","<span style=""color:Black; font-size:50px;"">Video 1</span>","null","","","","",""
"null","","","video-keyboard-response","372","2134144","0.0-372.0","j8d4trrh","","","null","","<span style=""color:Black; font-size:50px;"">Sandy","Sandy","subject_8/1159482.bmp_pp92_L3_V1_veridical_freeview_isoFalse_fps144.mp4",""
"null","","","html-keyboard-response","373","2135649","0.0-373.0","j8d4trrh","","<span style=""color:Black; font-size:50px;"">Video 2</span>","null","","","","",""
"null","","","video-keyboard-response","374","2138749","0.0-374.0","j8d4trrh","","","null","","<span style=""color:Black; font-size:50px;"">Casey","Casey","subject_8/1159482.bmp_pp153_L3_V1_veridical_freeview_isoFalse_fps144.mp4",""
"","","","call-function","375","2138749","0.0-375.0","j8d4trrh","","","","","","","",""
"1874.8950000000186","","","categorize-html","376","2142628","0.0-376.0","j8d4trrh","","Which video showed <span style=""font-size:30px"">Sandy's</span> attention?","49","","","","","true"
"null","","","html-keyboard-response","377","2143135","0.0-377.0","j8d4trrh",""," ","null","","","","",""
"","","","call-function","378","2143136","0.0-378.0","j8d4trrh","","","","","","","",""
"null","","","html-keyboard-response","379","2144642","0.0-379.0","j8d4trrh","","<span style=""color:Black; font-size:50px;"">Video 1</span>","null","","","","",""
"null","","","video-keyboard-response","380","2147740","0.0-380.0","j8d4trrh","","","null","","<span style=""color:Black; font-size:50px;"">Sandy","Sandy","subject_8/1159870.bmp_pp92_L3_V1_veridical_freeview_isoFalse_fps144.mp4",""
"null","","","html-keyboard-response","381","2149244","0.0-381.0","j8d4trrh","","<span style=""color:Black; font-size:50px;"">Video 2</span>","null","","","","",""
"null","","","video-keyboard-response","382","2152324","0.0-382.0","j8d4trrh","","","null","","<span style=""color:Black; font-size:50px;"">Casey","Casey","subject_8/1159870.bmp_pp153_L3_V1_veridical_freeview_isoFalse_fps144.mp4",""
"","","","call-function","383","2152325","0.0-383.0","j8d4trrh","","","","","","","",""
"1363.214999999851","","","categorize-html","384","2155691","0.0-384.0","j8d4trrh","","Which video showed <span style=""font-size:30px"">Sandy's</span> attention?","50","","","","","false"
"null","","","html-keyboard-response","385","2156195","0.0-385.0","j8d4trrh",""," ","null","","","","",""
"","","","call-function","386","2156195","0.0-386.0","j8d4trrh","","","","","","","",""
"null","","","html-keyboard-response","387","2157698","0.0-387.0","j8d4trrh","","<span style=""color:Black; font-size:50px;"">Video 1</span>","null","","","","",""
"null","","","video-keyboard-response","388","2160773","0.0-388.0","j8d4trrh","","","null","","<span style=""color:Black; font-size:50px;"">Sandy","Sandy","subject_8/1592129.bmp_pp92_L3_V1_veridical_freeview_isoFalse_fps144.mp4",""
"null","","","html-keyboard-response","389","2162274","0.0-389.0","j8d4trrh","","<span style=""color:Black; font-size:50px;"">Video 2</span>","null","","","","",""
"null","","","video-keyboard-response","390","2165334","0.0-390.0","j8d4trrh","","","null","","<span style=""color:Black; font-size:50px;"">Casey","Casey","subject_8/1592129.bmp_pp153_L3_V1_veridical_freeview_isoFalse_fps144.mp4",""
"","","","call-function","391","2165335","0.0-391.0","j8d4trrh","","","","","","","",""
"1569.0949999997392","","","categorize-html","392","2168911","0.0-392.0","j8d4trrh","","Which video showed <span style=""font-size:30px"">Sandy's</span> attention?","49","","","","","true"
"null","","","html-keyboard-response","393","2169414","0.0-393.0","j8d4trrh",""," ","null","","","","",""
"","","","call-function","394","2169415","0.0-394.0","j8d4trrh","","","","","","","",""
"null","","","html-keyboard-response","395","2170920","0.0-395.0","j8d4trrh","","<span style=""color:Black; font-size:50px;"">Video 1</span>","null","","","","",""
"null","","","video-keyboard-response","396","2174019","0.0-396.0","j8d4trrh","","","null","","<span style=""color:Black; font-size:50px;"">Casey","Casey","subject_8/150296.bmp_pp153_L3_V1_veridical_freeview_isoFalse_fps144.mp4",""
"null","","","html-keyboard-response","397","2175524","0.0-397.0","j8d4trrh","","<span style=""color:Black; font-size:50px;"">Video 2</span>","null","","","","",""
"null","","","video-keyboard-response","398","2178625","0.0-398.0","j8d4trrh","","","null","","<span style=""color:Black; font-size:50px;"">Sandy","Sandy","subject_8/150296.bmp_pp92_L3_V1_veridical_freeview_isoFalse_fps144.mp4",""
"","","","call-function","399","2178626","0.0-399.0","j8d4trrh","","","","","","","",""
"4670.225000000093","","","categorize-html","400","2185302","0.0-400.0","j8d4trrh","","Which video showed <span style=""font-size:30px"">Sandy's</span> attention?","49","","","","","false"
"null","","","html-keyboard-response","401","2185804","0.0-401.0","j8d4trrh",""," ","null","","","","",""
"","","","call-function","402","2185804","0.0-402.0","j8d4trrh","","","","","","","",""
"null","","","html-keyboard-response","403","2187308","0.0-403.0","j8d4trrh","","<span style=""color:Black; font-size:50px;"">Video 1</span>","null","","","","",""
"null","","","video-keyboard-response","404","2190374","0.0-404.0","j8d4trrh","","","null","","<span style=""color:Black; font-size:50px;"">Sandy","Sandy","subject_8/1159784.bmp_pp92_L3_V1_veridical_freeview_isoFalse_fps144.mp4",""
"null","","","html-keyboard-response","405","2191881","0.0-405.0","j8d4trrh","","<span style=""color:Black; font-size:50px;"">Video 2</span>","null","","","","",""
"null","","","video-keyboard-response","406","2194979","0.0-406.0","j8d4trrh","","","null","","<span style=""color:Black; font-size:50px;"">Casey","Casey","subject_8/1159784.bmp_pp153_L3_V1_veridical_freeview_isoFalse_fps144.mp4",""
"","","","call-function","407","2194979","0.0-407.0","j8d4trrh","","","","","","","",""
"852.875","","","categorize-html","408","2197837","0.0-408.0","j8d4trrh","","Which video showed <span style=""font-size:30px"">Sandy's</span> attention?","49","","","","","true"
"null","","","html-keyboard-response","409","2198340","0.0-409.0","j8d4trrh",""," ","null","","","","",""
"","","","call-function","410","2198340","0.0-410.0","j8d4trrh","","","","","","","",""
"null","","","html-keyboard-response","411","2199846","0.0-411.0","j8d4trrh","","<span style=""color:Black; font-size:50px;"">Video 1</span>","null","","","","",""
"null","","","video-keyboard-response","412","2202913","0.0-412.0","j8d4trrh","","","null","","<span style=""color:Black; font-size:50px;"">Sandy","Sandy","subject_8/1592305.bmp_pp92_L3_V1_veridical_freeview_isoFalse_fps144.mp4",""
"null","","","html-keyboard-response","413","2204417","0.0-413.0","j8d4trrh","","<span style=""color:Black; font-size:50px;"">Video 2</span>","null","","","","",""
"null","","","video-keyboard-response","414","2207528","0.0-414.0","j8d4trrh","","","null","","<span style=""color:Black; font-size:50px;"">Casey","Casey","subject_8/1592305.bmp_pp153_L3_V1_veridical_freeview_isoFalse_fps144.mp4",""
"","","","call-function","415","2207528","0.0-415.0","j8d4trrh","","","","","","","",""
"1663.8799999998882","","","categorize-html","416","2211194","0.0-416.0","j8d4trrh","","Which video showed <span style=""font-size:30px"">Sandy's</span> attention?","49","","","","","true"
"null","","","html-keyboard-response","417","2211701","0.0-417.0","j8d4trrh",""," ","null","","","","",""
"3739.2900000000373","","","instructions","418","2215441","0.0-418.0","j8d4trrh","[{""page_index"":0,""viewing_time"":2939.5949999997392},{""page_index"":1,""viewing_time"":425.8149999999441},{""page_index"":2,""viewing_time"":373.7700000000186}]","","","","","","",""
"903.2150000003166","","","instructions","419","2216344","0.0-419.0","j8d4trrh","[{""page_index"":0,""viewing_time"":388.695000000298},{""page_index"":1,""viewing_time"":460.054999999702},{""page_index"":2,""viewing_time"":54.360000000335276}]","","","","","","",""
"","","","call-function","420","2216345","0.0-420.0","j8d4trrh","","","","","","","",""
"null","","","html-keyboard-response","421","2217848","0.0-421.0","j8d4trrh","","<span style=""color:Black; font-size:50px;"">Video 1</span>","null","","","","",""
"null","","","video-keyboard-response","422","2220956","0.0-422.0","j8d4trrh","","","null","","<span style=""color:Black; font-size:50px;"">Sandy","Sandy","subject_8/713742.bmp_pp92_L3_V1_veridical_freeview_isoFalse_fps144.mp4",""
"null","","","html-keyboard-response","423","2222459","0.0-423.0","j8d4trrh","","<span style=""color:Black; font-size:50px;"">Video 2</span>","null","","","","",""
"null","","","video-keyboard-response","424","2225521","0.0-424.0","j8d4trrh","","","null","","<span style=""color:Black; font-size:50px;"">Casey","Casey","subject_8/713742.bmp_pp153_L3_V1_veridical_freeview_isoFalse_fps144.mp4",""
"","","","call-function","425","2225521","0.0-425.0","j8d4trrh","","","","","","","",""
"3630.9150000000373","","","categorize-html","426","2231158","0.0-426.0","j8d4trrh","","Which video showed <span style=""font-size:30px"">Sandy's</span> attention?","49","","","","","true"
"null","","","html-keyboard-response","427","2231660","0.0-427.0","j8d4trrh",""," ","null","","","","",""
"","","","call-function","428","2231660","0.0-428.0","j8d4trrh","","","","","","","",""
"null","","","html-keyboard-response","429","2233163","0.0-429.0","j8d4trrh","","<span style=""color:Black; font-size:50px;"">Video 1</span>","null","","","","",""
"null","","","video-keyboard-response","430","2236233","0.0-430.0","j8d4trrh","","","null","","<span style=""color:Black; font-size:50px;"">Sandy","Sandy","subject_8/1592693.bmp_pp92_L3_V1_veridical_freeview_isoFalse_fps144.mp4",""
"null","","","html-keyboard-response","431","2237735","0.0-431.0","j8d4trrh","","<span style=""color:Black; font-size:50px;"">Video 2</span>","null","","","","",""
"null","","","video-keyboard-response","432","2240824","0.0-432.0","j8d4trrh","","","null","","<span style=""color:Black; font-size:50px;"">Casey","Casey","subject_8/1592693.bmp_pp153_L3_V1_veridical_freeview_isoFalse_fps144.mp4",""
"","","","call-function","433","2240824","0.0-433.0","j8d4trrh","","","","","","","",""
"1247.7000000001863","","","categorize-html","434","2244079","0.0-434.0","j8d4trrh","","Which video showed <span style=""font-size:30px"">Sandy's</span> attention?","49","","","","","true"
"null","","","html-keyboard-response","435","2244585","0.0-435.0","j8d4trrh",""," ","null","","","","",""
"","","","call-function","436","2244586","0.0-436.0","j8d4trrh","","","","","","","",""
"null","","","html-keyboard-response","437","2246090","0.0-437.0","j8d4trrh","","<span style=""color:Black; font-size:50px;"">Video 1</span>","null","","","","",""
"null","","","video-keyboard-response","438","2249179","0.0-438.0","j8d4trrh","","","null","","<span style=""color:Black; font-size:50px;"">Casey","Casey","subject_8/1159515.bmp_pp153_L3_V1_veridical_freeview_isoFalse_fps144.mp4",""
"null","","","html-keyboard-response","439","2250681","0.0-439.0","j8d4trrh","","<span style=""color:Black; font-size:50px;"">Video 2</span>","null","","","","",""
"null","","","video-keyboard-response","440","2253743","0.0-440.0","j8d4trrh","","","null","","<span style=""color:Black; font-size:50px;"">Sandy","Sandy","subject_8/1159515.bmp_pp92_L3_V1_veridical_freeview_isoFalse_fps144.mp4",""
"","","","call-function","441","2253744","0.0-441.0","j8d4trrh","","","","","","","",""
"2903.899999999907","","","categorize-html","442","2258651","0.0-442.0","j8d4trrh","","Which video showed <span style=""font-size:30px"">Sandy's</span> attention?","49","","","","","false"
"null","","","html-keyboard-response","443","2259153","0.0-443.0","j8d4trrh",""," ","null","","","","",""
"","","","call-function","444","2259153","0.0-444.0","j8d4trrh","","","","","","","",""
"null","","","html-keyboard-response","445","2260657","0.0-445.0","j8d4trrh","","<span style=""color:Black; font-size:50px;"">Video 1</span>","null","","","","",""
"null","","","video-keyboard-response","446","2263757","0.0-446.0","j8d4trrh","","","null","","<span style=""color:Black; font-size:50px;"">Casey","Casey","subject_8/1592397.bmp_pp153_L3_V1_veridical_freeview_isoFalse_fps144.mp4",""
"null","","","html-keyboard-response","447","2265261","0.0-447.0","j8d4trrh","","<span style=""color:Black; font-size:50px;"">Video 2</span>","null","","","","",""
"null","","","video-keyboard-response","448","2268335","0.0-448.0","j8d4trrh","","","null","","<span style=""color:Black; font-size:50px;"">Sandy","Sandy","subject_8/1592397.bmp_pp92_L3_V1_veridical_freeview_isoFalse_fps144.mp4",""
"","","","call-function","449","2268335","0.0-449.0","j8d4trrh","","","","","","","",""
"1304.8950000000186","","","categorize-html","450","2271644","0.0-450.0","j8d4trrh","","Which video showed <span style=""font-size:30px"">Sandy's</span> attention?","49","","","","","false"
"null","","","html-keyboard-response","451","2272151","0.0-451.0","j8d4trrh",""," ","null","","","","",""
"","","","call-function","452","2272151","0.0-452.0","j8d4trrh","","","","","","","",""
"null","","","html-keyboard-response","453","2273653","0.0-453.0","j8d4trrh","","<span style=""color:Black; font-size:50px;"">Video 1</span>","null","","","","",""
"null","","","video-keyboard-response","454","2276745","0.0-454.0","j8d4trrh","","","null","","<span style=""color:Black; font-size:50px;"">Casey","Casey","subject_8/150290.bmp_pp153_L3_V1_veridical_freeview_isoFalse_fps144.mp4",""
"null","","","html-keyboard-response","455","2278248","0.0-455.0","j8d4trrh","","<span style=""color:Black; font-size:50px;"">Video 2</span>","null","","","","",""
"null","","","video-keyboard-response","456","2281334","0.0-456.0","j8d4trrh","","","null","","<span style=""color:Black; font-size:50px;"">Sandy","Sandy","subject_8/150290.bmp_pp92_L3_V1_veridical_freeview_isoFalse_fps144.mp4",""
"","","","call-function","457","2281334","0.0-457.0","j8d4trrh","","","","","","","",""
"2106.0499999998137","","","categorize-html","458","2285443","0.0-458.0","j8d4trrh","","Which video showed <span style=""font-size:30px"">Sandy's</span> attention?","49","","","","","false"
"null","","","html-keyboard-response","459","2285948","0.0-459.0","j8d4trrh",""," ","null","","","","",""
"","","","call-function","460","2285948","0.0-460.0","j8d4trrh","","","","","","","",""
"null","","","html-keyboard-response","461","2287452","0.0-461.0","j8d4trrh","","<span style=""color:Black; font-size:50px;"">Video 1</span>","null","","","","",""
"null","","","video-keyboard-response","462","2290527","0.0-462.0","j8d4trrh","","","null","","<span style=""color:Black; font-size:50px;"">Casey","Casey","subject_8/713519.bmp_pp153_L3_V1_veridical_freeview_isoFalse_fps144.mp4",""
"null","","","html-keyboard-response","463","2292031","0.0-463.0","j8d4trrh","","<span style=""color:Black; font-size:50px;"">Video 2</span>","null","","","","",""
"null","","","video-keyboard-response","464","2295119","0.0-464.0","j8d4trrh","","","null","","<span style=""color:Black; font-size:50px;"">Sandy","Sandy","subject_8/713519.bmp_pp92_L3_V1_veridical_freeview_isoFalse_fps144.mp4",""
"","","","call-function","465","2295119","0.0-465.0","j8d4trrh","","","","","","","",""
"481.18000000016764","","","categorize-html","466","2297607","0.0-466.0","j8d4trrh","","Which video showed <span style=""font-size:30px"">Sandy's</span> attention?","50","","","","","true"
"null","","","html-keyboard-response","467","2298112","0.0-467.0","j8d4trrh",""," ","null","","","","",""
"","","","call-function","468","2298113","0.0-468.0","j8d4trrh","","","","","","","",""
"null","","","html-keyboard-response","469","2299615","0.0-469.0","j8d4trrh","","<span style=""color:Black; font-size:50px;"">Video 1</span>","null","","","","",""
"null","","","video-keyboard-response","470","2302675","0.0-470.0","j8d4trrh","","","null","","<span style=""color:Black; font-size:50px;"">Casey","Casey","subject_8/150277.bmp_pp153_L3_V1_veridical_freeview_isoFalse_fps144.mp4",""
"null","","","html-keyboard-response","471","2304180","0.0-471.0","j8d4trrh","","<span style=""color:Black; font-size:50px;"">Video 2</span>","null","","","","",""
"null","","","video-keyboard-response","472","2307280","0.0-472.0","j8d4trrh","","","null","","<span style=""color:Black; font-size:50px;"">Sandy","Sandy","subject_8/150277.bmp_pp92_L3_V1_veridical_freeview_isoFalse_fps144.mp4",""
"","","","call-function","473","2307281","0.0-473.0","j8d4trrh","","","","","","","",""
"791.5150000001304","","","categorize-html","474","2310079","0.0-474.0","j8d4trrh","","Which video showed <span style=""font-size:30px"">Sandy's</span> attention?","49","","","","","false"
"null","","","html-keyboard-response","475","2310581","0.0-475.0","j8d4trrh",""," ","null","","","","",""
"","","","call-function","476","2310581","0.0-476.0","j8d4trrh","","","","","","","",""
"null","","","html-keyboard-response","477","2312085","0.0-477.0","j8d4trrh","","<span style=""color:Black; font-size:50px;"">Video 1</span>","null","","","","",""
"null","","","video-keyboard-response","478","2315175","0.0-478.0","j8d4trrh","","","null","","<span style=""color:Black; font-size:50px;"">Casey","Casey","subject_8/1159777.bmp_pp153_L3_V1_veridical_freeview_isoFalse_fps144.mp4",""
"null","","","html-keyboard-response","479","2316680","0.0-479.0","j8d4trrh","","<span style=""color:Black; font-size:50px;"">Video 2</span>","null","","","","",""
"null","","","video-keyboard-response","480","2319740","0.0-480.0","j8d4trrh","","","null","","<span style=""color:Black; font-size:50px;"">Sandy","Sandy","subject_8/1159777.bmp_pp92_L3_V1_veridical_freeview_isoFalse_fps144.mp4",""
"","","","call-function","481","2319740","0.0-481.0","j8d4trrh","","","","","","","",""
"1051.5749999997206","","","categorize-html","482","2322799","0.0-482.0","j8d4trrh","","Which video showed <span style=""font-size:30px"">Sandy's</span> attention?","50","","","","","true"
"null","","","html-keyboard-response","483","2323303","0.0-483.0","j8d4trrh",""," ","null","","","","",""
"","","","call-function","484","2323303","0.0-484.0","j8d4trrh","","","","","","","",""
"null","","","html-keyboard-response","485","2324805","0.0-485.0","j8d4trrh","","<span style=""color:Black; font-size:50px;"">Video 1</span>","null","","","","",""
"null","","","video-keyboard-response","486","2327908","0.0-486.0","j8d4trrh","","","null","","<span style=""color:Black; font-size:50px;"">Casey","Casey","subject_8/1592241.bmp_pp153_L3_V1_veridical_freeview_isoFalse_fps144.mp4",""
"null","","","html-keyboard-response","487","2329412","0.0-487.0","j8d4trrh","","<span style=""color:Black; font-size:50px;"">Video 2</span>","null","","","","",""
"null","","","video-keyboard-response","488","2332473","0.0-488.0","j8d4trrh","","","null","","<span style=""color:Black; font-size:50px;"">Sandy","Sandy","subject_8/1592241.bmp_pp92_L3_V1_veridical_freeview_isoFalse_fps144.mp4",""
"","","","call-function","489","2332473","0.0-489.0","j8d4trrh","","","","","","","",""
"1854.75","","","categorize-html","490","2336332","0.0-490.0","j8d4trrh","","Which video showed <span style=""font-size:30px"">Sandy's</span> attention?","50","","","","","true"
"null","","","html-keyboard-response","491","2336835","0.0-491.0","j8d4trrh",""," ","null","","","","",""
"","","","call-function","492","2336835","0.0-492.0","j8d4trrh","","","","","","","",""
"null","","","html-keyboard-response","493","2338339","0.0-493.0","j8d4trrh","","<span style=""color:Black; font-size:50px;"">Video 1</span>","null","","","","",""
"null","","","video-keyboard-response","494","2341423","0.0-494.0","j8d4trrh","","","null","","<span style=""color:Black; font-size:50px;"">Casey","Casey","subject_8/713689.bmp_pp153_L3_V1_veridical_freeview_isoFalse_fps144.mp4",""
"null","","","html-keyboard-response","495","2342925","0.0-495.0","j8d4trrh","","<span style=""color:Black; font-size:50px;"">Video 2</span>","null","","","","",""
"null","","","video-keyboard-response","496","2346024","0.0-496.0","j8d4trrh","","","null","","<span style=""color:Black; font-size:50px;"">Sandy","Sandy","subject_8/713689.bmp_pp92_L3_V1_veridical_freeview_isoFalse_fps144.mp4",""
"","","","call-function","497","2346024","0.0-497.0","j8d4trrh","","","","","","","",""
"1351.8950000000186","","","categorize-html","498","2349379","0.0-498.0","j8d4trrh","","Which video showed <span style=""font-size:30px"">Sandy's</span> attention?","50","","","","","true"
"null","","","html-keyboard-response","499","2349883","0.0-499.0","j8d4trrh",""," ","null","","","","",""
"3395.5849999999627","","","instructions","500","2353279","0.0-500.0","j8d4trrh","[{""page_index"":0,""viewing_time"":2459.024999999907},{""page_index"":1,""viewing_time"":478.589999999851},{""page_index"":2,""viewing_time"":457.8450000002049}]","","","","","","",""
"1375.7949999999255","","","instructions","501","2354655","0.0-501.0","j8d4trrh","[{""page_index"":0,""viewing_time"":458.714999999851},{""page_index"":1,""viewing_time"":445.95000000018626},{""page_index"":2,""viewing_time"":471.0150000001304}]","","","","","","",""
"","","","call-function","502","2354655","0.0-502.0","j8d4trrh","","","","","","","",""
"null","","","html-keyboard-response","503","2356160","0.0-503.0","j8d4trrh","","<span style=""color:Black; font-size:50px;"">Video 1</span>","null","","","","",""
"null","","","video-keyboard-response","504","2359227","0.0-504.0","j8d4trrh","","","null","","<span style=""color:Black; font-size:50px;"">Casey","Casey","subject_8/1592289.bmp_pp153_L3_V1_veridical_freeview_isoFalse_fps144.mp4",""
"null","","","html-keyboard-response","505","2360729","0.0-505.0","j8d4trrh","","<span style=""color:Black; font-size:50px;"">Video 2</span>","null","","","","",""
"null","","","video-keyboard-response","506","2363824","0.0-506.0","j8d4trrh","","","null","","<span style=""color:Black; font-size:50px;"">Sandy","Sandy","subject_8/1592289.bmp_pp92_L3_V1_veridical_freeview_isoFalse_fps144.mp4",""
"","","","call-function","507","2363825","0.0-507.0","j8d4trrh","","","","","","","",""
"1223.5100000002421","","","categorize-html","508","2367055","0.0-508.0","j8d4trrh","","Which video showed <span style=""font-size:30px"">Sandy's</span> attention?","49","","","","","false"
"null","","","html-keyboard-response","509","2367562","0.0-509.0","j8d4trrh",""," ","null","","","","",""
"","","","call-function","510","2367562","0.0-510.0","j8d4trrh","","","","","","","",""
"null","","","html-keyboard-response","511","2369069","0.0-511.0","j8d4trrh","","<span style=""color:Black; font-size:50px;"">Video 1</span>","null","","","","",""
"null","","","video-keyboard-response","512","2372143","0.0-512.0","j8d4trrh","","","null","","<span style=""color:Black; font-size:50px;"">Sandy","Sandy","subject_8/285896.bmp_pp92_L3_V1_veridical_freeview_isoFalse_fps144.mp4",""
"null","","","html-keyboard-response","513","2373645","0.0-513.0","j8d4trrh","","<span style=""color:Black; font-size:50px;"">Video 2</span>","null","","","","",""
"null","","","video-keyboard-response","514","2376731","0.0-514.0","j8d4trrh","","","null","","<span style=""color:Black; font-size:50px;"">Casey","Casey","subject_8/285896.bmp_pp153_L3_V1_veridical_freeview_isoFalse_fps144.mp4",""
"","","","call-function","515","2376732","0.0-515.0","j8d4trrh","","","","","","","",""
"388.5649999999441","","","categorize-html","516","2379124","0.0-516.0","j8d4trrh","","Which video showed <span style=""font-size:30px"">Sandy's</span> attention?","50","","","","","false"
"null","","","html-keyboard-response","517","2379630","0.0-517.0","j8d4trrh",""," ","null","","","","",""
"","","","call-function","518","2379631","0.0-518.0","j8d4trrh","","","","","","","",""
"null","","","html-keyboard-response","519","2381133","0.0-519.0","j8d4trrh","","<span style=""color:Black; font-size:50px;"">Video 1</span>","null","","","","",""
"null","","","video-keyboard-response","520","2384201","0.0-520.0","j8d4trrh","","","null","","<span style=""color:Black; font-size:50px;"">Casey","Casey","subject_8/1160171.bmp_pp153_L3_V1_veridical_freeview_isoFalse_fps144.mp4",""
"null","","","html-keyboard-response","521","2385707","0.0-521.0","j8d4trrh","","<span style=""color:Black; font-size:50px;"">Video 2</span>","null","","","","",""
"null","","","video-keyboard-response","522","2388810","0.0-522.0","j8d4trrh","","","null","","<span style=""color:Black; font-size:50px;"">Sandy","Sandy","subject_8/1160171.bmp_pp92_L3_V1_veridical_freeview_isoFalse_fps144.mp4",""
"","","","call-function","523","2388810","0.0-523.0","j8d4trrh","","","","","","","",""
"4454.284999999683","","","categorize-html","524","2395269","0.0-524.0","j8d4trrh","","Which video showed <span style=""font-size:30px"">Sandy's</span> attention?","49","","","","","false"
"null","","","html-keyboard-response","525","2395774","0.0-525.0","j8d4trrh",""," ","null","","","","",""
"","","","call-function","526","2395774","0.0-526.0","j8d4trrh","","","","","","","",""
"null","","","html-keyboard-response","527","2397280","0.0-527.0","j8d4trrh","","<span style=""color:Black; font-size:50px;"">Video 1</span>","null","","","","",""
"null","","","video-keyboard-response","528","2400356","0.0-528.0","j8d4trrh","","","null","","<span style=""color:Black; font-size:50px;"">Sandy","Sandy","subject_8/1159497.bmp_pp92_L3_V1_veridical_freeview_isoFalse_fps144.mp4",""
"null","","","html-keyboard-response","529","2401859","0.0-529.0","j8d4trrh","","<span style=""color:Black; font-size:50px;"">Video 2</span>","null","","","","",""
"null","","","video-keyboard-response","530","2404951","0.0-530.0","j8d4trrh","","","null","","<span style=""color:Black; font-size:50px;"">Casey","Casey","subject_8/1159497.bmp_pp153_L3_V1_veridical_freeview_isoFalse_fps144.mp4",""
"","","","call-function","531","2404951","0.0-531.0","j8d4trrh","","","","","","","",""
"584.8999999999069","","","categorize-html","532","2407539","0.0-532.0","j8d4trrh","","Which video showed <span style=""font-size:30px"">Sandy's</span> attention?","49","","","","","true"
"null","","","html-keyboard-response","533","2408041","0.0-533.0","j8d4trrh",""," ","null","","","","",""
"","","","call-function","534","2408042","0.0-534.0","j8d4trrh","","","","","","","",""
"null","","","html-keyboard-response","535","2409546","0.0-535.0","j8d4trrh","","<span style=""color:Black; font-size:50px;"">Video 1</span>","null","","","","",""
"null","","","video-keyboard-response","536","2412632","0.0-536.0","j8d4trrh","","","null","","<span style=""color:Black; font-size:50px;"">Casey","Casey","subject_8/1592581.bmp_pp153_L3_V1_veridical_freeview_isoFalse_fps144.mp4",""
"null","","","html-keyboard-response","537","2414136","0.0-537.0","j8d4trrh","","<span style=""color:Black; font-size:50px;"">Video 2</span>","null","","","","",""
"null","","","video-keyboard-response","538","2417230","0.0-538.0","j8d4trrh","","","null","","<span style=""color:Black; font-size:50px;"">Sandy","Sandy","subject_8/1592581.bmp_pp92_L3_V1_veridical_freeview_isoFalse_fps144.mp4",""
"","","","call-function","539","2417230","0.0-539.0","j8d4trrh","","","","","","","",""
"866.1450000000186","","","categorize-html","540","2420101","0.0-540.0","j8d4trrh","","Which video showed <span style=""font-size:30px"">Sandy's</span> attention?","49","","","","","false"
"null","","","html-keyboard-response","541","2420605","0.0-541.0","j8d4trrh",""," ","null","","","","",""
"","","","call-function","542","2420605","0.0-542.0","j8d4trrh","","","","","","","",""
"null","","","html-keyboard-response","543","2422108","0.0-543.0","j8d4trrh","","<span style=""color:Black; font-size:50px;"">Video 1</span>","null","","","","",""
"null","","","video-keyboard-response","544","2425169","0.0-544.0","j8d4trrh","","","null","","<span style=""color:Black; font-size:50px;"">Casey","Casey","subject_8/1592971.bmp_pp153_L3_V1_veridical_freeview_isoFalse_fps144.mp4",""
"null","","","html-keyboard-response","545","2426670","0.0-545.0","j8d4trrh","","<span style=""color:Black; font-size:50px;"">Video 2</span>","null","","","","",""
"null","","","video-keyboard-response","546","2429760","0.0-546.0","j8d4trrh","","","null","","<span style=""color:Black; font-size:50px;"">Sandy","Sandy","subject_8/1592971.bmp_pp92_L3_V1_veridical_freeview_isoFalse_fps144.mp4",""
"","","","call-function","547","2429761","0.0-547.0","j8d4trrh","","","","","","","",""
"407.5299999997951","","","categorize-html","548","2432174","0.0-548.0","j8d4trrh","","Which video showed <span style=""font-size:30px"">Sandy's</span> attention?","50","","","","","true"
"null","","","html-keyboard-response","549","2432679","0.0-549.0","j8d4trrh",""," ","null","","","","",""
"","","","call-function","550","2432679","0.0-550.0","j8d4trrh","","","","","","","",""
"null","","","html-keyboard-response","551","2434181","0.0-551.0","j8d4trrh","","<span style=""color:Black; font-size:50px;"">Video 1</span>","null","","","","",""
"null","","","video-keyboard-response","552","2437245","0.0-552.0","j8d4trrh","","","null","","<span style=""color:Black; font-size:50px;"">Casey","Casey","subject_8/1593063.bmp_pp153_L3_V1_veridical_freeview_isoFalse_fps144.mp4",""
"null","","","html-keyboard-response","553","2438747","0.0-553.0","j8d4trrh","","<span style=""color:Black; font-size:50px;"">Video 2</span>","null","","","","",""
"null","","","video-keyboard-response","554","2441840","0.0-554.0","j8d4trrh","","","null","","<span style=""color:Black; font-size:50px;"">Sandy","Sandy","subject_8/1593063.bmp_pp92_L3_V1_veridical_freeview_isoFalse_fps144.mp4",""
"","","","call-function","555","2441840","0.0-555.0","j8d4trrh","","","","","","","",""
"519.7450000001118","","","categorize-html","556","2444364","0.0-556.0","j8d4trrh","","Which video showed <span style=""font-size:30px"">Sandy's</span> attention?","49","","","","","false"
"null","","","html-keyboard-response","557","2444868","0.0-557.0","j8d4trrh",""," ","null","","","","",""
"","","","call-function","558","2444868","0.0-558.0","j8d4trrh","","","","","","","",""
"null","","","html-keyboard-response","559","2446370","0.0-559.0","j8d4trrh","","<span style=""color:Black; font-size:50px;"">Video 1</span>","null","","","","",""
"null","","","video-keyboard-response","560","2449445","0.0-560.0","j8d4trrh","","","null","","<span style=""color:Black; font-size:50px;"">Casey","Casey","subject_8/713829.bmp_pp153_L3_V1_veridical_freeview_isoFalse_fps144.mp4",""
"null","","","html-keyboard-response","561","2450951","0.0-561.0","j8d4trrh","","<span style=""color:Black; font-size:50px;"">Video 2</span>","null","","","","",""
"null","","","video-keyboard-response","562","2454037","0.0-562.0","j8d4trrh","","","null","","<span style=""color:Black; font-size:50px;"">Sandy","Sandy","subject_8/713829.bmp_pp92_L3_V1_veridical_freeview_isoFalse_fps144.mp4",""
"","","","call-function","563","2454037","0.0-563.0","j8d4trrh","","","","","","","",""
"875.0499999998137","","","categorize-html","564","2456918","0.0-564.0","j8d4trrh","","Which video showed <span style=""font-size:30px"">Sandy's</span> attention?","49","","","","","false"
"null","","","html-keyboard-response","565","2457423","0.0-565.0","j8d4trrh",""," ","null","","","","",""
"","","","call-function","566","2457424","0.0-566.0","j8d4trrh","","","","","","","",""
"null","","","html-keyboard-response","567","2458926","0.0-567.0","j8d4trrh","","<span style=""color:Black; font-size:50px;"">Video 1</span>","null","","","","",""
"null","","","video-keyboard-response","568","2462080","0.0-568.0","j8d4trrh","","","null","","<span style=""color:Black; font-size:50px;"">Sandy","Sandy","subject_8/1159293.bmp_pp92_L3_V1_veridical_freeview_isoFalse_fps144.mp4",""
"null","","","html-keyboard-response","569","2463585","0.0-569.0","j8d4trrh","","<span style=""color:Black; font-size:50px;"">Video 2</span>","null","","","","",""
"null","","","video-keyboard-response","570","2466661","0.0-570.0","j8d4trrh","","","null","","<span style=""color:Black; font-size:50px;"">Casey","Casey","subject_8/1159293.bmp_pp153_L3_V1_veridical_freeview_isoFalse_fps144.mp4",""
"","","","call-function","571","2466661","0.0-571.0","j8d4trrh","","","","","","","",""
"1530.7549999998882","","","categorize-html","572","2470196","0.0-572.0","j8d4trrh","","Which video showed <span style=""font-size:30px"">Sandy's</span> attention?","50","","","","","false"
"null","","","html-keyboard-response","573","2470701","0.0-573.0","j8d4trrh",""," ","null","","","","",""
"","","","call-function","574","2470701","0.0-574.0","j8d4trrh","","","","","","","",""
"null","","","html-keyboard-response","575","2472205","0.0-575.0","j8d4trrh","","<span style=""color:Black; font-size:50px;"">Video 1</span>","null","","","","",""
"null","","","video-keyboard-response","576","2475305","0.0-576.0","j8d4trrh","","","null","","<span style=""color:Black; font-size:50px;"">Sandy","Sandy","subject_8/150496.bmp_pp92_L3_V1_veridical_freeview_isoFalse_fps144.mp4",""
"null","","","html-keyboard-response","577","2476809","0.0-577.0","j8d4trrh","","<span style=""color:Black; font-size:50px;"">Video 2</span>","null","","","","",""
"null","","","video-keyboard-response","578","2479899","0.0-578.0","j8d4trrh","","","null","","<span style=""color:Black; font-size:50px;"">Casey","Casey","subject_8/150496.bmp_pp153_L3_V1_veridical_freeview_isoFalse_fps144.mp4",""
"","","","call-function","579","2479899","0.0-579.0","j8d4trrh","","","","","","","",""
"1964.9250000002794","","","categorize-html","580","2483869","0.0-580.0","j8d4trrh","","Which video showed <span style=""font-size:30px"">Sandy's</span> attention?","50","","","","","false"
"null","","","html-keyboard-response","581","2484373","0.0-581.0","j8d4trrh",""," ","null","","","","",""
"3577.8849999997765","","","instructions","582","2487951","0.0-582.0","j8d4trrh","[{""page_index"":0,""viewing_time"":3577.7349999998696}]","","","","","","",""
"6927.475000000093","","","instructions","583","2494879","0.0-583.0","j8d4trrh","[{""page_index"":0,""viewing_time"":6927.360000000335}]","","","","","","",""
"74205.61000000034","{""Q0"":""It was pretty interesting and hard for me to tell them apart. Sometimes would have wanted a second look at the videos.""}","","survey-text","584","2569091","0.0-584.0","j8d4trrh","","","","","","","",""
"88571.44499999983","{""Q0"":""I tried to pick out characterisitcs of the different agents based on the answers. It was sometimes hard to tell""}","","survey-text","585","2657666","0.0-585.0","j8d4trrh","","","","","","","",""
"68517.65500000026","{""Q0"":""I think the videos were pretty short and sometimes if I blinked I would miss some important movement. ""}","","survey-text","586","2726188","0.0-586.0","j8d4trrh","","","","","","","",""
"2735.314999999944","","","instructions","587","2728924","0.0-587.0","j8d4trrh","[{""page_index"":0,""viewing_time"":2735.095000000205}]","","","","","","",""
"145902.07499999972","{""Experimenter_end"":[""Printed ID# j8d4trrh on consent form"",""Given subject SONA credit or payment"",""Given the subject debrief form""]}","[0]","survey-multi-select","588","2874828","0.0-588.0","j8d4trrh","","","","","","","",""
