"rt","responses","question_order","trial_type","trial_index","time_elapsed","internal_node_id","ID","view_history","stimulus","key_press","value","agent","condition","image","correct"
"5148","{""Experimenter"":[""Made the experiment full screen""]}","[0]","survey-multi-select","0","5157","0.0-0.0","4arfrsr8","","","","","","","",""
"732.5999999940395","","","instructions","1","5891","0.0-1.0","4arfrsr8","[{""page_index"":0,""viewing_time"":732.1999999955297}]","","","","","","",""
"16198.70000000298","{""Age"":6,""Sex"":1,""Gender"":2}","[0,1,2]","survey-likert","2","22091","0.0-2.0","4arfrsr8","","","","","","","",""
"847.0999999940395","","","instructions","3","22939","0.0-3.0","4arfrsr8","[{""page_index"":0,""viewing_time"":846.8999999985099}]","","","","","","",""
"1965.0999999940395","","","instructions","4","24905","0.0-4.0","4arfrsr8","[{""page_index"":0,""viewing_time"":444.5},{""page_index"":1,""viewing_time"":583.1999999955297},{""page_index"":2,""viewing_time"":937.1000000014901}]","","","","","","",""
"708.6999999955297","","","instructions","5","25614","0.0-5.0","4arfrsr8","[{""page_index"":0,""viewing_time"":708.5}]","","","","","","",""
"null","","","video-keyboard-response","6","28718","0.0-6.0","4arfrsr8","","","null","","","","",""
"16299","","","instructions","7","45017","0.0-7.0","4arfrsr8","[{""page_index"":0,""viewing_time"":10516.79999999702},{""page_index"":1,""viewing_time"":718.5},{""page_index"":2,""viewing_time"":443.70000000298023},{""page_index"":3,""viewing_time"":597.7999999970198},{""page_index"":4,""viewing_time"":644.8999999985099},{""page_index"":5,""viewing_time"":680},{""page_index"":6,""viewing_time"":808.1000000014901},{""page_index"":7,""viewing_time"":1889.1000000014901}]","","","","","","",""
"1679.5","","","instructions","8","46697","0.0-8.0","4arfrsr8","[{""page_index"":0,""viewing_time"":1679.2999999970198}]","","","","","","",""
"2616.7999999970198","","","instructions","9","49314","0.0-9.0","4arfrsr8","[{""page_index"":0,""viewing_time"":2616.60000000149}]","","","","","","",""
"","","","call-function","10","49315","0.0-10.0","4arfrsr8","","","","","","","",""
"null","","","html-keyboard-response","11","50825","0.0-11.0","4arfrsr8","","<span style=""color:Black; font-size:50px;"">Video 1</span>","null","","","","",""
"null","","","video-keyboard-response","12","53879","0.0-12.0","4arfrsr8","","","null","","<span style=""color:Black; font-size:50px;"">Casey","Casey","subject_8/1592519.bmp_pp153_L3_V1_veridical_freeview_isoFalse_fps144.mp4",""
"null","","","html-keyboard-response","13","55381","0.0-13.0","4arfrsr8","","<span style=""color:Black; font-size:50px;"">Video 2</span>","null","","","","",""
"null","","","video-keyboard-response","14","58434","0.0-14.0","4arfrsr8","","","null","","<span style=""color:Black; font-size:50px;"">Sandy","Sandy","subject_8/1592519.bmp_pp92_L3_V1_veridical_freeview_isoFalse_fps144.mp4",""
"","","","call-function","15","58434","0.0-15.0","4arfrsr8","","","","","","","",""
"416.29999999701977","","","categorize-html","16","60854","0.0-16.0","4arfrsr8","","Which video showed <span style=""font-size:30px"">Sandy's</span> attention?","49","","","","","false"
"null","","","html-keyboard-response","17","61361","0.0-17.0","4arfrsr8",""," ","null","","","","",""
"","","","call-function","18","61361","0.0-18.0","4arfrsr8","","","","","","","",""
"null","","","html-keyboard-response","19","62869","0.0-19.0","4arfrsr8","","<span style=""color:Black; font-size:50px;"">Video 1</span>","null","","","","",""
"null","","","video-keyboard-response","20","65931","0.0-20.0","4arfrsr8","","","null","","<span style=""color:Black; font-size:50px;"">Sandy","Sandy","subject_8/713689.bmp_pp92_L3_V1_veridical_freeview_isoFalse_fps144.mp4",""
"null","","","html-keyboard-response","21","67438","0.0-21.0","4arfrsr8","","<span style=""color:Black; font-size:50px;"">Video 2</span>","null","","","","",""
"null","","","video-keyboard-response","22","70479","0.0-22.0","4arfrsr8","","","null","","<span style=""color:Black; font-size:50px;"">Casey","Casey","subject_8/713689.bmp_pp153_L3_V1_veridical_freeview_isoFalse_fps144.mp4",""
"","","","call-function","23","70480","0.0-23.0","4arfrsr8","","","","","","","",""
"416.69999999552965","","","categorize-html","24","72903","0.0-24.0","4arfrsr8","","Which video showed <span style=""font-size:30px"">Sandy's</span> attention?","50","","","","","false"
"null","","","html-keyboard-response","25","73406","0.0-25.0","4arfrsr8",""," ","null","","","","",""
"","","","call-function","26","73406","0.0-26.0","4arfrsr8","","","","","","","",""
"null","","","html-keyboard-response","27","74909","0.0-27.0","4arfrsr8","","<span style=""color:Black; font-size:50px;"">Video 1</span>","null","","","","",""
"null","","","video-keyboard-response","28","77967","0.0-28.0","4arfrsr8","","","null","","<span style=""color:Black; font-size:50px;"">Sandy","Sandy","subject_8/498024.bmp_pp92_L3_V1_veridical_freeview_isoFalse_fps144.mp4",""
"null","","","html-keyboard-response","29","79472","0.0-29.0","4arfrsr8","","<span style=""color:Black; font-size:50px;"">Video 2</span>","null","","","","",""
"null","","","video-keyboard-response","30","82536","0.0-30.0","4arfrsr8","","","null","","<span style=""color:Black; font-size:50px;"">Casey","Casey","subject_8/498024.bmp_pp153_L3_V1_veridical_freeview_isoFalse_fps144.mp4",""
"","","","call-function","31","82538","0.0-31.0","4arfrsr8","","","","","","","",""
"579.8999999985099","","","categorize-html","32","85128","0.0-32.0","4arfrsr8","","Which video showed <span style=""font-size:30px"">Sandy's</span> attention?","49","","","","","true"
"null","","","html-keyboard-response","33","85633","0.0-33.0","4arfrsr8",""," ","null","","","","",""
"","","","call-function","34","85633","0.0-34.0","4arfrsr8","","","","","","","",""
"null","","","html-keyboard-response","35","87141","0.0-35.0","4arfrsr8","","<span style=""color:Black; font-size:50px;"">Video 1</span>","null","","","","",""
"null","","","video-keyboard-response","36","90219","0.0-36.0","4arfrsr8","","","null","","<span style=""color:Black; font-size:50px;"">Casey","Casey","subject_8/713829.bmp_pp153_L3_V1_veridical_freeview_isoFalse_fps144.mp4",""
"null","","","html-keyboard-response","37","91727","0.0-37.0","4arfrsr8","","<span style=""color:Black; font-size:50px;"">Video 2</span>","null","","","","",""
"null","","","video-keyboard-response","38","94788","0.0-38.0","4arfrsr8","","","null","","<span style=""color:Black; font-size:50px;"">Sandy","Sandy","subject_8/713829.bmp_pp92_L3_V1_veridical_freeview_isoFalse_fps144.mp4",""
"","","","call-function","39","94790","0.0-39.0","4arfrsr8","","","","","","","",""
"507.8999999985099","","","categorize-html","40","97304","0.0-40.0","4arfrsr8","","Which video showed <span style=""font-size:30px"">Sandy's</span> attention?","49","","","","","false"
"null","","","html-keyboard-response","41","97810","0.0-41.0","4arfrsr8",""," ","null","","","","",""
"","","","call-function","42","97810","0.0-42.0","4arfrsr8","","","","","","","",""
"null","","","html-keyboard-response","43","99320","0.0-43.0","4arfrsr8","","<span style=""color:Black; font-size:50px;"">Video 1</span>","null","","","","",""
"null","","","video-keyboard-response","44","102386","0.0-44.0","4arfrsr8","","","null","","<span style=""color:Black; font-size:50px;"">Casey","Casey","subject_8/1592378.bmp_pp153_L3_V1_veridical_freeview_isoFalse_fps144.mp4",""
"null","","","html-keyboard-response","45","103893","0.0-45.0","4arfrsr8","","<span style=""color:Black; font-size:50px;"">Video 2</span>","null","","","","",""
"null","","","video-keyboard-response","46","106938","0.0-46.0","4arfrsr8","","","null","","<span style=""color:Black; font-size:50px;"">Sandy","Sandy","subject_8/1592378.bmp_pp92_L3_V1_veridical_freeview_isoFalse_fps144.mp4",""
"","","","call-function","47","106939","0.0-47.0","4arfrsr8","","","","","","","",""
"346.90000000596046","","","categorize-html","48","109295","0.0-48.0","4arfrsr8","","Which video showed <span style=""font-size:30px"">Sandy's</span> attention?","50","","","","","true"
"null","","","html-keyboard-response","49","109799","0.0-49.0","4arfrsr8",""," ","null","","","","",""
"","","","call-function","50","109799","0.0-50.0","4arfrsr8","","","","","","","",""
"null","","","html-keyboard-response","51","111303","0.0-51.0","4arfrsr8","","<span style=""color:Black; font-size:50px;"">Video 1</span>","null","","","","",""
"null","","","video-keyboard-response","52","114362","0.0-52.0","4arfrsr8","","","null","","<span style=""color:Black; font-size:50px;"">Sandy","Sandy","subject_8/1593058.bmp_pp92_L3_V1_veridical_freeview_isoFalse_fps144.mp4",""
"null","","","html-keyboard-response","53","115871","0.0-53.0","4arfrsr8","","<span style=""color:Black; font-size:50px;"">Video 2</span>","null","","","","",""
"null","","","video-keyboard-response","54","118943","0.0-54.0","4arfrsr8","","","null","","<span style=""color:Black; font-size:50px;"">Casey","Casey","subject_8/1593058.bmp_pp153_L3_V1_veridical_freeview_isoFalse_fps144.mp4",""
"","","","call-function","55","118944","0.0-55.0","4arfrsr8","","","","","","","",""
"709","","","categorize-html","56","121663","0.0-56.0","4arfrsr8","","Which video showed <span style=""font-size:30px"">Sandy's</span> attention?","49","","","","","true"
"null","","","html-keyboard-response","57","122167","0.0-57.0","4arfrsr8",""," ","null","","","","",""
"","","","call-function","58","122168","0.0-58.0","4arfrsr8","","","","","","","",""
"null","","","html-keyboard-response","59","123674","0.0-59.0","4arfrsr8","","<span style=""color:Black; font-size:50px;"">Video 1</span>","null","","","","",""
"null","","","video-keyboard-response","60","126716","0.0-60.0","4arfrsr8","","","null","","<span style=""color:Black; font-size:50px;"">Casey","Casey","subject_8/150463.bmp_pp153_L3_V1_veridical_freeview_isoFalse_fps144.mp4",""
"null","","","html-keyboard-response","61","128222","0.0-61.0","4arfrsr8","","<span style=""color:Black; font-size:50px;"">Video 2</span>","null","","","","",""
"null","","","video-keyboard-response","62","131282","0.0-62.0","4arfrsr8","","","null","","<span style=""color:Black; font-size:50px;"">Sandy","Sandy","subject_8/150463.bmp_pp92_L3_V1_veridical_freeview_isoFalse_fps144.mp4",""
"","","","call-function","63","131282","0.0-63.0","4arfrsr8","","","","","","","",""
"563.6999999955297","","","categorize-html","64","133854","0.0-64.0","4arfrsr8","","Which video showed <span style=""font-size:30px"">Sandy's</span> attention?","49","","","","","false"
"null","","","html-keyboard-response","65","134360","0.0-65.0","4arfrsr8",""," ","null","","","","",""
"","","","call-function","66","134360","0.0-66.0","4arfrsr8","","","","","","","",""
"null","","","html-keyboard-response","67","135861","0.0-67.0","4arfrsr8","","<span style=""color:Black; font-size:50px;"">Video 1</span>","null","","","","",""
"null","","","video-keyboard-response","68","138954","0.0-68.0","4arfrsr8","","","null","","<span style=""color:Black; font-size:50px;"">Casey","Casey","subject_8/1592241.bmp_pp153_L3_V1_veridical_freeview_isoFalse_fps144.mp4",""
"null","","","html-keyboard-response","69","140464","0.0-69.0","4arfrsr8","","<span style=""color:Black; font-size:50px;"">Video 2</span>","null","","","","",""
"null","","","video-keyboard-response","70","143521","0.0-70.0","4arfrsr8","","","null","","<span style=""color:Black; font-size:50px;"">Sandy","Sandy","subject_8/1592241.bmp_pp92_L3_V1_veridical_freeview_isoFalse_fps144.mp4",""
"","","","call-function","71","143521","0.0-71.0","4arfrsr8","","","","","","","",""
"697.1000000014901","","","categorize-html","72","146222","0.0-72.0","4arfrsr8","","Which video showed <span style=""font-size:30px"">Sandy's</span> attention?","50","","","","","true"
"null","","","html-keyboard-response","73","146728","0.0-73.0","4arfrsr8",""," ","null","","","","",""
"","","","call-function","74","146728","0.0-74.0","4arfrsr8","","","","","","","",""
"null","","","html-keyboard-response","75","148231","0.0-75.0","4arfrsr8","","<span style=""color:Black; font-size:50px;"">Video 1</span>","null","","","","",""
"null","","","video-keyboard-response","76","151296","0.0-76.0","4arfrsr8","","","null","","<span style=""color:Black; font-size:50px;"">Casey","Casey","subject_8/713640.bmp_pp153_L3_V1_veridical_freeview_isoFalse_fps144.mp4",""
"null","","","html-keyboard-response","77","152800","0.0-77.0","4arfrsr8","","<span style=""color:Black; font-size:50px;"">Video 2</span>","null","","","","",""
"null","","","video-keyboard-response","78","155843","0.0-78.0","4arfrsr8","","","null","","<span style=""color:Black; font-size:50px;"">Sandy","Sandy","subject_8/713640.bmp_pp92_L3_V1_veridical_freeview_isoFalse_fps144.mp4",""
"","","","call-function","79","155843","0.0-79.0","4arfrsr8","","","","","","","",""
"530.5","","","categorize-html","80","158384","0.0-80.0","4arfrsr8","","Which video showed <span style=""font-size:30px"">Sandy's</span> attention?","49","","","","","false"
"null","","","html-keyboard-response","81","158890","0.0-81.0","4arfrsr8",""," ","null","","","","",""
"","","","call-function","82","158890","0.0-82.0","4arfrsr8","","","","","","","",""
"null","","","html-keyboard-response","83","160402","0.0-83.0","4arfrsr8","","<span style=""color:Black; font-size:50px;"">Video 1</span>","null","","","","",""
"null","","","video-keyboard-response","84","163477","0.0-84.0","4arfrsr8","","","null","","<span style=""color:Black; font-size:50px;"">Sandy","Sandy","subject_8/1591920.bmp_pp92_L3_V1_veridical_freeview_isoFalse_fps144.mp4",""
"null","","","html-keyboard-response","85","164985","0.0-85.0","4arfrsr8","","<span style=""color:Black; font-size:50px;"">Video 2</span>","null","","","","",""
"null","","","video-keyboard-response","86","168044","0.0-86.0","4arfrsr8","","","null","","<span style=""color:Black; font-size:50px;"">Casey","Casey","subject_8/1591920.bmp_pp153_L3_V1_veridical_freeview_isoFalse_fps144.mp4",""
"","","","call-function","87","168045","0.0-87.0","4arfrsr8","","","","","","","",""
"361","","","categorize-html","88","170415","0.0-88.0","4arfrsr8","","Which video showed <span style=""font-size:30px"">Sandy's</span> attention?","49","","","","","true"
"null","","","html-keyboard-response","89","170918","0.0-89.0","4arfrsr8",""," ","null","","","","",""
"2603.10000000149","","","instructions","90","173522","0.0-90.0","4arfrsr8","[{""page_index"":0,""viewing_time"":1713.7000000029802},{""page_index"":1,""viewing_time"":624.3999999985099},{""page_index"":2,""viewing_time"":264.8999999985099}]","","","","","","",""
"1202.2999999970198","","","instructions","91","174725","0.0-91.0","4arfrsr8","[{""page_index"":0,""viewing_time"":356.20000000298023},{""page_index"":1,""viewing_time"":411.3999999985099},{""page_index"":2,""viewing_time"":434.6000000014901}]","","","","","","",""
"","","","call-function","92","174725","0.0-92.0","4arfrsr8","","","","","","","",""
"null","","","html-keyboard-response","93","176230","0.0-93.0","4arfrsr8","","<span style=""color:Black; font-size:50px;"">Video 1</span>","null","","","","",""
"null","","","video-keyboard-response","94","179296","0.0-94.0","4arfrsr8","","","null","","<span style=""color:Black; font-size:50px;"">Casey","Casey","subject_8/1160158.bmp_pp153_L3_V1_veridical_freeview_isoFalse_fps144.mp4",""
"null","","","html-keyboard-response","95","180798","0.0-95.0","4arfrsr8","","<span style=""color:Black; font-size:50px;"">Video 2</span>","null","","","","",""
"null","","","video-keyboard-response","96","183846","0.0-96.0","4arfrsr8","","","null","","<span style=""color:Black; font-size:50px;"">Sandy","Sandy","subject_8/1160158.bmp_pp92_L3_V1_veridical_freeview_isoFalse_fps144.mp4",""
"","","","call-function","97","183846","0.0-97.0","4arfrsr8","","","","","","","",""
"505.5","","","categorize-html","98","186361","0.0-98.0","4arfrsr8","","Which video showed <span style=""font-size:30px"">Sandy's</span> attention?","50","","","","","true"
"null","","","html-keyboard-response","99","186874","0.0-99.0","4arfrsr8",""," ","null","","","","",""
"","","","call-function","100","186874","0.0-100.0","4arfrsr8","","","","","","","",""
"null","","","html-keyboard-response","101","188384","0.0-101.0","4arfrsr8","","<span style=""color:Black; font-size:50px;"">Video 1</span>","null","","","","",""
"null","","","video-keyboard-response","102","191463","0.0-102.0","4arfrsr8","","","null","","<span style=""color:Black; font-size:50px;"">Sandy","Sandy","subject_8/713403.bmp_pp92_L3_V1_veridical_freeview_isoFalse_fps144.mp4",""
"null","","","html-keyboard-response","103","192970","0.0-103.0","4arfrsr8","","<span style=""color:Black; font-size:50px;"">Video 2</span>","null","","","","",""
"null","","","video-keyboard-response","104","196030","0.0-104.0","4arfrsr8","","","null","","<span style=""color:Black; font-size:50px;"">Casey","Casey","subject_8/713403.bmp_pp153_L3_V1_veridical_freeview_isoFalse_fps144.mp4",""
"","","","call-function","105","196031","0.0-105.0","4arfrsr8","","","","","","","",""
"742.7999999970198","","","categorize-html","106","198784","0.0-106.0","4arfrsr8","","Which video showed <span style=""font-size:30px"">Sandy's</span> attention?","49","","","","","true"
"null","","","html-keyboard-response","107","199287","0.0-107.0","4arfrsr8",""," ","null","","","","",""
"","","","call-function","108","199287","0.0-108.0","4arfrsr8","","","","","","","",""
"null","","","html-keyboard-response","109","200791","0.0-109.0","4arfrsr8","","<span style=""color:Black; font-size:50px;"">Video 1</span>","null","","","","",""
"null","","","video-keyboard-response","110","203865","0.0-110.0","4arfrsr8","","","null","","<span style=""color:Black; font-size:50px;"">Casey","Casey","subject_8/1591858.bmp_pp153_L3_V1_veridical_freeview_isoFalse_fps144.mp4",""
"null","","","html-keyboard-response","111","205378","0.0-111.0","4arfrsr8","","<span style=""color:Black; font-size:50px;"">Video 2</span>","null","","","","",""
"null","","","video-keyboard-response","112","208446","0.0-112.0","4arfrsr8","","","null","","<span style=""color:Black; font-size:50px;"">Sandy","Sandy","subject_8/1591858.bmp_pp92_L3_V1_veridical_freeview_isoFalse_fps144.mp4",""
"","","","call-function","113","208446","0.0-113.0","4arfrsr8","","","","","","","",""
"523.9000000059605","","","categorize-html","114","210978","0.0-114.0","4arfrsr8","","Which video showed <span style=""font-size:30px"">Sandy's</span> attention?","50","","","","","true"
"null","","","html-keyboard-response","115","211490","0.0-115.0","4arfrsr8",""," ","null","","","","",""
"","","","call-function","116","211490","0.0-116.0","4arfrsr8","","","","","","","",""
"null","","","html-keyboard-response","117","213001","0.0-117.0","4arfrsr8","","<span style=""color:Black; font-size:50px;"">Video 1</span>","null","","","","",""
"null","","","video-keyboard-response","118","216061","0.0-118.0","4arfrsr8","","","null","","<span style=""color:Black; font-size:50px;"">Casey","Casey","subject_8/286058.bmp_pp153_L3_V1_veridical_freeview_isoFalse_fps144.mp4",""
"null","","","html-keyboard-response","119","217568","0.0-119.0","4arfrsr8","","<span style=""color:Black; font-size:50px;"">Video 2</span>","null","","","","",""
"null","","","video-keyboard-response","120","220634","0.0-120.0","4arfrsr8","","","null","","<span style=""color:Black; font-size:50px;"">Sandy","Sandy","subject_8/286058.bmp_pp92_L3_V1_veridical_freeview_isoFalse_fps144.mp4",""
"","","","call-function","121","220635","0.0-121.0","4arfrsr8","","","","","","","",""
"654.6000000014901","","","categorize-html","122","223298","0.0-122.0","4arfrsr8","","Which video showed <span style=""font-size:30px"">Sandy's</span> attention?","49","","","","","false"
"null","","","html-keyboard-response","123","223807","0.0-123.0","4arfrsr8",""," ","null","","","","",""
"","","","call-function","124","223807","0.0-124.0","4arfrsr8","","","","","","","",""
"null","","","html-keyboard-response","125","225310","0.0-125.0","4arfrsr8","","<span style=""color:Black; font-size:50px;"">Video 1</span>","null","","","","",""
"null","","","video-keyboard-response","126","228397","0.0-126.0","4arfrsr8","","","null","","<span style=""color:Black; font-size:50px;"">Casey","Casey","subject_8/1159293.bmp_pp153_L3_V1_veridical_freeview_isoFalse_fps144.mp4",""
"null","","","html-keyboard-response","127","229907","0.0-127.0","4arfrsr8","","<span style=""color:Black; font-size:50px;"">Video 2</span>","null","","","","",""
"null","","","video-keyboard-response","128","232982","0.0-128.0","4arfrsr8","","","null","","<span style=""color:Black; font-size:50px;"">Sandy","Sandy","subject_8/1159293.bmp_pp92_L3_V1_veridical_freeview_isoFalse_fps144.mp4",""
"","","","call-function","129","232982","0.0-129.0","4arfrsr8","","","","","","","",""
"485.8999999985099","","","categorize-html","130","235470","0.0-130.0","4arfrsr8","","Which video showed <span style=""font-size:30px"">Sandy's</span> attention?","50","","","","","true"
"null","","","html-keyboard-response","131","235974","0.0-131.0","4arfrsr8",""," ","null","","","","",""
"","","","call-function","132","235974","0.0-132.0","4arfrsr8","","","","","","","",""
"null","","","html-keyboard-response","133","237478","0.0-133.0","4arfrsr8","","<span style=""color:Black; font-size:50px;"">Video 1</span>","null","","","","",""
"null","","","video-keyboard-response","134","240610","0.0-134.0","4arfrsr8","","","null","","<span style=""color:Black; font-size:50px;"">Casey","Casey","subject_8/1159621.bmp_pp153_L3_V1_veridical_freeview_isoFalse_fps144.mp4",""
"null","","","html-keyboard-response","135","242123","0.0-135.0","4arfrsr8","","<span style=""color:Black; font-size:50px;"">Video 2</span>","null","","","","",""
"null","","","video-keyboard-response","136","245179","0.0-136.0","4arfrsr8","","","null","","<span style=""color:Black; font-size:50px;"">Sandy","Sandy","subject_8/1159621.bmp_pp92_L3_V1_veridical_freeview_isoFalse_fps144.mp4",""
"","","","call-function","137","245179","0.0-137.0","4arfrsr8","","","","","","","",""
"505.19999999552965","","","categorize-html","138","247690","0.0-138.0","4arfrsr8","","Which video showed <span style=""font-size:30px"">Sandy's</span> attention?","49","","","","","false"
"null","","","html-keyboard-response","139","248203","0.0-139.0","4arfrsr8",""," ","null","","","","",""
"","","","call-function","140","248204","0.0-140.0","4arfrsr8","","","","","","","",""
"null","","","html-keyboard-response","141","249710","0.0-141.0","4arfrsr8","","<span style=""color:Black; font-size:50px;"">Video 1</span>","null","","","","",""
"null","","","video-keyboard-response","142","252794","0.0-142.0","4arfrsr8","","","null","","<span style=""color:Black; font-size:50px;"">Sandy","Sandy","subject_8/1159497.bmp_pp92_L3_V1_veridical_freeview_isoFalse_fps144.mp4",""
"null","","","html-keyboard-response","143","254307","0.0-143.0","4arfrsr8","","<span style=""color:Black; font-size:50px;"">Video 2</span>","null","","","","",""
"null","","","video-keyboard-response","144","257360","0.0-144.0","4arfrsr8","","","null","","<span style=""color:Black; font-size:50px;"">Casey","Casey","subject_8/1159497.bmp_pp153_L3_V1_veridical_freeview_isoFalse_fps144.mp4",""
"","","","call-function","145","257360","0.0-145.0","4arfrsr8","","","","","","","",""
"1173.6000000014901","","","categorize-html","146","260542","0.0-146.0","4arfrsr8","","Which video showed <span style=""font-size:30px"">Sandy's</span> attention?","50","","","","","false"
"null","","","html-keyboard-response","147","261047","0.0-147.0","4arfrsr8",""," ","null","","","","",""
"","","","call-function","148","261047","0.0-148.0","4arfrsr8","","","","","","","",""
"null","","","html-keyboard-response","149","262550","0.0-149.0","4arfrsr8","","<span style=""color:Black; font-size:50px;"">Video 1</span>","null","","","","",""
"null","","","video-keyboard-response","150","265599","0.0-150.0","4arfrsr8","","","null","","<span style=""color:Black; font-size:50px;"">Sandy","Sandy","subject_8/713620.bmp_pp92_L3_V1_veridical_freeview_isoFalse_fps144.mp4",""
"null","","","html-keyboard-response","151","267107","0.0-151.0","4arfrsr8","","<span style=""color:Black; font-size:50px;"">Video 2</span>","null","","","","",""
"null","","","video-keyboard-response","152","270167","0.0-152.0","4arfrsr8","","","null","","<span style=""color:Black; font-size:50px;"">Casey","Casey","subject_8/713620.bmp_pp153_L3_V1_veridical_freeview_isoFalse_fps144.mp4",""
"","","","call-function","153","270168","0.0-153.0","4arfrsr8","","","","","","","",""
"527.8000000044703","","","categorize-html","154","272705","0.0-154.0","4arfrsr8","","Which video showed <span style=""font-size:30px"">Sandy's</span> attention?","49","","","","","true"
"null","","","html-keyboard-response","155","273219","0.0-155.0","4arfrsr8",""," ","null","","","","",""
"","","","call-function","156","273220","0.0-156.0","4arfrsr8","","","","","","","",""
"null","","","html-keyboard-response","157","274729","0.0-157.0","4arfrsr8","","<span style=""color:Black; font-size:50px;"">Video 1</span>","null","","","","",""
"null","","","video-keyboard-response","158","277814","0.0-158.0","4arfrsr8","","","null","","<span style=""color:Black; font-size:50px;"">Casey","Casey","subject_8/1592298.bmp_pp153_L3_V1_veridical_freeview_isoFalse_fps144.mp4",""
"null","","","html-keyboard-response","159","279320","0.0-159.0","4arfrsr8","","<span style=""color:Black; font-size:50px;"">Video 2</span>","null","","","","",""
"null","","","video-keyboard-response","160","282402","0.0-160.0","4arfrsr8","","","null","","<span style=""color:Black; font-size:50px;"">Sandy","Sandy","subject_8/1592298.bmp_pp92_L3_V1_veridical_freeview_isoFalse_fps144.mp4",""
"","","","call-function","161","282403","0.0-161.0","4arfrsr8","","","","","","","",""
"526.6000000014901","","","categorize-html","162","284937","0.0-162.0","4arfrsr8","","Which video showed <span style=""font-size:30px"">Sandy's</span> attention?","49","","","","","false"
"null","","","html-keyboard-response","163","285440","0.0-163.0","4arfrsr8",""," ","null","","","","",""
"","","","call-function","164","285440","0.0-164.0","4arfrsr8","","","","","","","",""
"null","","","html-keyboard-response","165","286942","0.0-165.0","4arfrsr8","","<span style=""color:Black; font-size:50px;"">Video 1</span>","null","","","","",""
"null","","","video-keyboard-response","166","290001","0.0-166.0","4arfrsr8","","","null","","<span style=""color:Black; font-size:50px;"">Sandy","Sandy","subject_8/1592693.bmp_pp92_L3_V1_veridical_freeview_isoFalse_fps144.mp4",""
"null","","","html-keyboard-response","167","291506","0.0-167.0","4arfrsr8","","<span style=""color:Black; font-size:50px;"">Video 2</span>","null","","","","",""
"null","","","video-keyboard-response","168","294567","0.0-168.0","4arfrsr8","","","null","","<span style=""color:Black; font-size:50px;"">Casey","Casey","subject_8/1592693.bmp_pp153_L3_V1_veridical_freeview_isoFalse_fps144.mp4",""
"","","","call-function","169","294567","0.0-169.0","4arfrsr8","","","","","","","",""
"401.8999999985099","","","categorize-html","170","296979","0.0-170.0","4arfrsr8","","Which video showed <span style=""font-size:30px"">Sandy's</span> attention?","49","","","","","true"
"null","","","html-keyboard-response","171","297491","0.0-171.0","4arfrsr8",""," ","null","","","","",""
"3299.10000000149","","","instructions","172","300790","0.0-172.0","4arfrsr8","[{""page_index"":0,""viewing_time"":2491},{""page_index"":1,""viewing_time"":436.6000000014901},{""page_index"":2,""viewing_time"":371.20000000298023}]","","","","","","",""
"18016.59999999404","","","instructions","173","318807","0.0-173.0","4arfrsr8","[{""page_index"":0,""viewing_time"":16434.89999999851},{""page_index"":1,""viewing_time"":469.3999999985099},{""page_index"":2,""viewing_time"":1112.1000000014901}]","","","","","","",""
"","","","call-function","174","318808","0.0-174.0","4arfrsr8","","","","","","","",""
"null","","","html-keyboard-response","175","320311","0.0-175.0","4arfrsr8","","<span style=""color:Black; font-size:50px;"">Video 1</span>","null","","","","",""
"null","","","video-keyboard-response","176","323393","0.0-176.0","4arfrsr8","","","null","","<span style=""color:Black; font-size:50px;"">Sandy","Sandy","subject_8/713718.bmp_pp92_L3_V1_veridical_freeview_isoFalse_fps144.mp4",""
"null","","","html-keyboard-response","177","324905","0.0-177.0","4arfrsr8","","<span style=""color:Black; font-size:50px;"">Video 2</span>","null","","","","",""
"null","","","video-keyboard-response","178","327973","0.0-178.0","4arfrsr8","","","null","","<span style=""color:Black; font-size:50px;"">Casey","Casey","subject_8/713718.bmp_pp153_L3_V1_veridical_freeview_isoFalse_fps144.mp4",""
"","","","call-function","179","327973","0.0-179.0","4arfrsr8","","","","","","","",""
"857.7000000029802","","","categorize-html","180","330840","0.0-180.0","4arfrsr8","","Which video showed <span style=""font-size:30px"">Sandy's</span> attention?","50","","","","","false"
"null","","","html-keyboard-response","181","331346","0.0-181.0","4arfrsr8",""," ","null","","","","",""
"","","","call-function","182","331346","0.0-182.0","4arfrsr8","","","","","","","",""
"null","","","html-keyboard-response","183","332854","0.0-183.0","4arfrsr8","","<span style=""color:Black; font-size:50px;"">Video 1</span>","null","","","","",""
"null","","","video-keyboard-response","184","335907","0.0-184.0","4arfrsr8","","","null","","<span style=""color:Black; font-size:50px;"">Casey","Casey","subject_8/285684.bmp_pp153_L3_V1_veridical_freeview_isoFalse_fps144.mp4",""
"null","","","html-keyboard-response","185","337417","0.0-185.0","4arfrsr8","","<span style=""color:Black; font-size:50px;"">Video 2</span>","null","","","","",""
"null","","","video-keyboard-response","186","340477","0.0-186.0","4arfrsr8","","","null","","<span style=""color:Black; font-size:50px;"">Sandy","Sandy","subject_8/285684.bmp_pp92_L3_V1_veridical_freeview_isoFalse_fps144.mp4",""
"","","","call-function","187","340478","0.0-187.0","4arfrsr8","","","","","","","",""
"513.8999999985099","","","categorize-html","188","343001","0.0-188.0","4arfrsr8","","Which video showed <span style=""font-size:30px"">Sandy's</span> attention?","49","","","","","false"
"null","","","html-keyboard-response","189","343512","0.0-189.0","4arfrsr8",""," ","null","","","","",""
"","","","call-function","190","343512","0.0-190.0","4arfrsr8","","","","","","","",""
"null","","","html-keyboard-response","191","345018","0.0-191.0","4arfrsr8","","<span style=""color:Black; font-size:50px;"">Video 1</span>","null","","","","",""
"null","","","video-keyboard-response","192","348077","0.0-192.0","4arfrsr8","","","null","","<span style=""color:Black; font-size:50px;"">Sandy","Sandy","subject_8/1159648.bmp_pp92_L3_V1_veridical_freeview_isoFalse_fps144.mp4",""
"null","","","html-keyboard-response","193","349585","0.0-193.0","4arfrsr8","","<span style=""color:Black; font-size:50px;"">Video 2</span>","null","","","","",""
"null","","","video-keyboard-response","194","352660","0.0-194.0","4arfrsr8","","","null","","<span style=""color:Black; font-size:50px;"">Casey","Casey","subject_8/1159648.bmp_pp153_L3_V1_veridical_freeview_isoFalse_fps144.mp4",""
"","","","call-function","195","352661","0.0-195.0","4arfrsr8","","","","","","","",""
"460.8999999985099","","","categorize-html","196","355128","0.0-196.0","4arfrsr8","","Which video showed <span style=""font-size:30px"">Sandy's</span> attention?","50","","","","","false"
"null","","","html-keyboard-response","197","355634","0.0-197.0","4arfrsr8",""," ","null","","","","",""
"","","","call-function","198","355634","0.0-198.0","4arfrsr8","","","","","","","",""
"null","","","html-keyboard-response","199","357146","0.0-199.0","4arfrsr8","","<span style=""color:Black; font-size:50px;"">Video 1</span>","null","","","","",""
"null","","","video-keyboard-response","200","360211","0.0-200.0","4arfrsr8","","","null","","<span style=""color:Black; font-size:50px;"">Sandy","Sandy","subject_8/1159446.bmp_pp92_L3_V1_veridical_freeview_isoFalse_fps144.mp4",""
"288.3999999985099","","","html-keyboard-response","201","360502","0.0-201.0","4arfrsr8","","<span style=""color:Black; font-size:50px;"">Video 2</span>","49","","","","",""
"null","","","video-keyboard-response","202","363546","0.0-202.0","4arfrsr8","","","null","","<span style=""color:Black; font-size:50px;"">Casey","Casey","subject_8/1159446.bmp_pp153_L3_V1_veridical_freeview_isoFalse_fps144.mp4",""
"","","","call-function","203","363547","0.0-203.0","4arfrsr8","","","","","","","",""
"407.8999999985099","","","categorize-html","204","365961","0.0-204.0","4arfrsr8","","Which video showed <span style=""font-size:30px"">Sandy's</span> attention?","49","","","","","true"
"null","","","html-keyboard-response","205","366465","0.0-205.0","4arfrsr8",""," ","null","","","","",""
"","","","call-function","206","366465","0.0-206.0","4arfrsr8","","","","","","","",""
"null","","","html-keyboard-response","207","367970","0.0-207.0","4arfrsr8","","<span style=""color:Black; font-size:50px;"">Video 1</span>","null","","","","",""
"null","","","video-keyboard-response","208","371051","0.0-208.0","4arfrsr8","","","null","","<span style=""color:Black; font-size:50px;"">Casey","Casey","subject_8/498405.bmp_pp153_L3_V1_veridical_freeview_isoFalse_fps144.mp4",""
"null","","","html-keyboard-response","209","372561","0.0-209.0","4arfrsr8","","<span style=""color:Black; font-size:50px;"">Video 2</span>","null","","","","",""
"null","","","video-keyboard-response","210","375634","0.0-210.0","4arfrsr8","","","null","","<span style=""color:Black; font-size:50px;"">Sandy","Sandy","subject_8/498405.bmp_pp92_L3_V1_veridical_freeview_isoFalse_fps144.mp4",""
"","","","call-function","211","375635","0.0-211.0","4arfrsr8","","","","","","","",""
"352.8999999985099","","","categorize-html","212","377994","0.0-212.0","4arfrsr8","","Which video showed <span style=""font-size:30px"">Sandy's</span> attention?","50","","","","","true"
"null","","","html-keyboard-response","213","378507","0.0-213.0","4arfrsr8",""," ","null","","","","",""
"","","","call-function","214","378507","0.0-214.0","4arfrsr8","","","","","","","",""
"null","","","html-keyboard-response","215","380017","0.0-215.0","4arfrsr8","","<span style=""color:Black; font-size:50px;"">Video 1</span>","null","","","","",""
"null","","","video-keyboard-response","216","383084","0.0-216.0","4arfrsr8","","","null","","<span style=""color:Black; font-size:50px;"">Sandy","Sandy","subject_8/1593063.bmp_pp92_L3_V1_veridical_freeview_isoFalse_fps144.mp4",""
"null","","","html-keyboard-response","217","384602","0.0-217.0","4arfrsr8","","<span style=""color:Black; font-size:50px;"">Video 2</span>","null","","","","",""
"null","","","video-keyboard-response","218","387668","0.0-218.0","4arfrsr8","","","null","","<span style=""color:Black; font-size:50px;"">Casey","Casey","subject_8/1593063.bmp_pp153_L3_V1_veridical_freeview_isoFalse_fps144.mp4",""
"","","","call-function","219","387668","0.0-219.0","4arfrsr8","","","","","","","",""
"464.8999999985099","","","categorize-html","220","390145","0.0-220.0","4arfrsr8","","Which video showed <span style=""font-size:30px"">Sandy's</span> attention?","50","","","","","false"
"null","","","html-keyboard-response","221","390648","0.0-221.0","4arfrsr8",""," ","null","","","","",""
"","","","call-function","222","390649","0.0-222.0","4arfrsr8","","","","","","","",""
"null","","","html-keyboard-response","223","392152","0.0-223.0","4arfrsr8","","<span style=""color:Black; font-size:50px;"">Video 1</span>","null","","","","",""
"null","","","video-keyboard-response","224","395232","0.0-224.0","4arfrsr8","","","null","","<span style=""color:Black; font-size:50px;"">Casey","Casey","subject_8/498151.bmp_pp153_L3_V1_veridical_freeview_isoFalse_fps144.mp4",""
"null","","","html-keyboard-response","225","396738","0.0-225.0","4arfrsr8","","<span style=""color:Black; font-size:50px;"">Video 2</span>","null","","","","",""
"null","","","video-keyboard-response","226","399823","0.0-226.0","4arfrsr8","","","null","","<span style=""color:Black; font-size:50px;"">Sandy","Sandy","subject_8/498151.bmp_pp92_L3_V1_veridical_freeview_isoFalse_fps144.mp4",""
"","","","call-function","227","399826","0.0-227.0","4arfrsr8","","","","","","","",""
"529.6000000014901","","","categorize-html","228","402359","0.0-228.0","4arfrsr8","","Which video showed <span style=""font-size:30px"">Sandy's</span> attention?","49","","","","","false"
"null","","","html-keyboard-response","229","402865","0.0-229.0","4arfrsr8",""," ","null","","","","",""
"","","","call-function","230","402865","0.0-230.0","4arfrsr8","","","","","","","",""
"null","","","html-keyboard-response","231","404367","0.0-231.0","4arfrsr8","","<span style=""color:Black; font-size:50px;"">Video 1</span>","null","","","","",""
"null","","","video-keyboard-response","232","407491","0.0-232.0","4arfrsr8","","","null","","<span style=""color:Black; font-size:50px;"">Casey","Casey","subject_8/1160019.bmp_pp153_L3_V1_veridical_freeview_isoFalse_fps144.mp4",""
"null","","","html-keyboard-response","233","409001","0.0-233.0","4arfrsr8","","<span style=""color:Black; font-size:50px;"">Video 2</span>","null","","","","",""
"null","","","video-keyboard-response","234","412086","0.0-234.0","4arfrsr8","","","null","","<span style=""color:Black; font-size:50px;"">Sandy","Sandy","subject_8/1160019.bmp_pp92_L3_V1_veridical_freeview_isoFalse_fps144.mp4",""
"","","","call-function","235","412086","0.0-235.0","4arfrsr8","","","","","","","",""
"600.6999999955297","","","categorize-html","236","414697","0.0-236.0","4arfrsr8","","Which video showed <span style=""font-size:30px"">Sandy's</span> attention?","49","","","","","false"
"null","","","html-keyboard-response","237","415200","0.0-237.0","4arfrsr8",""," ","null","","","","",""
"","","","call-function","238","415201","0.0-238.0","4arfrsr8","","","","","","","",""
"null","","","html-keyboard-response","239","416707","0.0-239.0","4arfrsr8","","<span style=""color:Black; font-size:50px;"">Video 1</span>","null","","","","",""
"null","","","video-keyboard-response","240","419849","0.0-240.0","4arfrsr8","","","null","","<span style=""color:Black; font-size:50px;"">Sandy","Sandy","subject_8/1159592.bmp_pp92_L3_V1_veridical_freeview_isoFalse_fps144.mp4",""
"null","","","html-keyboard-response","241","421351","0.0-241.0","4arfrsr8","","<span style=""color:Black; font-size:50px;"">Video 2</span>","null","","","","",""
"null","","","video-keyboard-response","242","424437","0.0-242.0","4arfrsr8","","","null","","<span style=""color:Black; font-size:50px;"">Casey","Casey","subject_8/1159592.bmp_pp153_L3_V1_veridical_freeview_isoFalse_fps144.mp4",""
"","","","call-function","243","424438","0.0-243.0","4arfrsr8","","","","","","","",""
"383.79999999701977","","","categorize-html","244","426834","0.0-244.0","4arfrsr8","","Which video showed <span style=""font-size:30px"">Sandy's</span> attention?","49","","","","","true"
"null","","","html-keyboard-response","245","427337","0.0-245.0","4arfrsr8",""," ","null","","","","",""
"","","","call-function","246","427338","0.0-246.0","4arfrsr8","","","","","","","",""
"null","","","html-keyboard-response","247","428848","0.0-247.0","4arfrsr8","","<span style=""color:Black; font-size:50px;"">Video 1</span>","null","","","","",""
"null","","","video-keyboard-response","248","431954","0.0-248.0","4arfrsr8","","","null","","<span style=""color:Black; font-size:50px;"">Casey","Casey","subject_8/1592305.bmp_pp153_L3_V1_veridical_freeview_isoFalse_fps144.mp4",""
"null","","","html-keyboard-response","249","433468","0.0-249.0","4arfrsr8","","<span style=""color:Black; font-size:50px;"">Video 2</span>","null","","","","",""
"null","","","video-keyboard-response","250","436551","0.0-250.0","4arfrsr8","","","null","","<span style=""color:Black; font-size:50px;"">Sandy","Sandy","subject_8/1592305.bmp_pp92_L3_V1_veridical_freeview_isoFalse_fps144.mp4",""
"","","","call-function","251","436552","0.0-251.0","4arfrsr8","","","","","","","",""
"443.70000000298023","","","categorize-html","252","439002","0.0-252.0","4arfrsr8","","Which video showed <span style=""font-size:30px"">Sandy's</span> attention?","50","","","","","true"
"null","","","html-keyboard-response","253","439514","0.0-253.0","4arfrsr8",""," ","null","","","","",""
"2196.3000000044703","","","instructions","254","441710","0.0-254.0","4arfrsr8","[{""page_index"":0,""viewing_time"":1750.1000000014901},{""page_index"":1,""viewing_time"":250.39999999850988},{""page_index"":2,""viewing_time"":195.60000000149012}]","","","","","","",""
"716.3999999985099","","","instructions","255","442427","0.0-255.0","4arfrsr8","[{""page_index"":0,""viewing_time"":185.19999999552965},{""page_index"":1,""viewing_time"":225.10000000149012},{""page_index"":2,""viewing_time"":306}]","","","","","","",""
"","","","call-function","256","442428","0.0-256.0","4arfrsr8","","","","","","","",""
"null","","","html-keyboard-response","257","443937","0.0-257.0","4arfrsr8","","<span style=""color:Black; font-size:50px;"">Video 1</span>","null","","","","",""
"null","","","video-keyboard-response","258","447017","0.0-258.0","4arfrsr8","","","null","","<span style=""color:Black; font-size:50px;"">Sandy","Sandy","subject_8/1159515.bmp_pp92_L3_V1_veridical_freeview_isoFalse_fps144.mp4",""
"null","","","html-keyboard-response","259","448521","0.0-259.0","4arfrsr8","","<span style=""color:Black; font-size:50px;"">Video 2</span>","null","","","","",""
"null","","","video-keyboard-response","260","451575","0.0-260.0","4arfrsr8","","","null","","<span style=""color:Black; font-size:50px;"">Casey","Casey","subject_8/1159515.bmp_pp153_L3_V1_veridical_freeview_isoFalse_fps144.mp4",""
"","","","call-function","261","451575","0.0-261.0","4arfrsr8","","","","","","","",""
"577.1000000014901","","","categorize-html","262","454162","0.0-262.0","4arfrsr8","","Which video showed <span style=""font-size:30px"">Sandy's</span> attention?","49","","","","","true"
"null","","","html-keyboard-response","263","454672","0.0-263.0","4arfrsr8",""," ","null","","","","",""
"","","","call-function","264","454672","0.0-264.0","4arfrsr8","","","","","","","",""
"null","","","html-keyboard-response","265","456177","0.0-265.0","4arfrsr8","","<span style=""color:Black; font-size:50px;"">Video 1</span>","null","","","","",""
"null","","","video-keyboard-response","266","459259","0.0-266.0","4arfrsr8","","","null","","<span style=""color:Black; font-size:50px;"">Sandy","Sandy","subject_8/286034.bmp_pp92_L3_V1_veridical_freeview_isoFalse_fps144.mp4",""
"null","","","html-keyboard-response","267","460770","0.0-267.0","4arfrsr8","","<span style=""color:Black; font-size:50px;"">Video 2</span>","null","","","","",""
"null","","","video-keyboard-response","268","463903","0.0-268.0","4arfrsr8","","","null","","<span style=""color:Black; font-size:50px;"">Casey","Casey","subject_8/286034.bmp_pp153_L3_V1_veridical_freeview_isoFalse_fps144.mp4",""
"","","","call-function","269","463904","0.0-269.0","4arfrsr8","","","","","","","",""
"570.7999999970198","","","categorize-html","270","466481","0.0-270.0","4arfrsr8","","Which video showed <span style=""font-size:30px"">Sandy's</span> attention?","49","","","","","true"
"null","","","html-keyboard-response","271","466986","0.0-271.0","4arfrsr8",""," ","null","","","","",""
"","","","call-function","272","466986","0.0-272.0","4arfrsr8","","","","","","","",""
"null","","","html-keyboard-response","273","468496","0.0-273.0","4arfrsr8","","<span style=""color:Black; font-size:50px;"">Video 1</span>","null","","","","",""
"null","","","video-keyboard-response","274","471569","0.0-274.0","4arfrsr8","","","null","","<span style=""color:Black; font-size:50px;"">Sandy","Sandy","subject_8/1592619.bmp_pp92_L3_V1_veridical_freeview_isoFalse_fps144.mp4",""
"null","","","html-keyboard-response","275","473074","0.0-275.0","4arfrsr8","","<span style=""color:Black; font-size:50px;"">Video 2</span>","null","","","","",""
"null","","","video-keyboard-response","276","476170","0.0-276.0","4arfrsr8","","","null","","<span style=""color:Black; font-size:50px;"">Casey","Casey","subject_8/1592619.bmp_pp153_L3_V1_veridical_freeview_isoFalse_fps144.mp4",""
"","","","call-function","277","476171","0.0-277.0","4arfrsr8","","","","","","","",""
"591","","","categorize-html","278","478770","0.0-278.0","4arfrsr8","","Which video showed <span style=""font-size:30px"">Sandy's</span> attention?","50","","","","","false"
"null","","","html-keyboard-response","279","479282","0.0-279.0","4arfrsr8",""," ","null","","","","",""
"","","","call-function","280","479282","0.0-280.0","4arfrsr8","","","","","","","",""
"null","","","html-keyboard-response","281","480796","0.0-281.0","4arfrsr8","","<span style=""color:Black; font-size:50px;"">Video 1</span>","null","","","","",""
"null","","","video-keyboard-response","282","483885","0.0-282.0","4arfrsr8","","","null","","<span style=""color:Black; font-size:50px;"">Sandy","Sandy","subject_8/1592971.bmp_pp92_L3_V1_veridical_freeview_isoFalse_fps144.mp4",""
"null","","","html-keyboard-response","283","485392","0.0-283.0","4arfrsr8","","<span style=""color:Black; font-size:50px;"">Video 2</span>","null","","","","",""
"null","","","video-keyboard-response","284","488469","0.0-284.0","4arfrsr8","","","null","","<span style=""color:Black; font-size:50px;"">Casey","Casey","subject_8/1592971.bmp_pp153_L3_V1_veridical_freeview_isoFalse_fps144.mp4",""
"","","","call-function","285","488469","0.0-285.0","4arfrsr8","","","","","","","",""
"427.20000000298023","","","categorize-html","286","490903","0.0-286.0","4arfrsr8","","Which video showed <span style=""font-size:30px"">Sandy's</span> attention?","50","","","","","false"
"null","","","html-keyboard-response","287","491407","0.0-287.0","4arfrsr8",""," ","null","","","","",""
"","","","call-function","288","491407","0.0-288.0","4arfrsr8","","","","","","","",""
"null","","","html-keyboard-response","289","492915","0.0-289.0","4arfrsr8","","<span style=""color:Black; font-size:50px;"">Video 1</span>","null","","","","",""
"null","","","video-keyboard-response","290","496025","0.0-290.0","4arfrsr8","","","null","","<span style=""color:Black; font-size:50px;"">Casey","Casey","subject_8/713211.bmp_pp153_L3_V1_veridical_freeview_isoFalse_fps144.mp4",""
"null","","","html-keyboard-response","291","497532","0.0-291.0","4arfrsr8","","<span style=""color:Black; font-size:50px;"">Video 2</span>","null","","","","",""
"null","","","video-keyboard-response","292","500626","0.0-292.0","4arfrsr8","","","null","","<span style=""color:Black; font-size:50px;"">Sandy","Sandy","subject_8/713211.bmp_pp92_L3_V1_veridical_freeview_isoFalse_fps144.mp4",""
"","","","call-function","293","500627","0.0-293.0","4arfrsr8","","","","","","","",""
"484.3999999985099","","","categorize-html","294","503121","0.0-294.0","4arfrsr8","","Which video showed <span style=""font-size:30px"">Sandy's</span> attention?","49","","","","","false"
"null","","","html-keyboard-response","295","503626","0.0-295.0","4arfrsr8",""," ","null","","","","",""
"","","","call-function","296","503626","0.0-296.0","4arfrsr8","","","","","","","",""
"null","","","html-keyboard-response","297","505139","0.0-297.0","4arfrsr8","","<span style=""color:Black; font-size:50px;"">Video 1</span>","null","","","","",""
"null","","","video-keyboard-response","298","508238","0.0-298.0","4arfrsr8","","","null","","<span style=""color:Black; font-size:50px;"">Casey","Casey","subject_8/150296.bmp_pp153_L3_V1_veridical_freeview_isoFalse_fps144.mp4",""
"null","","","html-keyboard-response","299","509745","0.0-299.0","4arfrsr8","","<span style=""color:Black; font-size:50px;"">Video 2</span>","null","","","","",""
"null","","","video-keyboard-response","300","512846","0.0-300.0","4arfrsr8","","","null","","<span style=""color:Black; font-size:50px;"">Sandy","Sandy","subject_8/150296.bmp_pp92_L3_V1_veridical_freeview_isoFalse_fps144.mp4",""
"","","","call-function","301","512846","0.0-301.0","4arfrsr8","","","","","","","",""
"563.3999999985099","","","categorize-html","302","515417","0.0-302.0","4arfrsr8","","Which video showed <span style=""font-size:30px"">Sandy's</span> attention?","50","","","","","true"
"null","","","html-keyboard-response","303","515921","0.0-303.0","4arfrsr8",""," ","null","","","","",""
"","","","call-function","304","515921","0.0-304.0","4arfrsr8","","","","","","","",""
"null","","","html-keyboard-response","305","517426","0.0-305.0","4arfrsr8","","<span style=""color:Black; font-size:50px;"">Video 1</span>","null","","","","",""
"null","","","video-keyboard-response","306","520511","0.0-306.0","4arfrsr8","","","null","","<span style=""color:Black; font-size:50px;"">Casey","Casey","subject_8/713684.bmp_pp153_L3_V1_veridical_freeview_isoFalse_fps144.mp4",""
"null","","","html-keyboard-response","307","522016","0.0-307.0","4arfrsr8","","<span style=""color:Black; font-size:50px;"">Video 2</span>","null","","","","",""
"null","","","video-keyboard-response","308","525099","0.0-308.0","4arfrsr8","","","null","","<span style=""color:Black; font-size:50px;"">Sandy","Sandy","subject_8/713684.bmp_pp92_L3_V1_veridical_freeview_isoFalse_fps144.mp4",""
"","","","call-function","309","525100","0.0-309.0","4arfrsr8","","","","","","","",""
"496.6000000014901","","","categorize-html","310","527601","0.0-310.0","4arfrsr8","","Which video showed <span style=""font-size:30px"">Sandy's</span> attention?","49","","","","","false"
"null","","","html-keyboard-response","311","528106","0.0-311.0","4arfrsr8",""," ","null","","","","",""
"","","","call-function","312","528106","0.0-312.0","4arfrsr8","","","","","","","",""
"null","","","html-keyboard-response","313","529615","0.0-313.0","4arfrsr8","","<span style=""color:Black; font-size:50px;"">Video 1</span>","null","","","","",""
"null","","","video-keyboard-response","314","532699","0.0-314.0","4arfrsr8","","","null","","<span style=""color:Black; font-size:50px;"">Casey","Casey","subject_8/498079.bmp_pp153_L3_V1_veridical_freeview_isoFalse_fps144.mp4",""
"null","","","html-keyboard-response","315","534209","0.0-315.0","4arfrsr8","","<span style=""color:Black; font-size:50px;"">Video 2</span>","null","","","","",""
"null","","","video-keyboard-response","316","537282","0.0-316.0","4arfrsr8","","","null","","<span style=""color:Black; font-size:50px;"">Sandy","Sandy","subject_8/498079.bmp_pp92_L3_V1_veridical_freeview_isoFalse_fps144.mp4",""
"","","","call-function","317","537283","0.0-317.0","4arfrsr8","","","","","","","",""
"823.8999999985099","","","categorize-html","318","540115","0.0-318.0","4arfrsr8","","Which video showed <span style=""font-size:30px"">Sandy's</span> attention?","49","","","","","false"
"null","","","html-keyboard-response","319","540628","0.0-319.0","4arfrsr8",""," ","null","","","","",""
"","","","call-function","320","540628","0.0-320.0","4arfrsr8","","","","","","","",""
"null","","","html-keyboard-response","321","542137","0.0-321.0","4arfrsr8","","<span style=""color:Black; font-size:50px;"">Video 1</span>","null","","","","",""
"null","","","video-keyboard-response","322","545240","0.0-322.0","4arfrsr8","","","null","","<span style=""color:Black; font-size:50px;"">Sandy","Sandy","subject_8/1159784.bmp_pp92_L3_V1_veridical_freeview_isoFalse_fps144.mp4",""
"null","","","html-keyboard-response","323","546747","0.0-323.0","4arfrsr8","","<span style=""color:Black; font-size:50px;"">Video 2</span>","null","","","","",""
"null","","","video-keyboard-response","324","549839","0.0-324.0","4arfrsr8","","","null","","<span style=""color:Black; font-size:50px;"">Casey","Casey","subject_8/1159784.bmp_pp153_L3_V1_veridical_freeview_isoFalse_fps144.mp4",""
"","","","call-function","325","549840","0.0-325.0","4arfrsr8","","","","","","","",""
"523.3999999985099","","","categorize-html","326","552372","0.0-326.0","4arfrsr8","","Which video showed <span style=""font-size:30px"">Sandy's</span> attention?","50","","","","","false"
"null","","","html-keyboard-response","327","552883","0.0-327.0","4arfrsr8",""," ","null","","","","",""
"","","","call-function","328","552883","0.0-328.0","4arfrsr8","","","","","","","",""
"null","","","html-keyboard-response","329","554396","0.0-329.0","4arfrsr8","","<span style=""color:Black; font-size:50px;"">Video 1</span>","null","","","","",""
"null","","","video-keyboard-response","330","557479","0.0-330.0","4arfrsr8","","","null","","<span style=""color:Black; font-size:50px;"">Sandy","Sandy","subject_8/150290.bmp_pp92_L3_V1_veridical_freeview_isoFalse_fps144.mp4",""
"null","","","html-keyboard-response","331","558987","0.0-331.0","4arfrsr8","","<span style=""color:Black; font-size:50px;"">Video 2</span>","null","","","","",""
"null","","","video-keyboard-response","332","562075","0.0-332.0","4arfrsr8","","","null","","<span style=""color:Black; font-size:50px;"">Casey","Casey","subject_8/150290.bmp_pp153_L3_V1_veridical_freeview_isoFalse_fps144.mp4",""
"","","","call-function","333","562076","0.0-333.0","4arfrsr8","","","","","","","",""
"811.8999999985099","","","categorize-html","334","564899","0.0-334.0","4arfrsr8","","Which video showed <span style=""font-size:30px"">Sandy's</span> attention?","50","","","","","false"
"null","","","html-keyboard-response","335","565410","0.0-335.0","4arfrsr8",""," ","null","","","","",""
"2266.89999999851","","","instructions","336","567677","0.0-336.0","4arfrsr8","[{""page_index"":0,""viewing_time"":1699.8999999985099},{""page_index"":1,""viewing_time"":309.5},{""page_index"":2,""viewing_time"":257.3999999985099}]","","","","","","",""
"1203.1000000014901","","","instructions","337","568880","0.0-337.0","4arfrsr8","[{""page_index"":0,""viewing_time"":385.80000000447035},{""page_index"":1,""viewing_time"":387.8999999985099},{""page_index"":2,""viewing_time"":429.1000000014901}]","","","","","","",""
"","","","call-function","338","568882","0.0-338.0","4arfrsr8","","","","","","","",""
"null","","","html-keyboard-response","339","570387","0.0-339.0","4arfrsr8","","<span style=""color:Black; font-size:50px;"">Video 1</span>","null","","","","",""
"null","","","video-keyboard-response","340","573470","0.0-340.0","4arfrsr8","","","null","","<span style=""color:Black; font-size:50px;"">Casey","Casey","subject_8/713780.bmp_pp153_L3_V1_veridical_freeview_isoFalse_fps144.mp4",""
"null","","","html-keyboard-response","341","574976","0.0-341.0","4arfrsr8","","<span style=""color:Black; font-size:50px;"">Video 2</span>","null","","","","",""
"null","","","video-keyboard-response","342","578052","0.0-342.0","4arfrsr8","","","null","","<span style=""color:Black; font-size:50px;"">Sandy","Sandy","subject_8/713780.bmp_pp92_L3_V1_veridical_freeview_isoFalse_fps144.mp4",""
"","","","call-function","343","578052","0.0-343.0","4arfrsr8","","","","","","","",""
"859.6000000014901","","","categorize-html","344","580921","0.0-344.0","4arfrsr8","","Which video showed <span style=""font-size:30px"">Sandy's</span> attention?","49","","","","","false"
"null","","","html-keyboard-response","345","581427","0.0-345.0","4arfrsr8",""," ","null","","","","",""
"","","","call-function","346","581428","0.0-346.0","4arfrsr8","","","","","","","",""
"null","","","html-keyboard-response","347","582939","0.0-347.0","4arfrsr8","","<span style=""color:Black; font-size:50px;"">Video 1</span>","null","","","","",""
"null","","","video-keyboard-response","348","586027","0.0-348.0","4arfrsr8","","","null","","<span style=""color:Black; font-size:50px;"">Casey","Casey","subject_8/1160152.bmp_pp153_L3_V1_veridical_freeview_isoFalse_fps144.mp4",""
"null","","","html-keyboard-response","349","587539","0.0-349.0","4arfrsr8","","<span style=""color:Black; font-size:50px;"">Video 2</span>","null","","","","",""
"null","","","video-keyboard-response","350","590628","0.0-350.0","4arfrsr8","","","null","","<span style=""color:Black; font-size:50px;"">Sandy","Sandy","subject_8/1160152.bmp_pp92_L3_V1_veridical_freeview_isoFalse_fps144.mp4",""
"","","","call-function","351","590628","0.0-351.0","4arfrsr8","","","","","","","",""
"379.29999999701977","","","categorize-html","352","593018","0.0-352.0","4arfrsr8","","Which video showed <span style=""font-size:30px"">Sandy's</span> attention?","50","","","","","true"
"null","","","html-keyboard-response","353","593523","0.0-353.0","4arfrsr8",""," ","null","","","","",""
"","","","call-function","354","593524","0.0-354.0","4arfrsr8","","","","","","","",""
"null","","","html-keyboard-response","355","595035","0.0-355.0","4arfrsr8","","<span style=""color:Black; font-size:50px;"">Video 1</span>","null","","","","",""
"null","","","video-keyboard-response","356","598135","0.0-356.0","4arfrsr8","","","null","","<span style=""color:Black; font-size:50px;"">Sandy","Sandy","subject_8/713519.bmp_pp92_L3_V1_veridical_freeview_isoFalse_fps144.mp4",""
"null","","","html-keyboard-response","357","599642","0.0-357.0","4arfrsr8","","<span style=""color:Black; font-size:50px;"">Video 2</span>","null","","","","",""
"null","","","video-keyboard-response","358","602720","0.0-358.0","4arfrsr8","","","null","","<span style=""color:Black; font-size:50px;"">Casey","Casey","subject_8/713519.bmp_pp153_L3_V1_veridical_freeview_isoFalse_fps144.mp4",""
"","","","call-function","359","602721","0.0-359.0","4arfrsr8","","","","","","","",""
"527.6000000014901","","","categorize-html","360","605259","0.0-360.0","4arfrsr8","","Which video showed <span style=""font-size:30px"">Sandy's</span> attention?","49","","","","","true"
"null","","","html-keyboard-response","361","605772","0.0-361.0","4arfrsr8",""," ","null","","","","",""
"","","","call-function","362","605773","0.0-362.0","4arfrsr8","","","","","","","",""
"null","","","html-keyboard-response","363","607280","0.0-363.0","4arfrsr8","","<span style=""color:Black; font-size:50px;"">Video 1</span>","null","","","","",""
"null","","","video-keyboard-response","364","610372","0.0-364.0","4arfrsr8","","","null","","<span style=""color:Black; font-size:50px;"">Casey","Casey","subject_8/498039.bmp_pp153_L3_V1_veridical_freeview_isoFalse_fps144.mp4",""
"null","","","html-keyboard-response","365","611882","0.0-365.0","4arfrsr8","","<span style=""color:Black; font-size:50px;"">Video 2</span>","null","","","","",""
"null","","","video-keyboard-response","366","615006","0.0-366.0","4arfrsr8","","","null","","<span style=""color:Black; font-size:50px;"">Sandy","Sandy","subject_8/498039.bmp_pp92_L3_V1_veridical_freeview_isoFalse_fps144.mp4",""
"","","","call-function","367","615006","0.0-367.0","4arfrsr8","","","","","","","",""
"7694.60000000149","","","categorize-html","368","624708","0.0-368.0","4arfrsr8","","Which video showed <span style=""font-size:30px"">Sandy's</span> attention?","50","","","","","true"
"null","","","html-keyboard-response","369","625221","0.0-369.0","4arfrsr8",""," ","null","","","","",""
"","","","call-function","370","625222","0.0-370.0","4arfrsr8","","","","","","","",""
"null","","","html-keyboard-response","371","626728","0.0-371.0","4arfrsr8","","<span style=""color:Black; font-size:50px;"">Video 1</span>","null","","","","",""
"null","","","video-keyboard-response","372","629819","0.0-372.0","4arfrsr8","","","null","","<span style=""color:Black; font-size:50px;"">Sandy","Sandy","subject_8/1592289.bmp_pp92_L3_V1_veridical_freeview_isoFalse_fps144.mp4",""
"null","","","html-keyboard-response","373","631330","0.0-373.0","4arfrsr8","","<span style=""color:Black; font-size:50px;"">Video 2</span>","null","","","","",""
"null","","","video-keyboard-response","374","634452","0.0-374.0","4arfrsr8","","","null","","<span style=""color:Black; font-size:50px;"">Casey","Casey","subject_8/1592289.bmp_pp153_L3_V1_veridical_freeview_isoFalse_fps144.mp4",""
"","","","call-function","375","634452","0.0-375.0","4arfrsr8","","","","","","","",""
"1139.1000000014901","","","categorize-html","376","637604","0.0-376.0","4arfrsr8","","Which video showed <span style=""font-size:30px"">Sandy's</span> attention?","50","","","","","false"
"null","","","html-keyboard-response","377","638115","0.0-377.0","4arfrsr8",""," ","null","","","","",""
"","","","call-function","378","638115","0.0-378.0","4arfrsr8","","","","","","","",""
"null","","","html-keyboard-response","379","639627","0.0-379.0","4arfrsr8","","<span style=""color:Black; font-size:50px;"">Video 1</span>","null","","","","",""
"null","","","video-keyboard-response","380","642727","0.0-380.0","4arfrsr8","","","null","","<span style=""color:Black; font-size:50px;"">Casey","Casey","subject_8/498032.bmp_pp153_L3_V1_veridical_freeview_isoFalse_fps144.mp4",""
"null","","","html-keyboard-response","381","644236","0.0-381.0","4arfrsr8","","<span style=""color:Black; font-size:50px;"">Video 2</span>","null","","","","",""
"null","","","video-keyboard-response","382","647312","0.0-382.0","4arfrsr8","","","null","","<span style=""color:Black; font-size:50px;"">Sandy","Sandy","subject_8/498032.bmp_pp92_L3_V1_veridical_freeview_isoFalse_fps144.mp4",""
"","","","call-function","383","647313","0.0-383.0","4arfrsr8","","","","","","","",""
"582","","","categorize-html","384","649907","0.0-384.0","4arfrsr8","","Which video showed <span style=""font-size:30px"">Sandy's</span> attention?","49","","","","","false"
"null","","","html-keyboard-response","385","650420","0.0-385.0","4arfrsr8",""," ","null","","","","",""
"","","","call-function","386","650421","0.0-386.0","4arfrsr8","","","","","","","",""
"null","","","html-keyboard-response","387","651932","0.0-387.0","4arfrsr8","","<span style=""color:Black; font-size:50px;"">Video 1</span>","null","","","","",""
"null","","","video-keyboard-response","388","655028","0.0-388.0","4arfrsr8","","","null","","<span style=""color:Black; font-size:50px;"">Sandy","Sandy","subject_8/1593102.bmp_pp92_L3_V1_veridical_freeview_isoFalse_fps144.mp4",""
"null","","","html-keyboard-response","389","656538","0.0-389.0","4arfrsr8","","<span style=""color:Black; font-size:50px;"">Video 2</span>","null","","","","",""
"null","","","video-keyboard-response","390","659615","0.0-390.0","4arfrsr8","","","null","","<span style=""color:Black; font-size:50px;"">Casey","Casey","subject_8/1593102.bmp_pp153_L3_V1_veridical_freeview_isoFalse_fps144.mp4",""
"","","","call-function","391","659615","0.0-391.0","4arfrsr8","","","","","","","",""
"508","","","categorize-html","392","662128","0.0-392.0","4arfrsr8","","Which video showed <span style=""font-size:30px"">Sandy's</span> attention?","49","","","","","true"
"null","","","html-keyboard-response","393","662632","0.0-393.0","4arfrsr8",""," ","null","","","","",""
"","","","call-function","394","662633","0.0-394.0","4arfrsr8","","","","","","","",""
"null","","","html-keyboard-response","395","664140","0.0-395.0","4arfrsr8","","<span style=""color:Black; font-size:50px;"">Video 1</span>","null","","","","",""
"null","","","video-keyboard-response","396","667239","0.0-396.0","4arfrsr8","","","null","","<span style=""color:Black; font-size:50px;"">Sandy","Sandy","subject_8/1592817.bmp_pp92_L3_V1_veridical_freeview_isoFalse_fps144.mp4",""
"null","","","html-keyboard-response","397","668746","0.0-397.0","4arfrsr8","","<span style=""color:Black; font-size:50px;"">Video 2</span>","null","","","","",""
"null","","","video-keyboard-response","398","671822","0.0-398.0","4arfrsr8","","","null","","<span style=""color:Black; font-size:50px;"">Casey","Casey","subject_8/1592817.bmp_pp153_L3_V1_veridical_freeview_isoFalse_fps144.mp4",""
"","","","call-function","399","671824","0.0-399.0","4arfrsr8","","","","","","","",""
"469","","","categorize-html","400","674299","0.0-400.0","4arfrsr8","","Which video showed <span style=""font-size:30px"">Sandy's</span> attention?","50","","","","","false"
"null","","","html-keyboard-response","401","674800","0.0-401.0","4arfrsr8",""," ","null","","","","",""
"","","","call-function","402","674800","0.0-402.0","4arfrsr8","","","","","","","",""
"null","","","html-keyboard-response","403","676309","0.0-403.0","4arfrsr8","","<span style=""color:Black; font-size:50px;"">Video 1</span>","null","","","","",""
"null","","","video-keyboard-response","404","679405","0.0-404.0","4arfrsr8","","","null","","<span style=""color:Black; font-size:50px;"">Sandy","Sandy","subject_8/1592727.bmp_pp92_L3_V1_veridical_freeview_isoFalse_fps144.mp4",""
"null","","","html-keyboard-response","405","680916","0.0-405.0","4arfrsr8","","<span style=""color:Black; font-size:50px;"">Video 2</span>","null","","","","",""
"null","","","video-keyboard-response","406","684004","0.0-406.0","4arfrsr8","","","null","","<span style=""color:Black; font-size:50px;"">Casey","Casey","subject_8/1592727.bmp_pp153_L3_V1_veridical_freeview_isoFalse_fps144.mp4",""
"","","","call-function","407","684005","0.0-407.0","4arfrsr8","","","","","","","",""
"413.09999999403954","","","categorize-html","408","686426","0.0-408.0","4arfrsr8","","Which video showed <span style=""font-size:30px"">Sandy's</span> attention?","49","","","","","true"
"null","","","html-keyboard-response","409","686931","0.0-409.0","4arfrsr8",""," ","null","","","","",""
"","","","call-function","410","686931","0.0-410.0","4arfrsr8","","","","","","","",""
"null","","","html-keyboard-response","411","688436","0.0-411.0","4arfrsr8","","<span style=""color:Black; font-size:50px;"">Video 1</span>","null","","","","",""
"null","","","video-keyboard-response","412","691538","0.0-412.0","4arfrsr8","","","null","","<span style=""color:Black; font-size:50px;"">Casey","Casey","subject_8/1592350.bmp_pp153_L3_V1_veridical_freeview_isoFalse_fps144.mp4",""
"null","","","html-keyboard-response","413","693042","0.0-413.0","4arfrsr8","","<span style=""color:Black; font-size:50px;"">Video 2</span>","null","","","","",""
"null","","","video-keyboard-response","414","696121","0.0-414.0","4arfrsr8","","","null","","<span style=""color:Black; font-size:50px;"">Sandy","Sandy","subject_8/1592350.bmp_pp92_L3_V1_veridical_freeview_isoFalse_fps144.mp4",""
"","","","call-function","415","696122","0.0-415.0","4arfrsr8","","","","","","","",""
"504.1000000014901","","","categorize-html","416","698635","0.0-416.0","4arfrsr8","","Which video showed <span style=""font-size:30px"">Sandy's</span> attention?","50","","","","","true"
"null","","","html-keyboard-response","417","699139","0.0-417.0","4arfrsr8",""," ","null","","","","",""
"2122.7000000029802","","","instructions","418","701262","0.0-418.0","4arfrsr8","[{""page_index"":0,""viewing_time"":1500.3000000044703},{""page_index"":1,""viewing_time"":403.29999999701977},{""page_index"":2,""viewing_time"":219}]","","","","","","",""
"1348.3999999985099","","","instructions","419","702610","0.0-419.0","4arfrsr8","[{""page_index"":0,""viewing_time"":404.20000000298023},{""page_index"":1,""viewing_time"":466.29999999701977},{""page_index"":2,""viewing_time"":477.80000000447035}]","","","","","","",""
"","","","call-function","420","702611","0.0-420.0","4arfrsr8","","","","","","","",""
"null","","","html-keyboard-response","421","704115","0.0-421.0","4arfrsr8","","<span style=""color:Black; font-size:50px;"">Video 1</span>","null","","","","",""
"null","","","video-keyboard-response","422","707209","0.0-422.0","4arfrsr8","","","null","","<span style=""color:Black; font-size:50px;"">Sandy","Sandy","subject_8/1592027.bmp_pp92_L3_V1_veridical_freeview_isoFalse_fps144.mp4",""
"null","","","html-keyboard-response","423","708712","0.0-423.0","4arfrsr8","","<span style=""color:Black; font-size:50px;"">Video 2</span>","null","","","","",""
"null","","","video-keyboard-response","424","711804","0.0-424.0","4arfrsr8","","","null","","<span style=""color:Black; font-size:50px;"">Casey","Casey","subject_8/1592027.bmp_pp153_L3_V1_veridical_freeview_isoFalse_fps144.mp4",""
"","","","call-function","425","711805","0.0-425.0","4arfrsr8","","","","","","","",""
"444.20000000298023","","","categorize-html","426","714256","0.0-426.0","4arfrsr8","","Which video showed <span style=""font-size:30px"">Sandy's</span> attention?","50","","","","","false"
"null","","","html-keyboard-response","427","714760","0.0-427.0","4arfrsr8",""," ","null","","","","",""
"","","","call-function","428","714761","0.0-428.0","4arfrsr8","","","","","","","",""
"null","","","html-keyboard-response","429","716265","0.0-429.0","4arfrsr8","","<span style=""color:Black; font-size:50px;"">Video 1</span>","null","","","","",""
"null","","","video-keyboard-response","430","719359","0.0-430.0","4arfrsr8","","","null","","<span style=""color:Black; font-size:50px;"">Sandy","Sandy","subject_8/1592581.bmp_pp92_L3_V1_veridical_freeview_isoFalse_fps144.mp4",""
"null","","","html-keyboard-response","431","720867","0.0-431.0","4arfrsr8","","<span style=""color:Black; font-size:50px;"">Video 2</span>","null","","","","",""
"null","","","video-keyboard-response","432","723962","0.0-432.0","4arfrsr8","","","null","","<span style=""color:Black; font-size:50px;"">Casey","Casey","subject_8/1592581.bmp_pp153_L3_V1_veridical_freeview_isoFalse_fps144.mp4",""
"","","","call-function","433","723962","0.0-433.0","4arfrsr8","","","","","","","",""
"391.5","","","categorize-html","434","726365","0.0-434.0","4arfrsr8","","Which video showed <span style=""font-size:30px"">Sandy's</span> attention?","49","","","","","true"
"null","","","html-keyboard-response","435","726876","0.0-435.0","4arfrsr8",""," ","null","","","","",""
"","","","call-function","436","726876","0.0-436.0","4arfrsr8","","","","","","","",""
"null","","","html-keyboard-response","437","728387","0.0-437.0","4arfrsr8","","<span style=""color:Black; font-size:50px;"">Video 1</span>","null","","","","",""
"null","","","video-keyboard-response","438","731483","0.0-438.0","4arfrsr8","","","null","","<span style=""color:Black; font-size:50px;"">Casey","Casey","subject_8/1159991.bmp_pp153_L3_V1_veridical_freeview_isoFalse_fps144.mp4",""
"null","","","html-keyboard-response","439","732995","0.0-439.0","4arfrsr8","","<span style=""color:Black; font-size:50px;"">Video 2</span>","null","","","","",""
"null","","","video-keyboard-response","440","736086","0.0-440.0","4arfrsr8","","","null","","<span style=""color:Black; font-size:50px;"">Sandy","Sandy","subject_8/1159991.bmp_pp92_L3_V1_veridical_freeview_isoFalse_fps144.mp4",""
"","","","call-function","441","736086","0.0-441.0","4arfrsr8","","","","","","","",""
"419.09999999403954","","","categorize-html","442","738507","0.0-442.0","4arfrsr8","","Which video showed <span style=""font-size:30px"">Sandy's</span> attention?","50","","","","","true"
"null","","","html-keyboard-response","443","739011","0.0-443.0","4arfrsr8",""," ","null","","","","",""
"","","","call-function","444","739012","0.0-444.0","4arfrsr8","","","","","","","",""
"null","","","html-keyboard-response","445","740523","0.0-445.0","4arfrsr8","","<span style=""color:Black; font-size:50px;"">Video 1</span>","null","","","","",""
"null","","","video-keyboard-response","446","743607","0.0-446.0","4arfrsr8","","","null","","<span style=""color:Black; font-size:50px;"">Sandy","Sandy","subject_8/150496.bmp_pp92_L3_V1_veridical_freeview_isoFalse_fps144.mp4",""
"null","","","html-keyboard-response","447","745116","0.0-447.0","4arfrsr8","","<span style=""color:Black; font-size:50px;"">Video 2</span>","null","","","","",""
"null","","","video-keyboard-response","448","748205","0.0-448.0","4arfrsr8","","","null","","<span style=""color:Black; font-size:50px;"">Casey","Casey","subject_8/150496.bmp_pp153_L3_V1_veridical_freeview_isoFalse_fps144.mp4",""
"","","","call-function","449","748206","0.0-449.0","4arfrsr8","","","","","","","",""
"602.7999999970198","","","categorize-html","450","750818","0.0-450.0","4arfrsr8","","Which video showed <span style=""font-size:30px"">Sandy's</span> attention?","49","","","","","true"
"null","","","html-keyboard-response","451","751322","0.0-451.0","4arfrsr8",""," ","null","","","","",""
"","","","call-function","452","751322","0.0-452.0","4arfrsr8","","","","","","","",""
"null","","","html-keyboard-response","453","752826","0.0-453.0","4arfrsr8","","<span style=""color:Black; font-size:50px;"">Video 1</span>","null","","","","",""
"null","","","video-keyboard-response","454","755911","0.0-454.0","4arfrsr8","","","null","","<span style=""color:Black; font-size:50px;"">Casey","Casey","subject_8/1592314.bmp_pp153_L3_V1_veridical_freeview_isoFalse_fps144.mp4",""
"null","","","html-keyboard-response","455","757420","0.0-455.0","4arfrsr8","","<span style=""color:Black; font-size:50px;"">Video 2</span>","null","","","","",""
"null","","","video-keyboard-response","456","760510","0.0-456.0","4arfrsr8","","","null","","<span style=""color:Black; font-size:50px;"">Sandy","Sandy","subject_8/1592314.bmp_pp92_L3_V1_veridical_freeview_isoFalse_fps144.mp4",""
"","","","call-function","457","760511","0.0-457.0","4arfrsr8","","","","","","","",""
"606.7000000029802","","","categorize-html","458","763123","0.0-458.0","4arfrsr8","","Which video showed <span style=""font-size:30px"">Sandy's</span> attention?","50","","","","","true"
"null","","","html-keyboard-response","459","763628","0.0-459.0","4arfrsr8",""," ","null","","","","",""
"","","","call-function","460","763628","0.0-460.0","4arfrsr8","","","","","","","",""
"null","","","html-keyboard-response","461","765138","0.0-461.0","4arfrsr8","","<span style=""color:Black; font-size:50px;"">Video 1</span>","null","","","","",""
"null","","","video-keyboard-response","462","768240","0.0-462.0","4arfrsr8","","","null","","<span style=""color:Black; font-size:50px;"">Sandy","Sandy","subject_8/1592397.bmp_pp92_L3_V1_veridical_freeview_isoFalse_fps144.mp4",""
"null","","","html-keyboard-response","463","769746","0.0-463.0","4arfrsr8","","<span style=""color:Black; font-size:50px;"">Video 2</span>","null","","","","",""
"null","","","video-keyboard-response","464","772845","0.0-464.0","4arfrsr8","","","null","","<span style=""color:Black; font-size:50px;"">Casey","Casey","subject_8/1592397.bmp_pp153_L3_V1_veridical_freeview_isoFalse_fps144.mp4",""
"","","","call-function","465","772846","0.0-465.0","4arfrsr8","","","","","","","",""
"585.2999999970198","","","categorize-html","466","775434","0.0-466.0","4arfrsr8","","Which video showed <span style=""font-size:30px"">Sandy's</span> attention?","49","","","","","true"
"null","","","html-keyboard-response","467","775940","0.0-467.0","4arfrsr8",""," ","null","","","","",""
"","","","call-function","468","775941","0.0-468.0","4arfrsr8","","","","","","","",""
"null","","","html-keyboard-response","469","777450","0.0-469.0","4arfrsr8","","<span style=""color:Black; font-size:50px;"">Video 1</span>","null","","","","",""
"null","","","video-keyboard-response","470","780543","0.0-470.0","4arfrsr8","","","null","","<span style=""color:Black; font-size:50px;"">Casey","Casey","subject_8/1592303.bmp_pp153_L3_V1_veridical_freeview_isoFalse_fps144.mp4",""
"null","","","html-keyboard-response","471","782059","0.0-471.0","4arfrsr8","","<span style=""color:Black; font-size:50px;"">Video 2</span>","null","","","","",""
"null","","","video-keyboard-response","472","785144","0.0-472.0","4arfrsr8","","","null","","<span style=""color:Black; font-size:50px;"">Sandy","Sandy","subject_8/1592303.bmp_pp92_L3_V1_veridical_freeview_isoFalse_fps144.mp4",""
"","","","call-function","473","785145","0.0-473.0","4arfrsr8","","","","","","","",""
"394.20000000298023","","","categorize-html","474","787546","0.0-474.0","4arfrsr8","","Which video showed <span style=""font-size:30px"">Sandy's</span> attention?","50","","","","","true"
"null","","","html-keyboard-response","475","788049","0.0-475.0","4arfrsr8",""," ","null","","","","",""
"","","","call-function","476","788050","0.0-476.0","4arfrsr8","","","","","","","",""
"null","","","html-keyboard-response","477","789555","0.0-477.0","4arfrsr8","","<span style=""color:Black; font-size:50px;"">Video 1</span>","null","","","","",""
"null","","","video-keyboard-response","478","792644","0.0-478.0","4arfrsr8","","","null","","<span style=""color:Black; font-size:50px;"">Casey","Casey","subject_8/1592129.bmp_pp153_L3_V1_veridical_freeview_isoFalse_fps144.mp4",""
"null","","","html-keyboard-response","479","794156","0.0-479.0","4arfrsr8","","<span style=""color:Black; font-size:50px;"">Video 2</span>","null","","","","",""
"null","","","video-keyboard-response","480","797243","0.0-480.0","4arfrsr8","","","null","","<span style=""color:Black; font-size:50px;"">Sandy","Sandy","subject_8/1592129.bmp_pp92_L3_V1_veridical_freeview_isoFalse_fps144.mp4",""
"","","","call-function","481","797244","0.0-481.0","4arfrsr8","","","","","","","",""
"399.70000000298023","","","categorize-html","482","799652","0.0-482.0","4arfrsr8","","Which video showed <span style=""font-size:30px"">Sandy's</span> attention?","49","","","","","false"
"null","","","html-keyboard-response","483","800163","0.0-483.0","4arfrsr8",""," ","null","","","","",""
"","","","call-function","484","800164","0.0-484.0","4arfrsr8","","","","","","","",""
"null","","","html-keyboard-response","485","801669","0.0-485.0","4arfrsr8","","<span style=""color:Black; font-size:50px;"">Video 1</span>","null","","","","",""
"null","","","video-keyboard-response","486","804761","0.0-486.0","4arfrsr8","","","null","","<span style=""color:Black; font-size:50px;"">Sandy","Sandy","subject_8/1160171.bmp_pp92_L3_V1_veridical_freeview_isoFalse_fps144.mp4",""
"null","","","html-keyboard-response","487","806267","0.0-487.0","4arfrsr8","","<span style=""color:Black; font-size:50px;"">Video 2</span>","null","","","","",""
"null","","","video-keyboard-response","488","809360","0.0-488.0","4arfrsr8","","","null","","<span style=""color:Black; font-size:50px;"">Casey","Casey","subject_8/1160171.bmp_pp153_L3_V1_veridical_freeview_isoFalse_fps144.mp4",""
"","","","call-function","489","809361","0.0-489.0","4arfrsr8","","","","","","","",""
"602.3999999985099","","","categorize-html","490","811971","0.0-490.0","4arfrsr8","","Which video showed <span style=""font-size:30px"">Sandy's</span> attention?","49","","","","","true"
"null","","","html-keyboard-response","491","812477","0.0-491.0","4arfrsr8",""," ","null","","","","",""
"","","","call-function","492","812477","0.0-492.0","4arfrsr8","","","","","","","",""
"null","","","html-keyboard-response","493","813986","0.0-493.0","4arfrsr8","","<span style=""color:Black; font-size:50px;"">Video 1</span>","null","","","","",""
"null","","","video-keyboard-response","494","817076","0.0-494.0","4arfrsr8","","","null","","<span style=""color:Black; font-size:50px;"">Sandy","Sandy","subject_8/713796.bmp_pp92_L3_V1_veridical_freeview_isoFalse_fps144.mp4",""
"null","","","html-keyboard-response","495","818587","0.0-495.0","4arfrsr8","","<span style=""color:Black; font-size:50px;"">Video 2</span>","null","","","","",""
"null","","","video-keyboard-response","496","821676","0.0-496.0","4arfrsr8","","","null","","<span style=""color:Black; font-size:50px;"">Casey","Casey","subject_8/713796.bmp_pp153_L3_V1_veridical_freeview_isoFalse_fps144.mp4",""
"","","","call-function","497","821677","0.0-497.0","4arfrsr8","","","","","","","",""
"450.8999999985099","","","categorize-html","498","824133","0.0-498.0","4arfrsr8","","Which video showed <span style=""font-size:30px"">Sandy's</span> attention?","50","","","","","false"
"null","","","html-keyboard-response","499","824644","0.0-499.0","4arfrsr8",""," ","null","","","","",""
"2234.89999999851","","","instructions","500","826880","0.0-500.0","4arfrsr8","[{""page_index"":0,""viewing_time"":1480.6999999955297},{""page_index"":1,""viewing_time"":542.4000000059605},{""page_index"":2,""viewing_time"":211.69999999552965}]","","","","","","",""
"1234.1999999955297","","","instructions","501","828115","0.0-501.0","4arfrsr8","[{""page_index"":0,""viewing_time"":394.09999999403954},{""page_index"":1,""viewing_time"":409.20000000298023},{""page_index"":2,""viewing_time"":430.5}]","","","","","","",""
"","","","call-function","502","828115","0.0-502.0","4arfrsr8","","","","","","","",""
"null","","","html-keyboard-response","503","829620","0.0-503.0","4arfrsr8","","<span style=""color:Black; font-size:50px;"">Video 1</span>","null","","","","",""
"null","","","video-keyboard-response","504","832705","0.0-504.0","4arfrsr8","","","null","","<span style=""color:Black; font-size:50px;"">Casey","Casey","subject_8/498058.bmp_pp153_L3_V1_veridical_freeview_isoFalse_fps144.mp4",""
"null","","","html-keyboard-response","505","834211","0.0-505.0","4arfrsr8","","<span style=""color:Black; font-size:50px;"">Video 2</span>","null","","","","",""
"null","","","video-keyboard-response","506","837302","0.0-506.0","4arfrsr8","","","null","","<span style=""color:Black; font-size:50px;"">Sandy","Sandy","subject_8/498058.bmp_pp92_L3_V1_veridical_freeview_isoFalse_fps144.mp4",""
"","","","call-function","507","837303","0.0-507.0","4arfrsr8","","","","","","","",""
"573.1000000014901","","","categorize-html","508","839882","0.0-508.0","4arfrsr8","","Which video showed <span style=""font-size:30px"">Sandy's</span> attention?","50","","","","","true"
"null","","","html-keyboard-response","509","840386","0.0-509.0","4arfrsr8",""," ","null","","","","",""
"","","","call-function","510","840386","0.0-510.0","4arfrsr8","","","","","","","",""
"null","","","html-keyboard-response","511","841892","0.0-511.0","4arfrsr8","","<span style=""color:Black; font-size:50px;"">Video 1</span>","null","","","","",""
"null","","","video-keyboard-response","512","844968","0.0-512.0","4arfrsr8","","","null","","<span style=""color:Black; font-size:50px;"">Casey","Casey","subject_8/150277.bmp_pp153_L3_V1_veridical_freeview_isoFalse_fps144.mp4",""
"null","","","html-keyboard-response","513","846477","0.0-513.0","4arfrsr8","","<span style=""color:Black; font-size:50px;"">Video 2</span>","null","","","","",""
"null","","","video-keyboard-response","514","849567","0.0-514.0","4arfrsr8","","","null","","<span style=""color:Black; font-size:50px;"">Sandy","Sandy","subject_8/150277.bmp_pp92_L3_V1_veridical_freeview_isoFalse_fps144.mp4",""
"","","","call-function","515","849567","0.0-515.0","4arfrsr8","","","","","","","",""
"857.1000000014901","","","categorize-html","516","852436","0.0-516.0","4arfrsr8","","Which video showed <span style=""font-size:30px"">Sandy's</span> attention?","49","","","","","false"
"null","","","html-keyboard-response","517","852950","0.0-517.0","4arfrsr8",""," ","null","","","","",""
"","","","call-function","518","852950","0.0-518.0","4arfrsr8","","","","","","","",""
"null","","","html-keyboard-response","519","854460","0.0-519.0","4arfrsr8","","<span style=""color:Black; font-size:50px;"">Video 1</span>","null","","","","",""
"null","","","video-keyboard-response","520","857562","0.0-520.0","4arfrsr8","","","null","","<span style=""color:Black; font-size:50px;"">Casey","Casey","subject_8/1159482.bmp_pp153_L3_V1_veridical_freeview_isoFalse_fps144.mp4",""
"null","","","html-keyboard-response","521","859074","0.0-521.0","4arfrsr8","","<span style=""color:Black; font-size:50px;"">Video 2</span>","null","","","","",""
"null","","","video-keyboard-response","522","862163","0.0-522.0","4arfrsr8","","","null","","<span style=""color:Black; font-size:50px;"">Sandy","Sandy","subject_8/1159482.bmp_pp92_L3_V1_veridical_freeview_isoFalse_fps144.mp4",""
"","","","call-function","523","862164","0.0-523.0","4arfrsr8","","","","","","","",""
"805","","","categorize-html","524","864980","0.0-524.0","4arfrsr8","","Which video showed <span style=""font-size:30px"">Sandy's</span> attention?","50","","","","","true"
"null","","","html-keyboard-response","525","865490","0.0-525.0","4arfrsr8",""," ","null","","","","",""
"","","","call-function","526","865491","0.0-526.0","4arfrsr8","","","","","","","",""
"null","","","html-keyboard-response","527","866997","0.0-527.0","4arfrsr8","","<span style=""color:Black; font-size:50px;"">Video 1</span>","null","","","","",""
"null","","","video-keyboard-response","528","870105","0.0-528.0","4arfrsr8","","","null","","<span style=""color:Black; font-size:50px;"">Casey","Casey","subject_8/150384.bmp_pp153_L3_V1_veridical_freeview_isoFalse_fps144.mp4",""
"null","","","html-keyboard-response","529","871612","0.0-529.0","4arfrsr8","","<span style=""color:Black; font-size:50px;"">Video 2</span>","null","","","","",""
"null","","","video-keyboard-response","530","874703","0.0-530.0","4arfrsr8","","","null","","<span style=""color:Black; font-size:50px;"">Sandy","Sandy","subject_8/150384.bmp_pp92_L3_V1_veridical_freeview_isoFalse_fps144.mp4",""
"","","","call-function","531","874704","0.0-531.0","4arfrsr8","","","","","","","",""
"582.7999999970198","","","categorize-html","532","877290","0.0-532.0","4arfrsr8","","Which video showed <span style=""font-size:30px"">Sandy's</span> attention?","49","","","","","false"
"null","","","html-keyboard-response","533","877795","0.0-533.0","4arfrsr8",""," ","null","","","","",""
"","","","call-function","534","877796","0.0-534.0","4arfrsr8","","","","","","","",""
"null","","","html-keyboard-response","535","879297","0.0-535.0","4arfrsr8","","<span style=""color:Black; font-size:50px;"">Video 1</span>","null","","","","",""
"null","","","video-keyboard-response","536","882382","0.0-536.0","4arfrsr8","","","null","","<span style=""color:Black; font-size:50px;"">Sandy","Sandy","subject_8/1592951.bmp_pp92_L3_V1_veridical_freeview_isoFalse_fps144.mp4",""
"null","","","html-keyboard-response","537","883892","0.0-537.0","4arfrsr8","","<span style=""color:Black; font-size:50px;"">Video 2</span>","null","","","","",""
"null","","","video-keyboard-response","538","886999","0.0-538.0","4arfrsr8","","","null","","<span style=""color:Black; font-size:50px;"">Casey","Casey","subject_8/1592951.bmp_pp153_L3_V1_veridical_freeview_isoFalse_fps144.mp4",""
"","","","call-function","539","886999","0.0-539.0","4arfrsr8","","","","","","","",""
"804","","","categorize-html","540","889811","0.0-540.0","4arfrsr8","","Which video showed <span style=""font-size:30px"">Sandy's</span> attention?","50","","","","","false"
"null","","","html-keyboard-response","541","890317","0.0-541.0","4arfrsr8",""," ","null","","","","",""
"","","","call-function","542","890317","0.0-542.0","4arfrsr8","","","","","","","",""
"null","","","html-keyboard-response","543","891829","0.0-543.0","4arfrsr8","","<span style=""color:Black; font-size:50px;"">Video 1</span>","null","","","","",""
"null","","","video-keyboard-response","544","894915","0.0-544.0","4arfrsr8","","","null","","<span style=""color:Black; font-size:50px;"">Sandy","Sandy","subject_8/713742.bmp_pp92_L3_V1_veridical_freeview_isoFalse_fps144.mp4",""
"null","","","html-keyboard-response","545","896422","0.0-545.0","4arfrsr8","","<span style=""color:Black; font-size:50px;"">Video 2</span>","null","","","","",""
"null","","","video-keyboard-response","546","899517","0.0-546.0","4arfrsr8","","","null","","<span style=""color:Black; font-size:50px;"">Casey","Casey","subject_8/713742.bmp_pp153_L3_V1_veridical_freeview_isoFalse_fps144.mp4",""
"","","","call-function","547","899518","0.0-547.0","4arfrsr8","","","","","","","",""
"677.7000000029802","","","categorize-html","548","902205","0.0-548.0","4arfrsr8","","Which video showed <span style=""font-size:30px"">Sandy's</span> attention?","49","","","","","true"
"null","","","html-keyboard-response","549","902716","0.0-549.0","4arfrsr8",""," ","null","","","","",""
"","","","call-function","550","902717","0.0-550.0","4arfrsr8","","","","","","","",""
"null","","","html-keyboard-response","551","904226","0.0-551.0","4arfrsr8","","<span style=""color:Black; font-size:50px;"">Video 1</span>","null","","","","",""
"null","","","video-keyboard-response","552","907333","0.0-552.0","4arfrsr8","","","null","","<span style=""color:Black; font-size:50px;"">Casey","Casey","subject_8/1592150.bmp_pp153_L3_V1_veridical_freeview_isoFalse_fps144.mp4",""
"null","","","html-keyboard-response","553","908842","0.0-553.0","4arfrsr8","","<span style=""color:Black; font-size:50px;"">Video 2</span>","null","","","","",""
"null","","","video-keyboard-response","554","911934","0.0-554.0","4arfrsr8","","","null","","<span style=""color:Black; font-size:50px;"">Sandy","Sandy","subject_8/1592150.bmp_pp92_L3_V1_veridical_freeview_isoFalse_fps144.mp4",""
"","","","call-function","555","911935","0.0-555.0","4arfrsr8","","","","","","","",""
"378.90000000596046","","","categorize-html","556","914323","0.0-556.0","4arfrsr8","","Which video showed <span style=""font-size:30px"">Sandy's</span> attention?","50","","","","","true"
"null","","","html-keyboard-response","557","914828","0.0-557.0","4arfrsr8",""," ","null","","","","",""
"","","","call-function","558","914829","0.0-558.0","4arfrsr8","","","","","","","",""
"null","","","html-keyboard-response","559","916341","0.0-559.0","4arfrsr8","","<span style=""color:Black; font-size:50px;"">Video 1</span>","null","","","","",""
"null","","","video-keyboard-response","560","919448","0.0-560.0","4arfrsr8","","","null","","<span style=""color:Black; font-size:50px;"">Casey","Casey","subject_8/1159956.bmp_pp153_L3_V1_veridical_freeview_isoFalse_fps144.mp4",""
"null","","","html-keyboard-response","561","920955","0.0-561.0","4arfrsr8","","<span style=""color:Black; font-size:50px;"">Video 2</span>","null","","","","",""
"null","","","video-keyboard-response","562","924050","0.0-562.0","4arfrsr8","","","null","","<span style=""color:Black; font-size:50px;"">Sandy","Sandy","subject_8/1159956.bmp_pp92_L3_V1_veridical_freeview_isoFalse_fps144.mp4",""
"","","","call-function","563","924051","0.0-563.0","4arfrsr8","","","","","","","",""
"574","","","categorize-html","564","926633","0.0-564.0","4arfrsr8","","Which video showed <span style=""font-size:30px"">Sandy's</span> attention?","50","","","","","true"
"null","","","html-keyboard-response","565","927137","0.0-565.0","4arfrsr8",""," ","null","","","","",""
"","","","call-function","566","927137","0.0-566.0","4arfrsr8","","","","","","","",""
"null","","","html-keyboard-response","567","928641","0.0-567.0","4arfrsr8","","<span style=""color:Black; font-size:50px;"">Video 1</span>","null","","","","",""
"null","","","video-keyboard-response","568","931733","0.0-568.0","4arfrsr8","","","null","","<span style=""color:Black; font-size:50px;"">Casey","Casey","subject_8/1159777.bmp_pp153_L3_V1_veridical_freeview_isoFalse_fps144.mp4",""
"null","","","html-keyboard-response","569","933245","0.0-569.0","4arfrsr8","","<span style=""color:Black; font-size:50px;"">Video 2</span>","null","","","","",""
"null","","","video-keyboard-response","570","936333","0.0-570.0","4arfrsr8","","","null","","<span style=""color:Black; font-size:50px;"">Sandy","Sandy","subject_8/1159777.bmp_pp92_L3_V1_veridical_freeview_isoFalse_fps144.mp4",""
"","","","call-function","571","936334","0.0-571.0","4arfrsr8","","","","","","","",""
"611","","","categorize-html","572","938957","0.0-572.0","4arfrsr8","","Which video showed <span style=""font-size:30px"">Sandy's</span> attention?","50","","","","","true"
"null","","","html-keyboard-response","573","939467","0.0-573.0","4arfrsr8",""," ","null","","","","",""
"","","","call-function","574","939467","0.0-574.0","4arfrsr8","","","","","","","",""
"null","","","html-keyboard-response","575","940971","0.0-575.0","4arfrsr8","","<span style=""color:Black; font-size:50px;"">Video 1</span>","null","","","","",""
"null","","","video-keyboard-response","576","944067","0.0-576.0","4arfrsr8","","","null","","<span style=""color:Black; font-size:50px;"">Sandy","Sandy","subject_8/497926.bmp_pp92_L3_V1_veridical_freeview_isoFalse_fps144.mp4",""
"null","","","html-keyboard-response","577","945570","0.0-577.0","4arfrsr8","","<span style=""color:Black; font-size:50px;"">Video 2</span>","null","","","","",""
"null","","","video-keyboard-response","578","948686","0.0-578.0","4arfrsr8","","","null","","<span style=""color:Black; font-size:50px;"">Casey","Casey","subject_8/497926.bmp_pp153_L3_V1_veridical_freeview_isoFalse_fps144.mp4",""
"","","","call-function","579","948687","0.0-579.0","4arfrsr8","","","","","","","",""
"719.7000000029802","","","categorize-html","580","951420","0.0-580.0","4arfrsr8","","Which video showed <span style=""font-size:30px"">Sandy's</span> attention?","50","","","","","false"
"null","","","html-keyboard-response","581","951930","0.0-581.0","4arfrsr8",""," ","null","","","","",""
"2550.5","","","instructions","582","954481","0.0-582.0","4arfrsr8","[{""page_index"":0,""viewing_time"":2550.1999999955297}]","","","","","","",""
"961.1000000014901","","","instructions","583","955443","0.0-583.0","4arfrsr8","[{""page_index"":0,""viewing_time"":960.7999999970198}]","","","","","","",""
"1983.3999999985099","{""Q0"":""g""}","","survey-text","584","957446","0.0-584.0","4arfrsr8","","","","","","","",""
"708.1999999955297","{""Q0"":""g""}","","survey-text","585","958157","0.0-585.0","4arfrsr8","","","","","","","",""
"578.5","{""Q0"":""g""}","","survey-text","586","958738","0.0-586.0","4arfrsr8","","","","","","","",""
"789.2000000029802","","","instructions","587","959527","0.0-587.0","4arfrsr8","[{""page_index"":0,""viewing_time"":789.1000000014901}]","","","","","","",""
"3699.3000000044703","{""Experimenter_end"":[""Printed ID# 4arfrsr8 on consent form"",""Given subject SONA credit or payment"",""Given the subject debrief form""]}","[0]","survey-multi-select","588","963228","0.0-588.0","4arfrsr8","","","","","","","",""
